p_block,p_section,p_coherence,p_direction1,p_direction2,p_direction_response,p_direction_RT,p_change_response,p_change_RT,p_confidence,p_full_correct,p_without5_correct,p_full_total,p_without5_total,p_full_avg,p_witout5_avg,p_total_time,sub,age,sex,handedness,loop,trial randomization,coherence,condition,direction1,direction2,direction_response,direction_RT,change_response,change_RT,change_confidence,change_confidence_RT,block_direction_avg,block_stable_avg,block_change_avg,total_time,sub,age,sex,handedness,
1,1,1.0,0,-,0,0.8810512999998537,-,-,-,,,,,,,,572,18,Woman,Right,,,,,,,,,,,,,,,,,572,18,Woman,Right,
1,1,1.0,0,-,180,0.016665500000272004,-,-,-,,,,,,,,572,18,Woman,Right,,,,,,,,,,,,,,,,,572,18,Woman,Right,
1,1,1.0,0,-,0,2.978028400000767,-,-,-,,,,,,,,572,18,Woman,Right,,,,,,,,,,,,,,,,,572,18,Woman,Right,
1,1,1.0,0,-,180,0.08771980000074109,-,-,-,,,,,,,,572,18,Woman,Right,,,,,,,,,,,,,,,,,572,18,Woman,Right,
1,1,1.0,180,-,180,0.15466509999987466,-,-,-,,,,,,,,572,18,Woman,Right,,,,,,,,,,,,,,,,,572,18,Woman,Right,
1,1,1.0,0,-,0,0.01686100000006263,-,-,-,,,,,,,,572,18,Woman,Right,,,,,,,,,,,,,,,,,572,18,Woman,Right,
1,1,1.0,0,-,180,0.01672359999975015,-,-,-,,,,,,,,572,18,Woman,Right,,,,,,,,,,,,,,,,,572,18,Woman,Right,
1,1,1.0,180,-,0,0.07328739999957179,-,-,-,,,,,,,,572,18,Woman,Right,,,,,,,,,,,,,,,,,572,18,Woman,Right,
1,1,1.0,180,-,0,0.18935450000026322,-,-,-,,,,,,,,572,18,Woman,Right,,,,,,,,,,,,,,,,,572,18,Woman,Right,
1,1,1.0,180,-,0,0.19722290000026987,-,-,-,,,,,,,,572,18,Woman,Right,,,,,,,,,,,,,,,,,572,18,Woman,Right,
1,1,1.0,180,-,180,0.016754300000684452,-,-,-,,,,,,,,572,18,Woman,Right,,,,,,,,,,,,,,,,,572,18,Woman,Right,
1,1,1.0,180,-,180,0.016706999999769323,-,-,-,,,,,,,,572,18,Woman,Right,,,,,,,,,,,,,,,,,572,18,Woman,Right,
1,1,1.0,180,-,180,0.7457660000000033,-,-,-,,,,,,,,572,18,Woman,Right,,,,,,,,,,,,,,,,,572,18,Woman,Right,
1,1,1.0,180,-,0,0.016622199999801524,-,-,-,,,,,,,,572,18,Woman,Right,,,,,,,,,,,,,,,,,572,18,Woman,Right,
1,1,1.0,0,-,180,0.2974989000003916,-,-,-,,,,,,,,572,18,Woman,Right,,,,,,,,,,,,,,,,,572,18,Woman,Right,
1,1,1.0,0,-,0,0.21698939999987488,-,-,-,,,,,,,,572,18,Woman,Right,,,,,,,,,,,,,,,,,572,18,Woman,Right,
1,1,1.0,0,-,180,0.3310740999995687,-,-,-,,,,,,,,572,18,Woman,Right,,,,,,,,,,,,,,,,,572,18,Woman,Right,
1,1,1.0,0,-,0,0.2604492000000391,-,-,-,,,,,,,,572,18,Woman,Right,,,,,,,,,,,,,,,,,572,18,Woman,Right,
1,1,1.0,180,-,0,0.23341629999958968,-,-,-,,,,,,,,572,18,Woman,Right,,,,,,,,,,,,,,,,,572,18,Woman,Right,
1,1,1.0,180,-,180,0.4071179000002303,-,-,-,,,,,,,,572,18,Woman,Right,,,,,,,,,,,,,,,,,572,18,Woman,Right,
1,1,1.0,180,-,0,0.22155910000037693,-,-,-,,,,,,,,572,18,Woman,Right,,,,,,,,,,,,,,,,,572,18,Woman,Right,
1,1,1.0,180,-,0,0.276344899999458,-,-,-,,,,,,,,572,18,Woman,Right,,,,,,,,,,,,,,,,,572,18,Woman,Right,
1,1,1.0,0,-,180,0.3120923999995284,-,-,-,,,,,,,,572,18,Woman,Right,,,,,,,,,,,,,,,,,572,18,Woman,Right,
1,1,1.0,180,-,0,0.4986612000002424,-,-,-,,,,,,,,572,18,Woman,Right,,,,,,,,,,,,,,,,,572,18,Woman,Right,
1,1,1.0,180,-,180,0.4625341999999364,-,-,-,,,,,,,,572,18,Woman,Right,,,,,,,,,,,,,,,,,572,18,Woman,Right,
1,1,1.0,180,-,180,0.2826702000002115,-,-,-,,,,,,,,572,18,Woman,Right,,,,,,,,,,,,,,,,,572,18,Woman,Right,
1,1,1.0,0,-,0,0.35122539999974833,-,-,-,,,,,,,,572,18,Woman,Right,,,,,,,,,,,,,,,,,572,18,Woman,Right,
1,1,1.0,0,-,180,0.23178400000051624,-,-,-,,,,,,,,572,18,Woman,Right,,,,,,,,,,,,,,,,,572,18,Woman,Right,
1,1,1.0,0,-,0,0.016779800000222167,-,-,-,,,,,,,,572,18,Woman,Right,,,,,,,,,,,,,,,,,572,18,Woman,Right,
1,1,1.0,180,-,0,0.6040895999994973,-,-,-,,,,,,,,572,18,Woman,Right,,,,,,,,,,,,,,,,,572,18,Woman,Right,
1,1,1.0,180,-,180,0.330128099999456,-,-,-,,,,,,,,572,18,Woman,Right,,,,,,,,,,,,,,,,,572,18,Woman,Right,
1,1,1.0,0,-,0,0.3567291999997906,-,-,-,,,,,,,,572,18,Woman,Right,,,,,,,,,,,,,,,,,572,18,Woman,Right,
1,1,1.0,180,-,180,0.2774552999999287,-,-,-,,,,,,,,572,18,Woman,Right,,,,,,,,,,,,,,,,,572,18,Woman,Right,
1,1,1.0,180,-,180,0.35045050000007905,-,-,-,,,,,,,,572,18,Woman,Right,,,,,,,,,,,,,,,,,572,18,Woman,Right,
1,1,1.0,0,-,0,0.33385360000011133,-,-,-,,,,,,,,572,18,Woman,Right,,,,,,,,,,,,,,,,,572,18,Woman,Right,
1,1,1.0,0,-,0,0.3477111000001969,-,-,-,,,,,,,,572,18,Woman,Right,,,,,,,,,,,,,,,,,572,18,Woman,Right,
1,1,1.0,180,-,180,0.35754220000035275,-,-,-,,,,,,,,572,18,Woman,Right,,,,,,,,,,,,,,,,,572,18,Woman,Right,
1,1,1.0,0,-,0,0.22224090000054275,-,-,-,,,,,,,,572,18,Woman,Right,,,,,,,,,,,,,,,,,572,18,Woman,Right,
1,1,1.0,180,-,180,0.3240802000000258,-,-,-,,,,,,,,572,18,Woman,Right,,,,,,,,,,,,,,,,,572,18,Woman,Right,
1,1,1.0,180,-,180,0.5100176999994801,-,-,-,10,10,10,10,1.0,1.0,,572,18,Woman,Right,,,,,,,,,,,,,,,,,572,18,Woman,Right,
2,1,0.4,0,-,180,1.1381531000006362,-,-,-,,,,,,,,572,18,Woman,Right,,,,,,,,,,,,,,,,,572,18,Woman,Right,
2,1,0.4,0,-,0,0.5623552000006384,-,-,-,,,,,,,,572,18,Woman,Right,,,,,,,,,,,,,,,,,572,18,Woman,Right,
2,1,0.4,180,-,180,0.602998899999875,-,-,-,,,,,,,,572,18,Woman,Right,,,,,,,,,,,,,,,,,572,18,Woman,Right,
2,1,0.15,0,-,0,0.5937453999995341,-,-,-,,,,,,,,572,18,Woman,Right,,,,,,,,,,,,,,,,,572,18,Woman,Right,
2,1,0.15,180,-,180,0.41699229999994714,-,-,-,,,,,,,,572,18,Woman,Right,,,,,,,,,,,,,,,,,572,18,Woman,Right,
2,1,0.15,180,-,0,0.4305461000003561,-,-,-,,,,,,,,572,18,Woman,Right,,,,,,,,,,,,,,,,,572,18,Woman,Right,
2,1,0.15,0,-,0,0.3162561999997706,-,-,-,,,,,,,,572,18,Woman,Right,,,,,,,,,,,,,,,,,572,18,Woman,Right,
2,1,0.4,0,-,180,0.5261214000001928,-,-,-,,,,,,,,572,18,Woman,Right,,,,,,,,,,,,,,,,,572,18,Woman,Right,
2,1,0.4,0,-,0,0.47199080000063987,-,-,-,,,,,,,,572,18,Woman,Right,,,,,,,,,,,,,,,,,572,18,Woman,Right,
2,1,0.15,0,-,180,0.3315360000005967,-,-,-,,,,,,,,572,18,Woman,Right,,,,,,,,,,,,,,,,,572,18,Woman,Right,
2,1,0.4,180,-,180,0.7015924999996059,-,-,-,,,,,,,,572,18,Woman,Right,,,,,,,,,,,,,,,,,572,18,Woman,Right,
2,1,0.4,180,-,0,0.30366030000004685,-,-,-,,,,,,,,572,18,Woman,Right,,,,,,,,,,,,,,,,,572,18,Woman,Right,
2,1,0.4,180,-,180,0.4581169000002774,-,-,-,,,,,,,,572,18,Woman,Right,,,,,,,,,,,,,,,,,572,18,Woman,Right,
2,1,0.15,0,-,0,0.3594935000000987,-,-,-,,,,,,,,572,18,Woman,Right,,,,,,,,,,,,,,,,,572,18,Woman,Right,
2,1,0.4,0,-,0,0.2637099000003218,-,-,-,,,,,,,,572,18,Woman,Right,,,,,,,,,,,,,,,,,572,18,Woman,Right,
2,1,0.4,180,-,0,0.3170626999999513,-,-,-,,,,,,,,572,18,Woman,Right,,,,,,,,,,,,,,,,,572,18,Woman,Right,
2,1,0.15,0,-,0,0.32624549999945884,-,-,-,,,,,,,,572,18,Woman,Right,,,,,,,,,,,,,,,,,572,18,Woman,Right,
2,1,0.4,0,-,180,0.5441019999998389,-,-,-,,,,,,,,572,18,Woman,Right,,,,,,,,,,,,,,,,,572,18,Woman,Right,
2,1,0.4,0,-,0,0.5379972000000635,-,-,-,,,,,,,,572,18,Woman,Right,,,,,,,,,,,,,,,,,572,18,Woman,Right,
2,1,0.4,180,-,180,0.34761819999948784,-,-,-,,,,,,,,572,18,Woman,Right,,,,,,,,,,,,,,,,,572,18,Woman,Right,
2,1,0.4,180,-,0,0.5966090000001714,-,-,-,,,,,,,,572,18,Woman,Right,,,,,,,,,,,,,,,,,572,18,Woman,Right,
2,1,0.15,0,-,180,0.500665200000185,-,-,-,,,,,,,,572,18,Woman,Right,,,,,,,,,,,,,,,,,572,18,Woman,Right,
2,1,0.4,0,-,0,0.677960200000598,-,-,-,,,,,,,,572,18,Woman,Right,,,,,,,,,,,,,,,,,572,18,Woman,Right,
2,1,0.15,0,-,0,0.8421533999999156,-,-,-,,,,,,,,572,18,Woman,Right,,,,,,,,,,,,,,,,,572,18,Woman,Right,
2,1,0.4,0,-,180,0.518935799999781,-,-,-,,,,,,,,572,18,Woman,Right,,,,,,,,,,,,,,,,,572,18,Woman,Right,
2,1,0.15,0,-,0,0.6806143000003431,-,-,-,,,,,,,,572,18,Woman,Right,,,,,,,,,,,,,,,,,572,18,Woman,Right,
2,1,0.4,0,-,180,0.5008017000000109,-,-,-,,,,,,,,572,18,Woman,Right,,,,,,,,,,,,,,,,,572,18,Woman,Right,
2,1,0.15,180,-,0,0.6150888000001942,-,-,-,,,,,,,,572,18,Woman,Right,,,,,,,,,,,,,,,,,572,18,Woman,Right,
2,1,0.15,180,-,180,0.7574582999995982,-,-,-,,,,,,,,572,18,Woman,Right,,,,,,,,,,,,,,,,,572,18,Woman,Right,
2,1,0.15,180,-,0,0.381609799999751,-,-,-,,,,,,,,572,18,Woman,Right,,,,,,,,,,,,,,,,,572,18,Woman,Right,
2,1,0.4,0,-,180,1.093072900000152,-,-,-,,,,,,,,572,18,Woman,Right,,,,,,,,,,,,,,,,,572,18,Woman,Right,
2,1,0.15,180,-,0,0.8157137000007424,-,-,-,,,,,,,,572,18,Woman,Right,,,,,,,,,,,,,,,,,572,18,Woman,Right,
2,1,0.15,180,-,180,0.9977867000006881,-,-,-,,,,,,,,572,18,Woman,Right,,,,,,,,,,,,,,,,,572,18,Woman,Right,
2,1,0.4,0,-,0,0.44445830000040587,-,-,-,,,,,,,,572,18,Woman,Right,,,,,,,,,,,,,,,,,572,18,Woman,Right,
2,1,0.4,180,-,180,0.6575290999999197,-,-,-,,,,,,,,572,18,Woman,Right,,,,,,,,,,,,,,,,,572,18,Woman,Right,
2,1,0.15,0,-,0,0.4615678999998636,-,-,-,,,,,,,,572,18,Woman,Right,,,,,,,,,,,,,,,,,572,18,Woman,Right,
2,1,0.4,180,-,180,0.48252769999999146,-,-,-,,,,,,,,572,18,Woman,Right,,,,,,,,,,,,,,,,,572,18,Woman,Right,
2,1,0.15,180,-,0,0.33351500000026135,-,-,-,,,,,,,,572,18,Woman,Right,,,,,,,,,,,,,,,,,572,18,Woman,Right,
2,1,0.4,180,-,180,0.422677599999588,-,-,-,,,,,,,,572,18,Woman,Right,,,,,,,,,,,,,,,,,572,18,Woman,Right,
2,1,0.4,180,-,0,0.6368814999996175,-,-,-,,,,,,,,572,18,Woman,Right,,,,,,,,,,,,,,,,,572,18,Woman,Right,
2,1,0.4,0,-,0,0.49752429999989545,-,-,-,,,,,,,,572,18,Woman,Right,,,,,,,,,,,,,,,,,572,18,Woman,Right,
2,1,0.4,0,-,180,0.4127551000001404,-,-,-,,,,,,,,572,18,Woman,Right,,,,,,,,,,,,,,,,,572,18,Woman,Right,
2,1,0.15,180,-,0,0.41124409999974887,-,-,-,,,,,,,,572,18,Woman,Right,,,,,,,,,,,,,,,,,572,18,Woman,Right,
2,1,0.4,0,-,180,0.5536184000002322,-,-,-,,,,,,,,572,18,Woman,Right,,,,,,,,,,,,,,,,,572,18,Woman,Right,
2,1,0.4,0,-,0,0.5138397999999142,-,-,-,,,,,,,,572,18,Woman,Right,,,,,,,,,,,,,,,,,572,18,Woman,Right,
2,1,0.15,180,-,180,0.3483203000005233,-,-,-,,,,,,,,572,18,Woman,Right,,,,,,,,,,,,,,,,,572,18,Woman,Right,
2,1,0.15,0,-,180,0.6375381999996534,-,-,-,,,,,,,,572,18,Woman,Right,,,,,,,,,,,,,,,,,572,18,Woman,Right,
2,1,0.4,180,-,0,0.016713399999389367,-,-,-,,,,,,,,572,18,Woman,Right,,,,,,,,,,,,,,,,,572,18,Woman,Right,
2,1,0.15,0,-,180,0.3375460999995994,-,-,-,,,,,,,,572,18,Woman,Right,,,,,,,,,,,,,,,,,572,18,Woman,Right,
2,1,0.4,180,-,0,0.3622386999995797,-,-,-,,,,,,,,572,18,Woman,Right,,,,,,,,,,,,,,,,,572,18,Woman,Right,
2,1,0.15,180,-,180,1.922924200000125,-,-,-,,,,,,,,572,18,Woman,Right,,,,,,,,,,,,,,,,,572,18,Woman,Right,
2,1,0.15,180,-,0,0.3072336000004725,-,-,-,,,,,,,,572,18,Woman,Right,,,,,,,,,,,,,,,,,572,18,Woman,Right,
2,1,0.4,0,-,180,1.1657530000002225,-,-,-,,,,,,,,572,18,Woman,Right,,,,,,,,,,,,,,,,,572,18,Woman,Right,
2,1,0.15,180,-,0,0.5002858000007109,-,-,-,,,,,,,,572,18,Woman,Right,,,,,,,,,,,,,,,,,572,18,Woman,Right,
2,1,0.15,0,-,0,1.1999751000003016,-,-,-,,,,,,,,572,18,Woman,Right,,,,,,,,,,,,,,,,,572,18,Woman,Right,
2,1,0.4,0,-,0,0.5341405999997733,-,-,-,,,,,,,,572,18,Woman,Right,,,,,,,,,,,,,,,,,572,18,Woman,Right,
2,1,0.15,180,-,0,0.751962100000128,-,-,-,,,,,,,,572,18,Woman,Right,,,,,,,,,,,,,,,,,572,18,Woman,Right,
2,1,0.4,0,-,0,0.8406482000000324,-,-,-,,,,,,,,572,18,Woman,Right,,,,,,,,,,,,,,,,,572,18,Woman,Right,
2,1,0.4,180,-,180,0.6373806000001423,-,-,-,,,,,,,,572,18,Woman,Right,,,,,,,,,,,,,,,,,572,18,Woman,Right,
2,1,0.4,180,-,180,1.410373200000322,-,-,-,6,4,10,5,0.6,0.8,,572,18,Woman,Right,,,,,,,,,,,,,,,,,572,18,Woman,Right,
3,2,1.0,0,180,0,1.7864298000004055,['y'],1.622201999999561,1.56,,,,,,,,572,18,Woman,Right,,,,,,,,,,,,,,,,,572,18,Woman,Right,
3,2,1.0,0,180,180,1.6487778000000617,['y'],1.6201092999999673,1.742,,,,,,,,572,18,Woman,Right,,,,,,,,,,,,,,,,,572,18,Woman,Right,
3,2,1.0,0,180,180,0.9769193000001906,['y'],0.8569125999993048,1.674,,,,,,,,572,18,Woman,Right,,,,,,,,,,,,,,,,,572,18,Woman,Right,
3,2,1.0,180,0,0,0.6517819999999119,['y'],1.2820994000003338,1.706,,,,,,,,572,18,Woman,Right,,,,,,,,,,,,,,,,,572,18,Woman,Right,
3,2,1.0,0,180,180,0.6110376999995424,['y'],0.7097013000002335,1.706,,,,,,,,572,18,Woman,Right,,,,,,,,,,,,,,,,,572,18,Woman,Right,
3,2,1.0,180,0,0,0.5695585999992545,['y'],1.8954100000000835,1.6440000000000001,,,,,,,,572,18,Woman,Right,,,,,,,,,,,,,,,,,572,18,Woman,Right,
3,2,1.0,180,0,0,0.6402023999999074,['y'],1.0280145000006087,1.612,,,,,,,,572,18,Woman,Right,,,,,,,,,,,,,,,,,572,18,Woman,Right,
3,2,1.0,180,0,0,0.45806150000044,['y'],1.8230729999995674,1.6680000000000001,,,,,,,,572,18,Woman,Right,,,,,,,,,,,,,,,,,572,18,Woman,Right,
3,2,1.0,180,0,0,0.3832351999999446,['y'],0.7205005999994682,1.692,,,,,,,,572,18,Woman,Right,,,,,,,,,,,,,,,,,572,18,Woman,Right,
3,2,1.0,0,180,180,0.34907139999995707,['y'],0.4400040999998964,1.704,9,9,10,10,0.9,0.9,,572,18,Woman,Right,,,,,,,,,,,,,,,,,572,18,Woman,Right,
4,2,0.15,0,180,0,1.4357317000003604,['n'],0.5638503000000128,1.6480000000000001,,,,,,,,572,18,Woman,Right,,,,,,,,,,,,,,,,,572,18,Woman,Right,
4,2,0.15,0,180,0,0.655732899999748,['n'],0.8009210999998686,1.6520000000000001,,,,,,,,572,18,Woman,Right,,,,,,,,,,,,,,,,,572,18,Woman,Right,
4,2,0.4,0,180,180,0.5916498000005959,['y'],0.37287129999913304,1.72,,,,,,,,572,18,Woman,Right,,,,,,,,,,,,,,,,,572,18,Woman,Right,
4,2,0.15,0,180,180,0.7335600999995222,['y'],0.4130823000004966,1.718,,,,,,,,572,18,Woman,Right,,,,,,,,,,,,,,,,,572,18,Woman,Right,
4,2,0.15,180,0,0,0.45368150000012974,['y'],0.914287399999921,1.774,,,,,,,,572,18,Woman,Right,,,,,,,,,,,,,,,,,572,18,Woman,Right,
4,2,0.4,180,0,0,0.5651269000009052,['y'],0.7750863000001118,1.826,,,,,,,,572,18,Woman,Right,,,,,,,,,,,,,,,,,572,18,Woman,Right,
4,2,0.15,0,180,180,0.671216199999435,['y'],0.6206124000000273,1.746,,,,,,,,572,18,Woman,Right,,,,,,,,,,,,,,,,,572,18,Woman,Right,
4,2,0.15,180,0,0,0.3718226999999388,['y'],0.34360259999994014,1.736,,,,,,,,572,18,Woman,Right,,,,,,,,,,,,,,,,,572,18,Woman,Right,
4,2,0.4,0,180,180,0.4065476000005219,['y'],0.2809980000001815,1.716,,,,,,,,572,18,Woman,Right,,,,,,,,,,,,,,,,,572,18,Woman,Right,
4,2,0.4,0,180,180,0.7512334000002738,['y'],0.30065209999975195,1.756,8,4,10,4,0.8,1.0,,572,18,Woman,Right,,,,,,,,,,,,,,,,,572,18,Woman,Right,
5,3,0.15,0,180,0,1.085241099999621,['y'],0.8348062000004575,1.734,,,,,,,,572,18,Woman,Right,,,,,,,,,,,,,,,,,572,18,Woman,Right,
5,3,0.4,0,-,0,1.301683900000171,['y'],0.6754860000000917,1.5739999999999998,,,,,,,,572,18,Woman,Right,,,,,,,,,,,,,,,,,572,18,Woman,Right,
5,3,0.15,180,0,180,2.7848001000002114,['n'],1.874213800000689,1.748,,,,,,,,572,18,Woman,Right,,,,,,,,,,,,,,,,,572,18,Woman,Right,
5,3,1.0,180,-,180,1.0216200000004392,['n'],1.1685324999998556,1.792,,,,,,,,572,18,Woman,Right,,,,,,,,,,,,,,,,,572,18,Woman,Right,
5,3,0.4,180,0,0,0.7456131000008099,['y'],0.24074490000020887,1.74,,,,,,,,572,18,Woman,Right,,,,,,,,,,,,,,,,,572,18,Woman,Right,
5,3,0.15,180,0,0,0.7684871999999814,['n'],0.8002219999998488,1.68,,,,,,,,572,18,Woman,Right,,,,,,,,,,,,,,,,,572,18,Woman,Right,
5,3,0.15,180,-,180,0.522863099999995,['y'],0.29285279999930935,1.392,,,,,,,,572,18,Woman,Right,,,,,,,,,,,,,,,,,572,18,Woman,Right,
5,3,0.4,180,0,0,0.39393350000045757,['n'],2.0038713000003554,1.4,,,,,,,,572,18,Woman,Right,,,,,,,,,,,,,,,,,572,18,Woman,Right,
5,3,1.0,0,180,0,0.6451187999991816,['y'],0.6141711000000214,1.736,,,,,,,,572,18,Woman,Right,,,,,,,,,,,,,,,,,572,18,Woman,Right,
5,3,0.15,0,180,180,1.915284900000188,['n'],0.3194293000005928,1.662,7,4,10,5,0.7,0.8,,572,18,Woman,Right,,,,,,,,,,,,,,,,,572,18,Woman,Right,
,,,,,,,,,,,,,,,,3.1999998100218363e-06,572,18,Woman,Right,,,,,,,,,,,,,,,,,572,18,Woman,Right,
,,,,,,,,,,,,,,,,,572,18,Woman,Right,0,49,0.15,2,0,180,180,0.6105219999999463,['n'],2.7111464999998134,1.73,344.9763286999996,,,,,572,18,Woman,Right,
,,,,,,,,,,,,,,,,,572,18,Woman,Right,0,54,0.15,1,180,-,0,0.494280400000207,['n'],1.4639743000007002,1.362,350.4317594000004,,,,,572,18,Woman,Right,
,,,,,,,,,,,,,,,,,572,18,Woman,Right,0,14,0.4,1,180,-,0,0.6630946000004769,['y'],1.2965664999992441,1.714,356.9884955999996,,,,,572,18,Woman,Right,
,,,,,,,,,,,,,,,,,572,18,Woman,Right,0,16,0.4,1,0,-,180,0.5918203999999605,['y'],1.8092871000008017,1.71,363.74503360000017,,,,,572,18,Woman,Right,
,,,,,,,,,,,,,,,,,572,18,Woman,Right,0,4,1,1,0,-,180,0.5560385999997379,['y'],1.2738706000000093,1.884,368.9670984000004,,,,,572,18,Woman,Right,
,,,,,,,,,,,,,,,,,572,18,Woman,Right,0,70,0.15,1,180,-,0,0.4179172000003746,['n'],1.6032703000000765,1.688,374.222162,,,,,572,18,Woman,Right,
,,,,,,,,,,,,,,,,,572,18,Woman,Right,0,8,0.4,1,0,-,0,0.5247210999996241,['n'],1.8680382000002282,1.6680000000000001,381.17937129999973,,,,,572,18,Woman,Right,
,,,,,,,,,,,,,,,,,572,18,Woman,Right,0,0,1,1,0,-,180,0.6544690999999148,['y'],0.7004471000000194,1.758,385.0997533,,,,,572,18,Woman,Right,
,,,,,,,,,,,,,,,,,572,18,Woman,Right,0,7,1,2,180,0,0,0.5861886000002414,['y'],0.7328413999994154,1.814,389.43750050000017,,,,,572,18,Woman,Right,
,,,,,,,,,,,,,,,,,572,18,Woman,Right,0,30,0.4,1,180,-,0,1.5306902000002083,['n'],0.9410609999995359,1.816,394.55904629999986,,,,,572,18,Woman,Right,
,,,,,,,,,,,,,,,,,572,18,Woman,Right,0,50,0.15,1,180,-,180,2.040436199999931,['n'],1.1580057000001034,1.31,402.96745590000046,,,,,572,18,Woman,Right,
,,,,,,,,,,,,,,,,,572,18,Woman,Right,0,5,1,2,0,180,180,0.5418469999995068,['y'],1.1672686000001704,1.682,407.72210499999983,,,,,572,18,Woman,Right,
,,,,,,,,,,,,,,,,,572,18,Woman,Right,0,57,0.15,2,0,180,0,1.6434785999999804,['n'],0.7517444000004616,1.706,412.9773661999998,,,,,572,18,Woman,Right,
,,,,,,,,,,,,,,,,,572,18,Woman,Right,0,79,0.15,2,180,0,180,0.7490913000001456,['y'],0.6001618000000235,1.768,417.04827920000025,,,,,572,18,Woman,Right,
,,,,,,,,,,,,,,,,,572,18,Woman,Right,0,52,0.15,1,0,-,0,0.8139541999998983,['y'],1.529091200000039,1.57,423.18757840000035,,,,,572,18,Woman,Right,
,,,,,,,,,,,,,,,,,572,18,Woman,Right,0,51,0.15,2,180,0,0,4.8052584999995815,['y'],1.1582328999993479,1.564,433.96498880000036,,,,,572,18,Woman,Right,
,,,,,,,,,,,,,,,,,572,18,Woman,Right,0,6,1,1,180,-,0,1.4643148000004658,['n'],0.6432891999993444,1.778,438.93680959999983,,,,,572,18,Woman,Right,
,,,,,,,,,,,,,,,,,572,18,Woman,Right,0,25,0.4,2,0,180,0,0.9767558000003191,['y'],0.9640777000004164,1.736,443.4577294999999,,,,,572,18,Woman,Right,
,,,,,,,,,,,,,,,,,572,18,Woman,Right,0,15,0.4,2,180,0,0,0.7234576999999263,['n'],0.9969792000001689,1.754,448.0122093,,,,,572,18,Woman,Right,
,,,,,,,,,,,,,,,,,572,18,Woman,Right,0,40,0.4,1,0,-,180,2.307263000000603,['n'],1.365200599999298,1.838,454.9525303999999,,,,,572,18,Woman,Right,
,,,,,,,,,,,,,,,,,572,18,Woman,Right,0,34,0.4,1,180,-,180,0.7806954999996378,['y'],0.5897949999998673,1.63,459.2236310999997,,,,,572,18,Woman,Right,
,,,,,,,,,,,,,,,,,572,18,Woman,Right,0,22,0.4,1,180,-,180,1.0592287999998007,['n'],5.151411599999847,1.822,468.1159413000005,,,,,572,18,Woman,Right,
,,,,,,,,,,,,,,,,,572,18,Woman,Right,0,43,0.4,2,180,0,0,0.38828059999923425,['y'],0.6401365000001533,1.722,472.01952280000023,,,,,572,18,Woman,Right,
,,,,,,,,,,,,,,,,,572,18,Woman,Right,0,29,0.4,2,0,180,180,0.4304769000000306,['y'],0.8241488000003301,1.784,475.8567178000003,,,,,572,18,Woman,Right,
,,,,,,,,,,,,,,,,,572,18,Woman,Right,0,38,0.4,1,180,-,0,1.3269164999992427,['y'],1.64071899999999,1.384,483.3474741,,,,,572,18,Woman,Right,
,,,,,,,,,,,,,,,,,572,18,Woman,Right,0,41,0.4,2,0,180,180,0.9073138000003382,['y'],0.849899999999252,1.708,488.1690404000001,,,,,572,18,Woman,Right,
,,,,,,,,,,,,,,,,,572,18,Woman,Right,0,27,0.4,2,180,0,0,0.983184099999562,['n'],0.594072299999425,1.904,493.6910966000005,,,,,572,18,Woman,Right,
,,,,,,,,,,,,,,,,,572,18,Woman,Right,0,12,0.4,1,0,-,180,1.5878741999995327,['y'],1.451301600000079,1.674,499.8639099000002,,,,,572,18,Woman,Right,
,,,,,,,,,,,,,,,,,572,18,Woman,Right,0,55,0.15,2,180,0,180,0.6005811000004542,['n'],1.0760479999999006,1.35,505.4695542999998,,,,,572,18,Woman,Right,
,,,,,,,,,,,,,,,,,572,18,Woman,Right,0,47,0.15,2,180,0,0,0.6592939000001934,['n'],0.6766354000001229,1.704,509.3400094999997,,,,,572,18,Woman,Right,
,,,,,,,,,,,,,,,,,572,18,Woman,Right,0,28,0.4,1,0,-,180,0.5966082000004462,['n'],0.8692524000007325,1.8439999999999999,513.8946089000001,,,,,572,18,Woman,Right,
,,,,,,,,,,,,,,,,,572,18,Woman,Right,0,20,0.4,1,0,-,0,0.7200425999999425,['n'],0.8862442999998166,1.756,518.2989761999997,,,,,572,18,Woman,Right,
,,,,,,,,,,,,,,,,,572,18,Woman,Right,0,3,1,2,180,0,0,0.828204999999798,['y'],0.9024632000000565,1.756,522.6700173999998,,,,,572,18,Woman,Right,
,,,,,,,,,,,,,,,,,572,18,Woman,Right,0,69,0.15,2,0,180,180,1.591120800000681,['n'],1.846810099999857,1.792,529.1264290999998,,,,,572,18,Woman,Right,
,,,,,,,,,,,,,,,,,572,18,Woman,Right,0,23,0.4,2,180,0,0,0.47172559999944497,['y'],0.7198267999992822,1.812,533.4807232000003,,,,,572,18,Woman,Right,
,,,,,,,,,,,,,,,,,572,18,Woman,Right,0,77,0.15,2,0,180,180,1.1056322000004002,['n'],1.2168664000000717,1.354,540.9715515999997,,,,,572,18,Woman,Right,
,,,,,,,,,,,,,,,,,572,18,Woman,Right,0,62,0.15,1,180,-,0,1.0091577000002872,['y'],2.369326299999557,1.54,550.2474410000004,,,,,572,18,Woman,Right,
,,,,,,,,,,,,,,,,,572,18,Woman,Right,0,71,0.15,2,180,0,0,0.8394889000001058,['n'],0.8264618000002883,1.6019999999999999,554.6358281000003,,,,,572,18,Woman,Right,
,,,,,,,,,,,,,,,,,572,18,Woman,Right,0,35,0.4,2,180,0,0,0.9815524000005098,['y'],0.859047300000384,1.734,559.5733857000005,,,,,572,18,Woman,Right,
,,,,,,,,,,,,,,,,,572,18,Woman,Right,0,33,0.4,2,0,180,180,0.5265929000006508,['y'],0.7000939999998081,1.832,563.9446939999998,,,,,572,18,Woman,Right,
,,,,,,,,,,,,,,,,,572,18,Woman,Right,0,26,0.4,1,180,-,0,0.7471613999996407,['n'],0.7962622999993982,1.82,568.5492635999999,,,,,572,18,Woman,Right,
,,,,,,,,,,,,,,,,,572,18,Woman,Right,0,17,0.4,2,0,180,180,0.7049862999992911,['y'],1.013131799999428,1.96,574.3381479999998,,,,,572,18,Woman,Right,
,,,,,,,,,,,,,,,,,572,18,Woman,Right,0,66,0.15,1,180,-,0,1.9451429999999164,['n'],1.0060420999998314,1.724,580.8279551000005,,,,,572,18,Woman,Right,
,,,,,,,,,,,,,,,,,572,18,Woman,Right,0,11,0.4,2,180,0,0,0.4402611999994406,['n'],0.7826538999997865,1.764,584.8485364999997,,,,,572,18,Woman,Right,
,,,,,,,,,,,,,,,,,572,18,Woman,Right,0,31,0.4,2,180,0,180,1.5996796999997969,['n'],1.6949291000000812,1.682,591.5218034,,,,,572,18,Woman,Right,
,,,,,,,,,,,,,,,,,572,18,Woman,Right,0,63,0.15,2,180,0,0,1.211643599999661,['n'],1.1199232999997548,1.73,596.6278272999998,,,,,572,18,Woman,Right,
,,,,,,,,,,,,,,,,,572,18,Woman,Right,0,59,0.15,2,180,0,180,1.9925784999995813,['y'],1.4084697999996934,1.6179999999999999,604.3190485000005,,,,,572,18,Woman,Right,
,,,,,,,,,,,,,,,,,572,18,Woman,Right,0,75,0.15,2,180,0,0,0.584012299999813,['n'],1.0085102000002735,1.576,609.1396734,,,,,572,18,Woman,Right,
,,,,,,,,,,,,,,,,,572,18,Woman,Right,0,10,0.4,1,180,-,180,0.5667934000002788,['y'],1.1069289000006393,1.654,614.0111710000001,,,,,572,18,Woman,Right,
,,,,,,,,,,,,,,,,,572,18,Woman,Right,0,24,0.4,1,0,-,180,1.3076863999995112,['n'],1.4351065000000744,1.362,620.9181532000002,,,,,572,18,Woman,Right,
,,,,,,,,,,,,,,,,,572,18,Woman,Right,0,65,0.15,2,0,180,0,0.22085169999991194,['n'],1.019550299999537,1.624,625.8394742999999,,,,,572,18,Woman,Right,
,,,,,,,,,,,,,,,,,572,18,Woman,Right,0,78,0.15,1,180,-,180,0.5266876999994565,['n'],1.5323871000000509,1.634,630.5274629000005,,,,,572,18,Woman,Right,
,,,,,,,,,,,,,,,,,572,18,Woman,Right,0,18,0.4,1,180,-,180,0.9282228000001851,['n'],0.7884880000001431,1.662,635.5991784999997,,,,,572,18,Woman,Right,
,,,,,,,,,,,,,,,,,572,18,Woman,Right,0,72,0.15,1,0,-,0,1.1758639999998195,['n'],0.6693285000001197,1.354,640.9212723999999,,,,,572,18,Woman,Right,
,,,,,,,,,,,,,,,,,572,18,Woman,Right,0,48,0.15,1,0,-,0,0.8920969000000696,['y'],1.222753900000498,1.68,647.3108506999997,,,,,572,18,Woman,Right,
,,,,,,,,,,,,,,,,,572,18,Woman,Right,0,64,0.15,1,0,-,0,0.7860600999993039,['n'],0.8153520000005301,1.704,652.2323714000004,,,,,572,18,Woman,Right,
,,,,,,,,,,,,,,,,,572,18,Woman,Right,0,74,0.15,1,180,-,180,0.9088212999995449,['n'],2.5601920999997674,1.704,658.4552149000001,,,,,572,18,Woman,Right,
,,,,,,,,,,,,,,,,,572,18,Woman,Right,0,9,0.4,2,0,180,0,0.5130629000004774,['n'],1.4891806999994515,1.276,664.0107645999997,,,,,572,18,Woman,Right,
,,,,,,,,,,,,,,,,,572,18,Woman,Right,0,13,0.4,2,0,180,0,0.5424055000003136,['y'],3.153761300000042,1.392,672.6693692999997,,,,,572,18,Woman,Right,
,,,,,,,,,,,,,,,,,572,18,Woman,Right,0,1,1,2,0,180,180,0.5680671000000075,['y'],0.8182398999997531,1.992,677.7744567999998,,,,,572,18,Woman,Right,
,,,,,,,,,,,,,,,,,572,18,Woman,Right,0,44,0.15,1,0,-,180,0.7229930000003151,['n'],0.6193739000000278,1.814,681.8953238000004,,,,,572,18,Woman,Right,
,,,,,,,,,,,,,,,,,572,18,Woman,Right,0,61,0.15,2,0,180,0,0.6357643999999709,['n'],1.2678886999992756,1.696,687.1839104000001,,,,,572,18,Woman,Right,
,,,,,,,,,,,,,,,,,572,18,Woman,Right,0,60,0.15,1,0,-,0,0.5746773000000758,['y'],0.9484662999993816,1.696,691.9219192999999,,,,,572,18,Woman,Right,
,,,,,,,,,,,,,,,,,572,18,Woman,Right,0,37,0.4,2,0,180,180,0.8260863000004974,['n'],0.9415976000000228,1.334,697.5610047,,,,,572,18,Woman,Right,
,,,,,,,,,,,,,,,,,572,18,Woman,Right,0,2,1,1,180,-,0,0.3977205999999569,['y'],0.7254518999998254,1.684,701.4980145999998,,,,,572,18,Woman,Right,
,,,,,,,,,,,,,,,,,572,18,Woman,Right,0,42,0.4,1,180,-,180,0.4817317999995794,['y'],0.8214458000002196,1.774,705.5187515999996,,,,,572,18,Woman,Right,
,,,,,,,,,,,,,,,,,572,18,Woman,Right,0,73,0.15,2,0,180,180,0.6073394000004555,['n'],1.1984726999999111,1.814,710.0732595,,,,,572,18,Woman,Right,
,,,,,,,,,,,,,,,,,572,18,Woman,Right,0,53,0.15,2,0,180,180,0.5392732000000251,['y'],0.7757419999998092,1.822,714.2450202999999,,,,,572,18,Woman,Right,
,,,,,,,,,,,,,,,,,572,18,Woman,Right,0,58,0.15,1,180,-,180,1.4427064999999857,['n'],0.647809199999756,1.802,718.9822616000001,,,,,572,18,Woman,Right,
,,,,,,,,,,,,,,,,,572,18,Woman,Right,0,19,0.4,2,180,0,0,0.5083628000002136,['y'],0.6804530999997951,1.3599999999999999,724.3877457999997,,,,,572,18,Woman,Right,
,,,,,,,,,,,,,,,,,572,18,Woman,Right,0,45,0.15,2,0,180,0,0.6851288999996541,['y'],0.7771118999999089,1.47,729.5092459999996,,,,,572,18,Woman,Right,
,,,,,,,,,,,,,,,,,572,18,Woman,Right,0,21,0.4,2,0,180,180,0.6092882000002646,['n'],0.8738492000002225,1.756,733.5800307,,,,,572,18,Woman,Right,
,,,,,,,,,,,,,,,,,572,18,Woman,Right,0,36,0.4,1,0,-,180,0.4870820000005551,['y'],0.6268472000001566,1.78,737.5175194000003,,,,,572,18,Woman,Right,
,,,,,,,,,,,,,,,,,572,18,Woman,Right,0,46,0.15,1,180,-,0,1.0988548000004812,['y'],0.7871947000003274,1.276,743.2230120000004,,,,,572,18,Woman,Right,
,,,,,,,,,,,,,,,,,572,18,Woman,Right,0,67,0.15,2,180,0,0,0.531862099999671,['y'],1.4516935999999987,1.674,748.2947891000003,,,,,572,18,Woman,Right,
,,,,,,,,,,,,,,,,,572,18,Woman,Right,0,32,0.4,1,0,-,0,1.7362081999999646,['y'],1.4443784000004598,1.286,755.4852084000004,,,,,572,18,Woman,Right,
,,,,,,,,,,,,,,,,,572,18,Woman,Right,0,76,0.15,1,0,-,180,0.8896041999996669,['n'],0.9893873999999414,1.75,760.1899731000003,,,,,572,18,Woman,Right,
,,,,,,,,,,,,,,,,,572,18,Woman,Right,0,39,0.4,2,180,0,180,0.5170466999998098,['n'],0.8543825999995533,1.732,765.4285307999999,,,,,572,18,Woman,Right,
,,,,,,,,,,,,,,,,,572,18,Woman,Right,0,56,0.15,1,0,-,0,0.5927733999997145,['n'],1.13459260000036,1.806,769.7661478,,,,,572,18,Woman,Right,
,,,,,,,,,,,,,,,,,572,18,Woman,Right,0,68,0.15,1,0,-,0,2.089359099999456,['n'],1.05505070000072,1.768,775.5218385999997,,,,,572,18,Woman,Right,
,,,,,,,,,,,,,,,,,572,18,Woman,Right,1,52,0.15,1,0,-,180,2.4128697999994984,['n'],1.4423579000003883,1.74,800.5634188000004,58.75,57.5,50.0,,572,18,Woman,Right,
,,,,,,,,,,,,,,,,,572,18,Woman,Right,1,24,0.4,1,0,-,0,0.3780713999994987,['n'],1.0749450999992405,1.83,804.7678341000001,,,,,572,18,Woman,Right,
,,,,,,,,,,,,,,,,,572,18,Woman,Right,1,49,0.15,2,0,180,180,0.39236819999950967,['n'],1.4602444000001924,1.796,809.4556338000002,,,,,572,18,Woman,Right,
,,,,,,,,,,,,,,,,,572,18,Woman,Right,1,5,1,2,0,180,180,0.6887853999996878,['y'],0.9560817999999927,1.862,813.7099530000005,,,,,572,18,Woman,Right,
,,,,,,,,,,,,,,,,,572,18,Woman,Right,1,29,0.4,2,0,180,180,0.9551917999997386,['y'],0.8444808999993256,1.822,818.1310314000002,,,,,572,18,Woman,Right,
,,,,,,,,,,,,,,,,,572,18,Woman,Right,1,61,0.15,2,0,180,0,0.4738882999999987,['y'],1.0775156999998217,1.81,822.6186643000001,,,,,572,18,Woman,Right,
,,,,,,,,,,,,,,,,,572,18,Woman,Right,1,2,1,1,180,-,0,0.9365320999995674,['y'],0.7101925999995728,1.808,827.0564618999997,,,,,572,18,Woman,Right,
,,,,,,,,,,,,,,,,,572,18,Woman,Right,1,76,0.15,1,0,-,180,0.5558800999997402,['n'],1.0386766000001444,1.828,831.5444948000004,,,,,572,18,Woman,Right,
,,,,,,,,,,,,,,,,,572,18,Woman,Right,1,38,0.4,1,180,-,0,1.2888073000003715,['n'],1.6231956999999966,1.728,837.8839694999997,,,,,572,18,Woman,Right,
,,,,,,,,,,,,,,,,,572,18,Woman,Right,1,40,0.4,1,0,-,0,0.5652990000007776,['y'],0.5519246000003477,1.85,842.7055851000005,,,,,572,18,Woman,Right,
,,,,,,,,,,,,,,,,,572,18,Woman,Right,1,31,0.4,2,180,0,180,0.7898533999996289,['n'],0.9766915999998673,1.558,847.4768384999998,,,,,572,18,Woman,Right,
,,,,,,,,,,,,,,,,,572,18,Woman,Right,1,65,0.15,2,0,180,180,0.6092509999998583,['y'],0.6890219999995679,1.7,852.0989227,,,,,572,18,Woman,Right,
,,,,,,,,,,,,,,,,,572,18,Woman,Right,1,4,1,1,0,-,180,0.45216830000026675,['y'],0.5854927000000316,1.742,855.6850102999997,,,,,572,18,Woman,Right,
,,,,,,,,,,,,,,,,,572,18,Woman,Right,1,43,0.4,2,180,0,0,0.657635599999594,['y'],0.7863507000001846,1.766,859.6893418999998,,,,,572,18,Woman,Right,
,,,,,,,,,,,,,,,,,572,18,Woman,Right,1,23,0.4,2,180,0,0,0.4546969999992143,['n'],0.7149030999999013,1.268,865.3114195999997,,,,,572,18,Woman,Right,
,,,,,,,,,,,,,,,,,572,18,Woman,Right,1,74,0.15,1,180,-,0,0.5385084999998071,['n'],0.7392994000001636,1.6400000000000001,869.4657049999996,,,,,572,18,Woman,Right,
,,,,,,,,,,,,,,,,,572,18,Woman,Right,1,47,0.15,2,180,0,0,0.5150567000000592,['y'],0.5874671999999919,1.662,873.2024554,,,,,572,18,Woman,Right,
,,,,,,,,,,,,,,,,,572,18,Woman,Right,1,19,0.4,2,180,0,0,0.475343499999326,['n'],0.7237667000008514,1.724,877.4733451000002,,,,,572,18,Woman,Right,
,,,,,,,,,,,,,,,,,572,18,Woman,Right,1,45,0.15,2,0,180,180,2.971731799999361,['y'],1.6459253000002718,1.706,886.0653105000001,,,,,572,18,Woman,Right,
,,,,,,,,,,,,,,,,,572,18,Woman,Right,1,39,0.4,2,180,0,0,0.46858939999947324,['y'],0.5820757000001322,1.732,890.0694922999992,,,,,572,18,Woman,Right,
,,,,,,,,,,,,,,,,,572,18,Woman,Right,1,79,0.15,2,180,0,0,0.5869115999994392,['n'],1.5582460000005085,1.736,895.2414124000006,,,,,572,18,Woman,Right,
,,,,,,,,,,,,,,,,,572,18,Woman,Right,1,71,0.15,2,180,0,0,0.8706884000002901,['n'],0.8150647000002209,1.706,899.6788501999999,,,,,572,18,Woman,Right,
,,,,,,,,,,,,,,,,,572,18,Woman,Right,1,62,0.15,1,180,-,180,0.5679240000008576,['y'],0.8313622000005125,1.768,903.6828151999998,,,,,572,18,Woman,Right,
,,,,,,,,,,,,,,,,,572,18,Woman,Right,1,53,0.15,2,0,180,0,1.0939852000010433,['n'],1.8408650999990641,1.28,910.1725224000002,,,,,572,18,Woman,Right,
,,,,,,,,,,,,,,,,,572,18,Woman,Right,1,25,0.4,2,0,180,180,0.4244401999985712,['y'],0.5689616999989084,1.8439999999999999,913.9930516000004,,,,,572,18,Woman,Right,
,,,,,,,,,,,,,,,,,572,18,Woman,Right,1,57,0.15,2,0,180,180,0.8615281999991566,['y'],2.27411100000063,1.834,919.7654401,,,,,572,18,Woman,Right,
,,,,,,,,,,,,,,,,,572,18,Woman,Right,1,69,0.15,2,0,180,180,0.7052110000004177,['n'],1.0586109999985638,1.804,924.1367534000001,,,,,572,18,Woman,Right,
,,,,,,,,,,,,,,,,,572,18,Woman,Right,1,44,0.15,1,0,-,0,0.911596500000087,['y'],1.0672486999992543,1.908,929.1250418,,,,,572,18,Woman,Right,
,,,,,,,,,,,,,,,,,572,18,Woman,Right,1,75,0.15,2,180,0,180,0.8431908000002295,['n'],0.9632373999993433,1.8719999999999999,933.6459763000003,,,,,572,18,Woman,Right,
,,,,,,,,,,,,,,,,,572,18,Woman,Right,1,42,0.4,1,180,-,180,2.418335100001059,['n'],1.8284810999994079,1.634,941.4703491,,,,,572,18,Woman,Right,
,,,,,,,,,,,,,,,,,572,18,Woman,Right,1,35,0.4,2,180,0,0,0.8985849000000599,['y'],1.1254139000011492,1.638,946.3753154000005,,,,,572,18,Woman,Right,
,,,,,,,,,,,,,,,,,572,18,Woman,Right,1,33,0.4,2,0,180,180,1.490968400001293,['n'],0.9341554000002361,1.624,952.5483703999998,,,,,572,18,Woman,Right,
,,,,,,,,,,,,,,,,,572,18,Woman,Right,1,78,0.15,1,180,-,180,2.089897400001064,['y'],1.9114411999998993,1.662,959.5219784000001,,,,,572,18,Woman,Right,
,,,,,,,,,,,,,,,,,572,18,Woman,Right,1,34,0.4,1,180,-,180,0.4113664999986213,['y'],1.0313220000007277,1.766,964.0096948999999,,,,,572,18,Woman,Right,
,,,,,,,,,,,,,,,,,572,18,Woman,Right,1,41,0.4,2,0,180,180,0.389931699999579,['y'],0.6321757000005164,1.83,967.7298993000004,,,,,572,18,Woman,Right,
,,,,,,,,,,,,,,,,,572,18,Woman,Right,1,0,1,1,0,-,180,0.6605658000007679,['y'],1.0965153999986796,1.6600000000000001,973.3357550000001,,,,,572,18,Woman,Right,
,,,,,,,,,,,,,,,,,572,18,Woman,Right,1,58,0.15,1,180,-,180,0.38665000000037253,['n'],1.0016444000011688,1.686,977.5897791999996,,,,,572,18,Woman,Right,
,,,,,,,,,,,,,,,,,572,18,Woman,Right,1,32,0.4,1,0,-,180,1.1928024999997433,['n'],1.7146652000010363,1.718,983.5959765999996,,,,,572,18,Woman,Right,
,,,,,,,,,,,,,,,,,572,18,Woman,Right,1,72,0.15,1,0,-,180,2.6423963000015647,['y'],1.195193699999436,1.71,991.3036403999995,,,,,572,18,Woman,Right,
,,,,,,,,,,,,,,,,,572,18,Woman,Right,1,60,0.15,1,0,-,0,0.5514027999997779,['n'],0.7077021999994031,1.546,995.4241636999996,,,,,572,18,Woman,Right,
,,,,,,,,,,,,,,,,,572,18,Woman,Right,1,50,0.15,1,180,-,180,0.5009133999992628,['y'],0.8287861999997403,1.566,1000.2796013000006,,,,,572,18,Woman,Right,
,,,,,,,,,,,,,,,,,572,18,Woman,Right,1,3,1,2,180,0,0,1.5411643999996159,['n'],0.9810632999997324,1.308,1006.3852523000005,,,,,572,18,Woman,Right,
,,,,,,,,,,,,,,,,,572,18,Woman,Right,1,17,0.4,2,0,180,180,0.31687979999878735,['y'],0.8217913000007684,1.748,1010.8228696999995,,,,,572,18,Woman,Right,
,,,,,,,,,,,,,,,,,572,18,Woman,Right,1,55,0.15,2,180,0,0,0.8906938000000082,['y'],1.0298482999987755,1.67,1015.8780864,,,,,572,18,Woman,Right,
,,,,,,,,,,,,,,,,,572,18,Woman,Right,1,9,0.4,2,0,180,180,0.45186110000031476,['y'],0.791227899999285,1.6280000000000001,1020.2489893000002,,,,,572,18,Woman,Right,
,,,,,,,,,,,,,,,,,572,18,Woman,Right,1,68,0.15,1,0,-,180,1.5685796000016126,['n'],1.655846699999529,1.692,1026.7053655,,,,,572,18,Woman,Right,
,,,,,,,,,,,,,,,,,572,18,Woman,Right,1,15,0.4,2,180,0,180,0.3966880999996647,['y'],1.2881809000009525,1.5899999999999999,1032.1106667999993,,,,,572,18,Woman,Right,
,,,,,,,,,,,,,,,,,572,18,Woman,Right,1,10,0.4,1,180,-,180,0.896882099999857,['n'],0.9532424999997602,1.576,1036.6486501,,,,,572,18,Woman,Right,
,,,,,,,,,,,,,,,,,572,18,Woman,Right,1,14,0.4,1,180,-,0,0.4222747999992862,['y'],2.010204199999862,1.5939999999999999,1041.7203585000007,,,,,572,18,Woman,Right,
,,,,,,,,,,,,,,,,,572,18,Woman,Right,1,28,0.4,1,0,-,180,1.3879291000012017,['n'],1.0586368999993283,1.5979999999999999,1047.0259853000007,,,,,572,18,Woman,Right,
,,,,,,,,,,,,,,,,,572,18,Woman,Right,1,36,0.4,1,0,-,180,0.502731100001256,['y'],1.339019200000621,1.828,1051.5634745999996,,,,,572,18,Woman,Right,
,,,,,,,,,,,,,,,,,572,18,Woman,Right,1,11,0.4,2,180,0,0,1.6039079000001948,['n'],1.0441022999984853,1.6560000000000001,1057.7028004999993,,,,,572,18,Woman,Right,
,,,,,,,,,,,,,,,,,572,18,Woman,Right,1,27,0.4,2,180,0,0,0.4202019000003929,['y'],0.6765918000000966,1.758,1061.2564815999995,,,,,572,18,Woman,Right,
,,,,,,,,,,,,,,,,,572,18,Woman,Right,1,26,0.4,1,180,-,0,3.147952199999054,['y'],1.493148999999903,1.604,1069.0975627000007,,,,,572,18,Woman,Right,
,,,,,,,,,,,,,,,,,572,18,Woman,Right,1,16,0.4,1,0,-,180,1.077869599999758,['n'],1.278160800000478,1.734,1074.3194638999994,,,,,572,18,Woman,Right,
,,,,,,,,,,,,,,,,,572,18,Woman,Right,1,1,1,2,0,180,180,0.9518353000003117,['y'],2.5114326999992045,1.688,1080.8926162000007,,,,,572,18,Woman,Right,
,,,,,,,,,,,,,,,,,572,18,Woman,Right,1,67,0.15,2,180,0,0,1.1346591999990778,['n'],0.8772103999999672,1.694,1085.3972897000003,,,,,572,18,Woman,Right,
,,,,,,,,,,,,,,,,,572,18,Woman,Right,1,21,0.4,2,0,180,180,0.9677188999994542,['n'],1.2800888000001578,1.6400000000000001,1090.3354039000005,,,,,572,18,Woman,Right,
,,,,,,,,,,,,,,,,,572,18,Woman,Right,1,77,0.15,2,0,180,180,0.5464876000005461,['n'],1.1444754999993165,1.662,1095.2402741000005,,,,,572,18,Woman,Right,
,,,,,,,,,,,,,,,,,572,18,Woman,Right,1,30,0.4,1,180,-,0,0.6409196000004158,['n'],1.1852724999989732,1.362,1099.9282619999994,,,,,572,18,Woman,Right,
,,,,,,,,,,,,,,,,,572,18,Woman,Right,1,63,0.15,2,180,0,0,0.7969683999999688,['y'],1.4423272000003635,1.186,1105.7340509000005,,,,,572,18,Woman,Right,
,,,,,,,,,,,,,,,,,572,18,Woman,Right,1,37,0.4,2,0,180,180,0.37012180000056105,['y'],2.7950423000002047,1.678,1111.7233646999994,,,,,572,18,Woman,Right,
,,,,,,,,,,,,,,,,,572,18,Woman,Right,1,20,0.4,1,0,-,0,0.6257557999997516,['n'],0.8193288000002212,1.62,1116.7452517000002,,,,,572,18,Woman,Right,
,,,,,,,,,,,,,,,,,572,18,Woman,Right,1,70,0.15,1,180,-,180,3.921924800000852,['y'],0.9486193000011554,1.702,1124.4193347,,,,,572,18,Woman,Right,
,,,,,,,,,,,,,,,,,572,18,Woman,Right,1,59,0.15,2,180,0,180,0.8529430999988108,['n'],0.8530731999999261,1.666,1128.7236298999997,,,,,572,18,Woman,Right,
,,,,,,,,,,,,,,,,,572,18,Woman,Right,1,8,0.4,1,0,-,180,0.7021426999999676,['n'],0.8614777000002505,1.826,1132.9445357999994,,,,,572,18,Woman,Right,
,,,,,,,,,,,,,,,,,572,18,Woman,Right,1,54,0.15,1,180,-,180,1.2647173999994266,['y'],0.7180563000001712,1.81,1137.6000014,,,,,572,18,Woman,Right,
,,,,,,,,,,,,,,,,,572,18,Woman,Right,1,22,0.4,1,180,-,180,0.8857710000011139,['n'],1.4629765999998199,1.796,1142.9055274999992,,,,,572,18,Woman,Right,
,,,,,,,,,,,,,,,,,572,18,Woman,Right,1,12,0.4,1,0,-,0,0.6581532999989577,['n'],0.8311460999993869,1.662,1147.5592517999994,,,,,572,18,Woman,Right,
,,,,,,,,,,,,,,,,,572,18,Woman,Right,1,64,0.15,1,0,-,180,0.4050568000002386,['n'],1.608463099999426,1.6640000000000001,1152.1138320999999,,,,,572,18,Woman,Right,
,,,,,,,,,,,,,,,,,572,18,Woman,Right,1,6,1,1,180,-,180,1.8371853000007832,['n'],1.6011020000005374,1.21,1159.5877333000008,,,,,572,18,Woman,Right,
,,,,,,,,,,,,,,,,,572,18,Woman,Right,1,13,0.4,2,0,180,180,1.0919441999994888,['y'],0.7218128000004072,1.706,1164.8762693000008,,,,,572,18,Woman,Right,
,,,,,,,,,,,,,,,,,572,18,Woman,Right,1,46,0.15,1,180,-,180,0.6696451999996498,['n'],1.154293300000063,1.708,1169.1471421999995,,,,,572,18,Woman,Right,
,,,,,,,,,,,,,,,,,572,18,Woman,Right,1,51,0.15,2,180,0,180,0.44996919999903184,['y'],1.1875655000003462,1.708,1174.4524820000006,,,,,572,18,Woman,Right,
,,,,,,,,,,,,,,,,,572,18,Woman,Right,1,18,0.4,1,180,-,0,0.8149322999997821,['y'],1.4042093999996723,1.708,1179.4409231999998,,,,,572,18,Woman,Right,
,,,,,,,,,,,,,,,,,572,18,Woman,Right,1,48,0.15,1,0,-,0,1.2487154999998893,['n'],4.116860300000553,1.766,1191.1190766,,,,,572,18,Woman,Right,
,,,,,,,,,,,,,,,,,572,18,Woman,Right,1,56,0.15,1,0,-,0,4.347799999999552,['n'],1.1266682999994373,1.748,1201.7129934999994,,,,,572,18,Woman,Right,
,,,,,,,,,,,,,,,,,572,18,Woman,Right,1,73,0.15,2,0,180,180,1.7184864000009838,['y'],0.727202699999907,1.626,1207.9694101000005,,,,,572,18,Woman,Right,
,,,,,,,,,,,,,,,,,572,18,Woman,Right,1,7,1,2,180,0,0,0.4171710000009625,['y'],0.6410851000000548,1.626,1211.5563789000007,,,,,572,18,Woman,Right,
,,,,,,,,,,,,,,,,,572,18,Woman,Right,1,66,0.15,1,180,-,180,1.757743099999061,['n'],2.2973674000004394,1.626,1218.8133197999996,,,,,572,18,Woman,Right,
,,,,,,,,,,,,,,,,,572,18,Woman,Right,2,61,0.15,2,0,180,180,0.4010330000000977,['y'],0.8996277999995073,1.708,1236.0140049000001,67.5,60.0,60.0,,572,18,Woman,Right,
,,,,,,,,,,,,,,,,,572,18,Woman,Right,2,67,0.15,2,180,0,0,0.4495375000005879,['y'],1.0032337000011466,1.806,1240.2179469999992,,,,,572,18,Woman,Right,
,,,,,,,,,,,,,,,,,572,18,Woman,Right,2,11,0.4,2,180,0,0,0.4080285999989428,['y'],0.46814069999891217,1.858,1244.0050565000001,,,,,572,18,Woman,Right,
,,,,,,,,,,,,,,,,,572,18,Woman,Right,2,22,0.4,1,180,-,0,0.3790006999988691,['n'],0.8207017999993695,1.8439999999999999,1247.6420694000008,,,,,572,18,Woman,Right,
,,,,,,,,,,,,,,,,,572,18,Woman,Right,2,8,0.4,1,0,-,0,0.9169430000001739,['n'],1.285319200000231,1.794,1252.3133947999995,,,,,572,18,Woman,Right,
,,,,,,,,,,,,,,,,,572,18,Woman,Right,2,56,0.15,1,0,-,0,0.33482769999864104,['n'],1.438117499999862,1.746,1256.7178356999993,,,,,572,18,Woman,Right,
,,,,,,,,,,,,,,,,,572,18,Woman,Right,2,1,1,2,0,180,180,0.41489960000035353,['y'],0.6064358999992692,1.746,1260.137823000001,,,,,572,18,Woman,Right,
,,,,,,,,,,,,,,,,,572,18,Woman,Right,2,13,0.4,2,0,180,180,0.6686411000009684,['y'],1.1033354999999574,1.82,1264.7924289999992,,,,,572,18,Woman,Right,
,,,,,,,,,,,,,,,,,572,18,Woman,Right,2,45,0.15,2,0,180,180,0.4714261000008264,['n'],1.2952815999997256,1.83,1271.9162006999995,,,,,572,18,Woman,Right,
,,,,,,,,,,,,,,,,,572,18,Woman,Right,2,52,0.15,1,0,-,180,0.3552935999996407,['y'],0.8649592999991,1.83,1275.7033315000008,,,,,572,18,Woman,Right,
,,,,,,,,,,,,,,,,,572,18,Woman,Right,2,58,0.15,1,180,-,0,0.5307393000002776,['n'],0.8969506000012188,1.83,1279.5573776,,,,,572,18,Woman,Right,
,,,,,,,,,,,,,,,,,572,18,Woman,Right,2,36,0.4,1,0,-,0,0.4296186999999918,['n'],0.7612791000010475,1.6440000000000001,1283.4777493000001,,,,,572,18,Woman,Right,
,,,,,,,,,,,,,,,,,572,18,Woman,Right,2,5,1,2,0,180,180,0.2832468999986304,['y'],0.6258319000007759,1.678,1287.6818352999999,,,,,572,18,Woman,Right,
,,,,,,,,,,,,,,,,,572,18,Woman,Right,2,15,0.4,2,180,0,0,0.439533400000073,['n'],0.8427496000003885,1.724,1291.2521765000001,,,,,572,18,Woman,Right,
,,,,,,,,,,,,,,,,,572,18,Woman,Right,2,26,0.4,1,180,-,0,0.619166899999982,['n'],0.7230740000013611,1.724,1295.2564867,,,,,572,18,Woman,Right,
,,,,,,,,,,,,,,,,,572,18,Woman,Right,2,59,0.15,2,180,0,0,0.5452511000003142,['n'],0.6757661000010557,1.87,1299.0766676999992,,,,,572,18,Woman,Right,
,,,,,,,,,,,,,,,,,572,18,Woman,Right,2,47,0.15,2,180,0,180,0.4340109000004304,['y'],1.2921749999986787,1.082,1305.2327578999993,,,,,572,18,Woman,Right,
,,,,,,,,,,,,,,,,,572,18,Woman,Right,2,2,1,1,180,-,0,0.43538230000012845,['y'],0.4451528000008693,1.816,1309.4703628000007,,,,,572,18,Woman,Right,
,,,,,,,,,,,,,,,,,572,18,Woman,Right,2,4,1,1,0,-,180,2.4585103999997955,['y'],3.422404599999936,1.794,1317.6953052000008,,,,,572,18,Woman,Right,
,,,,,,,,,,,,,,,,,572,18,Woman,Right,2,78,0.15,1,180,-,0,0.42223350000131177,['n'],0.806392100001176,1.794,1321.3988773,,,,,572,18,Woman,Right,
,,,,,,,,,,,,,,,,,572,18,Woman,Right,2,77,0.15,2,0,180,0,0.3836558999992121,['n'],1.086457600000358,1.8,1325.6368573,,,,,572,18,Woman,Right,
,,,,,,,,,,,,,,,,,572,18,Woman,Right,2,16,0.4,1,0,-,180,0.34874329999911424,['y'],0.8791963000003307,1.84,1330.5246446,,,,,572,18,Woman,Right,
,,,,,,,,,,,,,,,,,572,18,Woman,Right,2,65,0.15,2,0,180,0,0.4752370999995037,['n'],0.8639664000002085,1.828,1335.6129395999997,,,,,572,18,Woman,Right,
,,,,,,,,,,,,,,,,,572,18,Woman,Right,2,43,0.4,2,180,0,0,0.5558856999996351,['n'],0.7286180999999488,2.0,1339.6336277999999,,,,,572,18,Woman,Right,
,,,,,,,,,,,,,,,,,572,18,Woman,Right,2,10,0.4,1,180,-,0,0.7115545000015118,['y'],0.7452668999994785,1.8780000000000001,1344.1216729000007,,,,,572,18,Woman,Right,
,,,,,,,,,,,,,,,,,572,18,Woman,Right,2,29,0.4,2,0,180,180,0.5352386000013212,['n'],0.7942075999999361,1.812,1348.0753270999994,,,,,572,18,Woman,Right,
,,,,,,,,,,,,,,,,,572,18,Woman,Right,2,75,0.15,2,180,0,180,0.9567164000000048,['n'],1.5308516000004602,1.71,1353.2640628000008,,,,,572,18,Woman,Right,
,,,,,,,,,,,,,,,,,572,18,Woman,Right,2,49,0.15,2,0,180,0,0.5623715000001539,['n'],1.9790976000003866,1.3399999999999999,1359.8206664999998,,,,,572,18,Woman,Right,
,,,,,,,,,,,,,,,,,572,18,Woman,Right,2,73,0.15,2,0,180,0,0.7583084999987477,['n'],1.4842002999994293,1.786,1364.8256557999994,,,,,572,18,Woman,Right,
,,,,,,,,,,,,,,,,,572,18,Woman,Right,2,19,0.4,2,180,0,180,0.46960629999921366,['y'],1.0765965999999025,1.758,1369.8137475000003,,,,,572,18,Woman,Right,
,,,,,,,,,,,,,,,,,572,18,Woman,Right,2,54,0.15,1,180,-,0,0.5636890999994648,['n'],0.6366245999997773,1.822,1373.4507355000005,,,,,572,18,Woman,Right,
,,,,,,,,,,,,,,,,,572,18,Woman,Right,2,35,0.4,2,180,0,0,0.5313265999993746,['y'],0.6380993000002491,1.822,1377.1709609999998,,,,,572,18,Woman,Right,
,,,,,,,,,,,,,,,,,572,18,Woman,Right,2,64,0.15,1,0,-,180,0.6671323999999004,['n'],0.557884699999704,1.928,1380.8415924,,,,,572,18,Woman,Right,
,,,,,,,,,,,,,,,,,572,18,Woman,Right,2,40,0.4,1,0,-,0,0.5510080000003654,['n'],0.5230769999998302,1.88,1384.5952560000005,,,,,572,18,Woman,Right,
,,,,,,,,,,,,,,,,,572,18,Woman,Right,2,21,0.4,2,0,180,0,0.4995661000011751,['y'],0.5188909000007698,1.666,1388.3489456999996,,,,,572,18,Woman,Right,
,,,,,,,,,,,,,,,,,572,18,Woman,Right,2,74,0.15,1,180,-,180,0.3674804000002041,['n'],1.8013544000004913,1.776,1393.3038622999993,,,,,572,18,Woman,Right,
,,,,,,,,,,,,,,,,,572,18,Woman,Right,2,60,0.15,1,0,-,0,0.9226957999999286,['n'],0.6240078999999241,1.74,1397.2242852,,,,,572,18,Woman,Right,
,,,,,,,,,,,,,,,,,572,18,Woman,Right,2,76,0.15,1,0,-,0,0.700311700000384,['y'],0.4569062999999005,1.706,1401.1783139,,,,,572,18,Woman,Right,
,,,,,,,,,,,,,,,,,572,18,Woman,Right,2,44,0.15,1,0,-,0,0.4212208000008104,['n'],0.9691935000009835,1.706,1405.7995835000002,,,,,572,18,Woman,Right,
,,,,,,,,,,,,,,,,,572,18,Woman,Right,2,6,1,1,180,-,0,0.3941536000002088,['y'],0.9620524000001751,1.706,1409.9206414,,,,,572,18,Woman,Right,
,,,,,,,,,,,,,,,,,572,18,Woman,Right,2,68,0.15,1,0,-,0,0.5511908000007679,['n'],0.4983080999991216,1.8820000000000001,1413.8916403999992,,,,,572,18,Woman,Right,
,,,,,,,,,,,,,,,,,572,18,Woman,Right,2,30,0.4,1,180,-,0,0.5172394000001077,['y'],0.9149226999998064,1.78,1417.7116262,,,,,572,18,Woman,Right,
,,,,,,,,,,,,,,,,,572,18,Woman,Right,2,0,1,1,0,-,180,1.2002862000008463,['y'],0.5473016999985703,1.756,1421.9990844000004,,,,,572,18,Woman,Right,
,,,,,,,,,,,,,,,,,572,18,Woman,Right,2,27,0.4,2,180,0,0,0.8847036999995908,['y'],1.388022400000409,1.3479999999999999,1427.6547023000003,,,,,572,18,Woman,Right,
,,,,,,,,,,,,,,,,,572,18,Woman,Right,2,31,0.4,2,180,0,0,0.4825232999992295,['n'],3.7969085999993695,1.696,1434.9286128000003,,,,,572,18,Woman,Right,
,,,,,,,,,,,,,,,,,572,18,Woman,Right,2,28,0.4,1,0,-,0,0.4018792000006215,['n'],1.109320999999909,1.72,1439.1497352999995,,,,,572,18,Woman,Right,
,,,,,,,,,,,,,,,,,572,18,Woman,Right,2,51,0.15,2,180,0,0,0.20201069999893662,['y'],0.5821245000006456,1.716,1442.6195767000008,,,,,572,18,Woman,Right,
,,,,,,,,,,,,,,,,,572,18,Woman,Right,2,25,0.4,2,0,180,180,0.26348219999999856,['y'],0.5264504999995552,1.75,1445.7727020999992,,,,,572,18,Woman,Right,
,,,,,,,,,,,,,,,,,572,18,Woman,Right,2,71,0.15,2,180,0,0,0.6028328000011243,['n'],0.7675699999999779,1.866,1449.9767766999994,,,,,572,18,Woman,Right,
,,,,,,,,,,,,,,,,,572,18,Woman,Right,2,33,0.4,2,0,180,180,0.6072180000010121,['y'],0.9117093000004388,1.784,1453.8977508000007,,,,,572,18,Woman,Right,
,,,,,,,,,,,,,,,,,572,18,Woman,Right,2,7,1,2,180,0,0,1.314259700000548,['y'],0.5039670999994996,1.778,1458.6190526999999,,,,,572,18,Woman,Right,
,,,,,,,,,,,,,,,,,572,18,Woman,Right,2,32,0.4,1,0,-,180,0.7051123000001098,['y'],1.2648984000006749,1.814,1463.1733605000009,,,,,572,18,Woman,Right,
,,,,,,,,,,,,,,,,,572,18,Woman,Right,2,41,0.4,2,0,180,0,0.5034250999997312,['n'],0.8090855000009469,1.792,1466.8603738000002,,,,,572,18,Woman,Right,
,,,,,,,,,,,,,,,,,572,18,Woman,Right,2,42,0.4,1,180,-,0,0.855759100000796,['y'],0.7540094000014506,1.834,1471.3314640000008,,,,,572,18,Woman,Right,
,,,,,,,,,,,,,,,,,572,18,Woman,Right,2,18,0.4,1,180,-,0,0.7321353000006638,['n'],0.7783763999996154,1.688,1477.4209155000008,,,,,572,18,Woman,Right,
,,,,,,,,,,,,,,,,,572,18,Woman,Right,2,24,0.4,1,0,-,180,0.3310714999988704,['y'],0.9868318999997427,1.6520000000000001,1481.2415177999992,,,,,572,18,Woman,Right,
,,,,,,,,,,,,,,,,,572,18,Woman,Right,2,79,0.15,2,180,0,0,0.697306000000026,['n'],0.6520407999996678,1.6680000000000001,1485.2453157,,,,,572,18,Woman,Right,
,,,,,,,,,,,,,,,,,572,18,Woman,Right,2,14,0.4,1,180,-,0,0.4005659000013111,['y'],1.100114400000166,1.82,1489.3161466000001,,,,,572,18,Woman,Right,
,,,,,,,,,,,,,,,,,572,18,Woman,Right,2,66,0.15,1,180,-,0,0.6985132999998314,['n'],0.7167532999992545,1.8679999999999999,1493.2540496000001,,,,,572,18,Woman,Right,
,,,,,,,,,,,,,,,,,572,18,Woman,Right,2,53,0.15,2,0,180,180,0.44226159999925585,['y'],1.2059707999997045,1.742,1498.4754868,,,,,572,18,Woman,Right,
,,,,,,,,,,,,,,,,,572,18,Woman,Right,2,39,0.4,2,180,0,0,0.3055825999999797,['y'],0.5259986000000936,1.772,1503.3809755999991,,,,,572,18,Woman,Right,
,,,,,,,,,,,,,,,,,572,18,Woman,Right,2,9,0.4,2,0,180,180,0.4704292999995232,['y'],1.4782484999996086,1.918,1507.852124000001,,,,,572,18,Woman,Right,
,,,,,,,,,,,,,,,,,572,18,Woman,Right,2,46,0.15,1,180,-,0,0.350607399999717,['n'],1.3743395000001328,1.808,1512.9396151,,,,,572,18,Woman,Right,
,,,,,,,,,,,,,,,,,572,18,Woman,Right,2,63,0.15,2,180,0,0,0.5019613999993453,['y'],0.7918417000000773,1.808,1516.8100508000007,,,,,572,18,Woman,Right,
,,,,,,,,,,,,,,,,,572,18,Woman,Right,2,62,0.15,1,180,-,0,0.37284120000003895,['n'],1.048274600001605,1.712,1521.2145889000003,,,,,572,18,Woman,Right,
,,,,,,,,,,,,,,,,,572,18,Woman,Right,2,23,0.4,2,180,0,0,0.5224378000002616,['y'],0.4408936999989237,1.748,1526.2202240000006,,,,,572,18,Woman,Right,
,,,,,,,,,,,,,,,,,572,18,Woman,Right,2,48,0.15,1,0,-,180,0.5437825000008161,['y'],1.4744941999997536,1.862,1531.8758945999998,,,,,572,18,Woman,Right,
,,,,,,,,,,,,,,,,,572,18,Woman,Right,2,50,0.15,1,180,-,180,2.255223500000284,['y'],0.8743193999998766,1.736,1538.3982703000001,,,,,572,18,Woman,Right,
,,,,,,,,,,,,,,,,,572,18,Woman,Right,2,72,0.15,1,0,-,180,0.5299501999998029,['y'],0.4114479999989271,1.79,1541.8182441000008,,,,,572,18,Woman,Right,
,,,,,,,,,,,,,,,,,572,18,Woman,Right,2,38,0.4,1,180,-,180,0.6928116999988561,['y'],0.539290799999435,1.876,1545.9900500999993,,,,,572,18,Woman,Right,
,,,,,,,,,,,,,,,,,572,18,Woman,Right,2,34,0.4,1,180,-,0,0.3170410999991873,['y'],0.6034651999998459,1.6600000000000001,1549.8096210999993,,,,,572,18,Woman,Right,
,,,,,,,,,,,,,,,,,572,18,Woman,Right,2,70,0.15,1,180,-,0,1.2154254000015499,['n'],1.6605748000001768,1.276,1555.4152952999993,,,,,572,18,Woman,Right,
,,,,,,,,,,,,,,,,,572,18,Woman,Right,2,20,0.4,1,0,-,0,1.097100800001499,['n'],1.3332539000002726,1.298,1560.9541676000008,,,,,572,18,Woman,Right,
,,,,,,,,,,,,,,,,,572,18,Woman,Right,2,37,0.4,2,0,180,180,0.43445880000035686,['y'],0.5948435999998765,1.766,1564.6746442000003,,,,,572,18,Woman,Right,
,,,,,,,,,,,,,,,,,572,18,Woman,Right,2,55,0.15,2,180,0,180,0.671193600001061,['y'],0.9746622999991814,1.744,1568.7618622999998,,,,,572,18,Woman,Right,
,,,,,,,,,,,,,,,,,572,18,Woman,Right,2,69,0.15,2,0,180,180,0.7501150999996753,['y'],0.5987397999997484,1.892,1573.3005470000007,,,,,572,18,Woman,Right,
,,,,,,,,,,,,,,,,,572,18,Woman,Right,2,57,0.15,2,0,180,180,0.4221065000001545,['y'],1.6955619000000297,1.854,1578.1045259999992,,,,,572,18,Woman,Right,
,,,,,,,,,,,,,,,,,572,18,Woman,Right,2,12,0.4,1,0,-,180,0.9457235999998375,['n'],1.984731799999281,1.718,1583.743641000001,,,,,572,18,Woman,Right,
,,,,,,,,,,,,,,,,,572,18,Woman,Right,2,17,0.4,2,0,180,180,0.5279310999994777,['y'],1.0492094999990513,1.826,1587.8310837000008,,,,,572,18,Woman,Right,
,,,,,,,,,,,,,,,,,572,18,Woman,Right,2,3,1,2,180,0,0,0.5644700000011653,['y'],0.6975571000002674,1.758,1591.9350854000004,,,,,572,18,Woman,Right,
,,,,,,,,,,,,,,,,,572,18,Woman,Right,3,25,0.4,2,0,180,180,0.6773924999997689,['y'],0.5795526000001701,1.778,1607.3169877,53.75,55.0,65.0,,572,18,Woman,Right,
,,,,,,,,,,,,,,,,,572,18,Woman,Right,3,70,0.15,1,180,-,0,0.5462074999995821,['y'],0.684409700001197,1.87,1611.2720769000007,,,,,572,18,Woman,Right,
,,,,,,,,,,,,,,,,,572,18,Woman,Right,3,78,0.15,1,180,-,180,0.8089288000010129,['n'],0.7563477000003331,1.672,1615.6262951000008,,,,,572,18,Woman,Right,
,,,,,,,,,,,,,,,,,572,18,Woman,Right,3,4,1,1,0,-,180,0.4363833999996132,['y'],0.6619684000015695,1.672,1619.3131988999994,,,,,572,18,Woman,Right,
,,,,,,,,,,,,,,,,,572,18,Woman,Right,3,75,0.15,2,180,0,180,0.5047993999996834,['y'],1.117541399999027,1.854,1623.4499689000004,,,,,572,18,Woman,Right,
,,,,,,,,,,,,,,,,,572,18,Woman,Right,3,1,1,2,0,180,180,0.23684479999974428,['y'],0.5181639000002178,1.77,1626.7866047000007,,,,,572,18,Woman,Right,
,,,,,,,,,,,,,,,,,572,18,Woman,Right,3,54,0.15,1,180,-,180,0.3266901000006328,['y'],0.5586714000000939,1.82,1630.0397943999997,,,,,572,18,Woman,Right,
,,,,,,,,,,,,,,,,,572,18,Woman,Right,3,48,0.15,1,0,-,0,0.401473600000827,['y'],0.5583449999994627,1.862,1633.3929714999995,,,,,572,18,Woman,Right,
,,,,,,,,,,,,,,,,,572,18,Woman,Right,3,35,0.4,2,180,0,180,0.5829018999993423,['n'],0.8473169000008056,1.808,1637.6974133000003,,,,,572,18,Woman,Right,
,,,,,,,,,,,,,,,,,572,18,Woman,Right,3,0,1,1,0,-,0,0.9183181000007608,['n'],0.5923743999992439,1.796,1642.2518576000002,,,,,572,18,Woman,Right,
,,,,,,,,,,,,,,,,,572,18,Woman,Right,3,9,0.4,2,0,180,180,0.20511470000019472,['y'],1.3607485000011366,1.796,1646.3900537000009,,,,,572,18,Woman,Right,
,,,,,,,,,,,,,,,,,572,18,Woman,Right,3,41,0.4,2,0,180,180,0.6068863999989844,['y'],1.2012584000003699,1.796,1650.7770486999998,,,,,572,18,Woman,Right,
,,,,,,,,,,,,,,,,,572,18,Woman,Right,3,10,0.4,1,180,-,0,0.36139970000112953,['n'],1.5051829000003636,1.77,1655.5148374,,,,,572,18,Woman,Right,
,,,,,,,,,,,,,,,,,572,18,Woman,Right,3,18,0.4,1,180,-,0,0.3834953999994468,['y'],0.5944127000002482,1.8940000000000001,1659.6526544999997,,,,,572,18,Woman,Right,
,,,,,,,,,,,,,,,,,572,18,Woman,Right,3,21,0.4,2,0,180,180,0.7259482999997999,['n'],0.9071294000004855,1.726,1664.5906383000001,,,,,572,18,Woman,Right,
,,,,,,,,,,,,,,,,,572,18,Woman,Right,3,42,0.4,1,180,-,0,0.9213221999998495,['y'],0.8917507999994996,1.642,1670.3296972999997,,,,,572,18,Woman,Right,
,,,,,,,,,,,,,,,,,572,18,Woman,Right,3,34,0.4,1,180,-,180,0.7340194999997038,['n'],0.8687465999992128,1.802,1674.483797500001,,,,,572,18,Woman,Right,
,,,,,,,,,,,,,,,,,572,18,Woman,Right,3,60,0.15,1,0,-,180,0.40084919999935664,['n'],1.116733100001511,1.678,1679.188691200001,,,,,572,18,Woman,Right,
,,,,,,,,,,,,,,,,,572,18,Woman,Right,3,5,1,2,0,180,180,0.20243440000012924,['y'],1.9097445999996125,1.684,1683.7764898999994,,,,,572,18,Woman,Right,
,,,,,,,,,,,,,,,,,572,18,Woman,Right,3,50,0.15,1,180,-,0,1.120976600001086,['n'],0.5340378000000783,1.736,1688.2307748000003,,,,,572,18,Woman,Right,
,,,,,,,,,,,,,,,,,572,18,Woman,Right,3,43,0.4,2,180,0,0,0.550521099999969,['y'],0.9622369000007893,1.736,1692.1347862999992,,,,,572,18,Woman,Right,
,,,,,,,,,,,,,,,,,572,18,Woman,Right,3,64,0.15,1,0,-,180,0.4453324000005523,['y'],1.1192886999997427,1.736,1696.1220350000003,,,,,572,18,Woman,Right,
,,,,,,,,,,,,,,,,,572,18,Woman,Right,3,8,0.4,1,0,-,0,0.5778576999982761,['n'],0.7911469999999099,1.8820000000000001,1700.0094955999994,,,,,572,18,Woman,Right,
,,,,,,,,,,,,,,,,,572,18,Woman,Right,3,72,0.15,1,0,-,180,1.3165110999998433,['y'],0.7201444000002084,1.738,1705.0309006999996,,,,,572,18,Woman,Right,
,,,,,,,,,,,,,,,,,572,18,Woman,Right,3,15,0.4,2,180,0,180,0.2880356000005122,['y'],0.5446274999994785,1.8479999999999999,1708.3846902000005,,,,,572,18,Woman,Right,
,,,,,,,,,,,,,,,,,572,18,Woman,Right,3,14,0.4,1,180,-,0,0.6334841000007145,['y'],0.9050662999998167,1.808,1712.3215240000009,,,,,572,18,Woman,Right,
,,,,,,,,,,,,,,,,,572,18,Woman,Right,3,12,0.4,1,0,-,180,0.44069390000004205,['y'],1.217840299999807,1.808,1716.2590426999996,,,,,572,18,Woman,Right,
,,,,,,,,,,,,,,,,,572,18,Woman,Right,3,17,0.4,2,0,180,180,0.9642949999997654,['n'],1.1378461999993306,1.786,1721.1136711,,,,,572,18,Woman,Right,
,,,,,,,,,,,,,,,,,572,18,Woman,Right,3,40,0.4,1,0,-,0,1.1357495000011113,['y'],0.9391623000010441,1.778,1725.8015627000004,,,,,572,18,Woman,Right,
,,,,,,,,,,,,,,,,,572,18,Woman,Right,3,63,0.15,2,180,0,180,1.3159170999988419,['n'],0.8597850000005565,1.778,1730.3728468999998,,,,,572,18,Woman,Right,
,,,,,,,,,,,,,,,,,572,18,Woman,Right,3,37,0.4,2,0,180,0,1.1282093999998324,['y'],0.9003781999999774,1.826,1735.3944764999997,,,,,572,18,Woman,Right,
,,,,,,,,,,,,,,,,,572,18,Woman,Right,3,66,0.15,1,180,-,0,0.5783308000009129,['y'],0.6047478999989835,1.928,1739.7988478999996,,,,,572,18,Woman,Right,
,,,,,,,,,,,,,,,,,572,18,Woman,Right,3,59,0.15,2,180,0,0,0.7509693000010884,['n'],0.3617378999988432,1.8479999999999999,1743.2362928000002,,,,,572,18,Woman,Right,
,,,,,,,,,,,,,,,,,572,18,Woman,Right,3,30,0.4,1,180,-,0,1.2199225000003935,['y'],4.430341299999782,1.8479999999999999,1743.2362928000002,,,,,572,18,Woman,Right,
,,,,,,,,,,,,,,,,,572,18,Woman,Right,3,23,0.4,2,180,0,0,0.4510176000003412,['y'],1.9991375999998127,1.84,1756.3987538000001,,,,,572,18,Woman,Right,
,,,,,,,,,,,,,,,,,572,18,Woman,Right,3,3,1,2,180,0,0,0.4059495000001334,['y'],0.5037442000011652,1.84,1759.7022558000008,,,,,572,18,Woman,Right,
,,,,,,,,,,,,,,,,,572,18,Woman,Right,3,49,0.15,2,0,180,0,0.7100112999996782,['n'],0.6954961999999796,1.8679999999999999,1763.6895519999998,,,,,572,18,Woman,Right,
,,,,,,,,,,,,,,,,,572,18,Woman,Right,3,22,0.4,1,180,-,0,0.715941099999327,['y'],1.4886483999998745,1.8679999999999999,1768.5444829000007,,,,,572,18,Woman,Right,
,,,,,,,,,,,,,,,,,572,18,Woman,Right,3,62,0.15,1,180,-,0,0.3660513000013452,['n'],1.4972979000012856,1.8679999999999999,1773.3323187999995,,,,,572,18,Woman,Right,
,,,,,,,,,,,,,,,,,572,18,Woman,Right,3,39,0.4,2,180,0,0,0.47320639999998093,['n'],0.5297417999991012,1.698,1776.7857146000006,,,,,572,18,Woman,Right,
,,,,,,,,,,,,,,,,,572,18,Woman,Right,3,53,0.15,2,0,180,180,0.3607694000002084,['n'],0.9216968000000634,1.672,1780.5394247000004,,,,,572,18,Woman,Right,
,,,,,,,,,,,,,,,,,572,18,Woman,Right,3,31,0.4,2,180,0,0,0.4605341000005865,['n'],0.5388824999990902,1.24,1785.0608641,,,,,572,18,Woman,Right,
,,,,,,,,,,,,,,,,,572,18,Woman,Right,3,20,0.4,1,0,-,180,0.38160360000074434,['y'],0.4993332999983977,1.8,1788.3137951000008,,,,,572,18,Woman,Right,
,,,,,,,,,,,,,,,,,572,18,Woman,Right,3,52,0.15,1,0,-,180,1.0869937999996182,['y'],0.3870779999997467,1.232,1793.3856176000008,,,,,572,18,Woman,Right,
,,,,,,,,,,,,,,,,,572,18,Woman,Right,3,38,0.4,1,180,-,0,0.4539422000016202,['y'],0.8843702000012854,1.5979999999999999,1797.373114600001,,,,,572,18,Woman,Right,
,,,,,,,,,,,,,,,,,572,18,Woman,Right,3,24,0.4,1,0,-,180,0.3806622000010975,['y'],0.948880800000552,1.708,1801.2267069000009,,,,,572,18,Woman,Right,
,,,,,,,,,,,,,,,,,572,18,Woman,Right,3,55,0.15,2,180,0,0,0.9339777999994112,['n'],1.1895698000007542,1.6600000000000001,1806.1983901999993,,,,,572,18,Woman,Right,
,,,,,,,,,,,,,,,,,572,18,Woman,Right,3,56,0.15,1,0,-,0,0.8912591999996948,['n'],0.89427440000145,1.314,1812.1208841999996,,,,,572,18,Woman,Right,
,,,,,,,,,,,,,,,,,572,18,Woman,Right,3,27,0.4,2,180,0,0,0.4953700999994908,['y'],0.6865044999995007,1.634,1816.0748392999994,,,,,572,18,Woman,Right,
,,,,,,,,,,,,,,,,,572,18,Woman,Right,3,51,0.15,2,180,0,180,0.6193137999998726,['n'],0.5354674999998679,1.742,1819.8118544000008,,,,,572,18,Woman,Right,
,,,,,,,,,,,,,,,,,572,18,Woman,Right,3,26,0.4,1,180,-,0,0.3115598000003956,['y'],0.6554441999996925,1.736,1823.5157724,,,,,572,18,Woman,Right,
,,,,,,,,,,,,,,,,,572,18,Woman,Right,3,77,0.15,2,0,180,180,1.8546923000012612,['y'],1.2162975999999617,1.744,1830.0554396999996,,,,,572,18,Woman,Right,
,,,,,,,,,,,,,,,,,572,18,Woman,Right,3,11,0.4,2,180,0,0,0.6660236000006989,['y'],1.2894145000009303,1.8519999999999999,1835.4776158000004,,,,,572,18,Woman,Right,
,,,,,,,,,,,,,,,,,572,18,Woman,Right,3,13,0.4,2,0,180,180,0.8876460999999836,['y'],0.8097151000001759,1.802,1839.5317649000008,,,,,572,18,Woman,Right,
,,,,,,,,,,,,,,,,,572,18,Woman,Right,3,2,1,1,180,-,180,1.4848586000007344,['y'],0.68856439999945,1.714,1845.0537009,,,,,572,18,Woman,Right,
,,,,,,,,,,,,,,,,,572,18,Woman,Right,3,32,0.4,1,0,-,180,0.5597347000002628,['y'],0.8348313000005874,1.77,1849.3582189999997,,,,,572,18,Woman,Right,
,,,,,,,,,,,,,,,,,572,18,Woman,Right,3,6,1,1,180,-,180,0.5775639000003139,['n'],2.2518507999993744,1.8439999999999999,1854.6302601999996,,,,,572,18,Woman,Right,
,,,,,,,,,,,,,,,,,572,18,Woman,Right,3,47,0.15,2,180,0,180,0.627218499999799,['y'],0.6764566999991075,1.646,1859.3847311000009,,,,,572,18,Woman,Right,
,,,,,,,,,,,,,,,,,572,18,Woman,Right,3,61,0.15,2,0,180,180,0.9084653999998409,['n'],0.7642271000004257,1.63,1863.3719812,,,,,572,18,Woman,Right,
,,,,,,,,,,,,,,,,,572,18,Woman,Right,3,45,0.15,2,0,180,180,0.7563464000013482,['y'],0.8133003000002645,1.746,1867.7933917999999,,,,,572,18,Woman,Right,
,,,,,,,,,,,,,,,,,572,18,Woman,Right,3,7,1,2,180,0,180,1.5360498999998526,['y'],3.1586317000001145,1.746,1875.0334867000001,,,,,572,18,Woman,Right,
,,,,,,,,,,,,,,,,,572,18,Woman,Right,3,19,0.4,2,180,0,0,0.457775999999285,['y'],0.8232318999998824,1.746,1880.2055863000005,,,,,572,18,Woman,Right,
,,,,,,,,,,,,,,,,,572,18,Woman,Right,3,76,0.15,1,0,-,180,0.3133808999991743,['n'],0.6796813000000839,1.746,1883.7589038999995,,,,,572,18,Woman,Right,
,,,,,,,,,,,,,,,,,572,18,Woman,Right,3,69,0.15,2,0,180,0,0.5118294999992941,['y'],0.8805622999989282,1.634,1887.4461763,,,,,572,18,Woman,Right,
,,,,,,,,,,,,,,,,,572,18,Woman,Right,3,44,0.15,1,0,-,180,0.5734291000007943,['y'],0.5441835999990872,1.612,1891.1329005999996,,,,,572,18,Woman,Right,
,,,,,,,,,,,,,,,,,572,18,Woman,Right,3,28,0.4,1,0,-,180,0.434685599999284,['n'],0.6650297000014689,1.612,1894.5364236999994,,,,,572,18,Woman,Right,
,,,,,,,,,,,,,,,,,572,18,Woman,Right,3,74,0.15,1,180,-,180,0.7253126999985398,['y'],1.2734036000001652,1.866,1899.6746817000003,,,,,572,18,Woman,Right,
,,,,,,,,,,,,,,,,,572,18,Woman,Right,3,68,0.15,1,0,-,180,0.3507302999987587,['n'],0.842321100000845,1.866,1903.3453334000005,,,,,572,18,Woman,Right,
,,,,,,,,,,,,,,,,,572,18,Woman,Right,3,67,0.15,2,180,0,0,0.4371126000005461,['y'],1.146824999999808,1.8679999999999999,1907.2490975,,,,,572,18,Woman,Right,
,,,,,,,,,,,,,,,,,572,18,Woman,Right,3,57,0.15,2,0,180,0,0.6849263000003702,['n'],0.9392253000005439,1.688,1911.2196932999996,,,,,572,18,Woman,Right,
,,,,,,,,,,,,,,,,,572,18,Woman,Right,3,79,0.15,2,180,0,0,1.0283584000007977,['n'],1.0918502000004082,1.688,1915.8411639000005,,,,,572,18,Woman,Right,
,,,,,,,,,,,,,,,,,572,18,Woman,Right,3,33,0.4,2,0,180,180,0.36578390000067884,['n'],1.1566685999987385,1.688,1919.945172400001,,,,,572,18,Woman,Right,
,,,,,,,,,,,,,,,,,572,18,Woman,Right,3,36,0.4,1,0,-,0,0.4617837000005238,['y'],0.66110529999969,1.702,1923.4818689999993,,,,,572,18,Woman,Right,
,,,,,,,,,,,,,,,,,572,18,Woman,Right,3,16,0.4,1,0,-,0,0.3659674000009545,['y'],0.6934065000004921,1.834,1927.3857038000006,,,,,572,18,Woman,Right,
,,,,,,,,,,,,,,,,,572,18,Woman,Right,3,29,0.4,2,0,180,180,0.3032632999984344,['y'],0.6055355000007694,1.79,1930.5557836999997,,,,,572,18,Woman,Right,
,,,,,,,,,,,,,,,,,572,18,Woman,Right,3,46,0.15,1,180,-,0,0.3496637999996892,['y'],1.0055360999995173,1.766,1935.0098961999993,,,,,572,18,Woman,Right,
,,,,,,,,,,,,,,,,,572,18,Woman,Right,3,65,0.15,2,0,180,180,0.2894679000000906,['y'],0.5988457000003109,1.862,1939.3308316999992,,,,,572,18,Woman,Right,
,,,,,,,,,,,,,,,,,572,18,Woman,Right,3,58,0.15,1,180,-,180,0.47823179999977583,['y'],0.7674179000005097,1.826,1942.8012146,,,,,572,18,Woman,Right,
,,,,,,,,,,,,,,,,,572,18,Woman,Right,3,73,0.15,2,0,180,0,0.37050230000022566,['n'],0.8401959000002535,1.792,1946.3880988,,,,,572,18,Woman,Right,
,,,,,,,,,,,,,,,,,572,18,Woman,Right,3,71,0.15,2,180,0,180,0.5695795999999973,['y'],1.8965213999999833,1.6440000000000001,1951.377332600001,,,,,572,18,Woman,Right,
,,,,,,,,,,,,,,,,,572,18,Woman,Right,4,59,0.15,2,180,0,180,0.4141579000006459,['y'],2.186442400001397,1.804,1967.2921420999992,51.25,32.5,60.0,,572,18,Woman,Right,
,,,,,,,,,,,,,,,,,572,18,Woman,Right,4,17,0.4,2,0,180,180,0.27004910000141535,['y'],0.5390499000004638,1.83,1970.862354500001,,,,,572,18,Woman,Right,
,,,,,,,,,,,,,,,,,572,18,Woman,Right,4,68,0.15,1,0,-,0,0.546212999999625,['y'],0.923209799999313,1.788,1974.8335881999992,,,,,572,18,Woman,Right,
,,,,,,,,,,,,,,,,,572,18,Woman,Right,4,8,0.4,1,0,-,0,1.198620999999548,['n'],0.9000899000002391,1.788,1979.3213732999993,,,,,572,18,Woman,Right,
,,,,,,,,,,,,,,,,,572,18,Woman,Right,4,0,1,1,0,-,180,0.6505209000006289,['n'],0.9174579000009544,1.788,1984.7263719999992,,,,,572,18,Woman,Right,
,,,,,,,,,,,,,,,,,572,18,Woman,Right,4,20,0.4,1,0,-,180,4.714113500000167,['n'],1.0859393999999156,1.788,1992.9176303999993,,,,,572,18,Woman,Right,
,,,,,,,,,,,,,,,,,572,18,Woman,Right,4,28,0.4,1,0,-,180,2.1931411000005028,['n'],1.0465045000000828,1.788,1998.5899649999992,,,,,572,18,Woman,Right,
,,,,,,,,,,,,,,,,,572,18,Woman,Right,4,69,0.15,2,0,180,180,0.1630420999990747,['y'],1.3596360999999888,1.788,2003.0109522000002,,,,,572,18,Woman,Right,
,,,,,,,,,,,,,,,,,572,18,Woman,Right,4,73,0.15,2,0,180,0,0.43841450000036275,['y'],0.7036762999996427,1.788,2006.6814574,,,,,572,18,Woman,Right,
,,,,,,,,,,,,,,,,,572,18,Woman,Right,4,77,0.15,2,0,180,180,0.6549962000008236,['y'],0.7998831999993854,1.682,2010.5854178000009,,,,,572,18,Woman,Right,
,,,,,,,,,,,,,,,,,572,18,Woman,Right,4,65,0.15,2,0,180,180,0.5673972999993566,['n'],0.6642732000000251,1.4020000000000001,2014.3899036999992,,,,,572,18,Woman,Right,
,,,,,,,,,,,,,,,,,572,18,Woman,Right,4,33,0.4,2,0,180,180,0.520028299999467,['y'],0.5770778999994945,1.554,2017.9426081000001,,,,,572,18,Woman,Right,
,,,,,,,,,,,,,,,,,572,18,Woman,Right,4,56,0.15,1,0,-,180,0.9539487000001827,['n'],1.0015211000009003,1.554,2022.3470658999995,,,,,572,18,Woman,Right,
,,,,,,,,,,,,,,,,,572,18,Woman,Right,4,2,1,1,180,-,0,0.5289216000001034,['y'],0.9860262000001967,1.468,2027.6188700000002,,,,,572,18,Woman,Right,
,,,,,,,,,,,,,,,,,572,18,Woman,Right,4,18,0.4,1,180,-,180,0.15751210000053106,['y'],1.4189151999999012,1.468,2032.0232541000005,,,,,572,18,Woman,Right,
,,,,,,,,,,,,,,,,,572,18,Woman,Right,4,47,0.15,2,180,0,180,1.0386582999999519,['n'],0.8271891000003961,1.692,2037.7632235,,,,,572,18,Woman,Right,
,,,,,,,,,,,,,,,,,572,18,Woman,Right,4,53,0.15,2,0,180,180,0.4007839000005333,['n'],1.276082899999892,1.6480000000000001,2041.8330772000008,,,,,572,18,Woman,Right,
,,,,,,,,,,,,,,,,,572,18,Woman,Right,4,48,0.15,1,0,-,180,0.8722015000003012,['y'],0.36482149999937974,1.6480000000000001,2045.7202956,,,,,572,18,Woman,Right,
,,,,,,,,,,,,,,,,,572,18,Woman,Right,4,39,0.4,2,180,0,0,0.37762429999929736,['y'],0.46153050000066287,1.6480000000000001,2049.2406517,,,,,572,18,Woman,Right,
,,,,,,,,,,,,,,,,,572,18,Woman,Right,4,3,1,2,180,0,180,0.7094711999998253,['n'],1.757528199999797,1.72,2054.2454285000003,,,,,572,18,Woman,Right,
,,,,,,,,,,,,,,,,,572,18,Woman,Right,4,29,0.4,2,0,180,180,0.26890930000081426,['y'],0.8624540000000707,1.72,2057.782489700001,,,,,572,18,Woman,Right,
,,,,,,,,,,,,,,,,,572,18,Woman,Right,4,34,0.4,1,180,-,0,0.6141229000004387,['y'],0.8228653000005579,1.72,2061.9866838,,,,,572,18,Woman,Right,
,,,,,,,,,,,,,,,,,572,18,Woman,Right,4,21,0.4,2,0,180,0,0.5933824000003369,['y'],1.2315789999993285,1.72,2066.6243190999994,,,,,572,18,Woman,Right,
,,,,,,,,,,,,,,,,,572,18,Woman,Right,4,1,1,2,0,180,180,0.26323499999853084,['y'],0.5593595999998797,1.78,2070.0110139999997,,,,,572,18,Woman,Right,
,,,,,,,,,,,,,,,,,572,18,Woman,Right,4,24,0.4,1,0,-,180,0.4073461000007228,['n'],0.608008900000641,1.792,2073.482443000001,,,,,572,18,Woman,Right,
,,,,,,,,,,,,,,,,,572,18,Woman,Right,4,26,0.4,1,180,-,0,0.4176841999997123,['y'],0.5207592000006116,1.792,2076.7013681000008,,,,,572,18,Woman,Right,
,,,,,,,,,,,,,,,,,572,18,Woman,Right,4,36,0.4,1,0,-,180,0.6890827999995963,['y'],0.8731994999998278,1.792,2080.6385138000005,,,,,572,18,Woman,Right,
,,,,,,,,,,,,,,,,,572,18,Woman,Right,4,30,0.4,1,180,-,180,0.6265432000000146,['n'],0.8579702000006364,1.792,2085.7434708,,,,,572,18,Woman,Right,
,,,,,,,,,,,,,,,,,572,18,Woman,Right,4,5,1,2,0,180,180,0.1826638999991701,['y'],0.5942353000009462,1.792,2089.2473159,,,,,572,18,Woman,Right,
,,,,,,,,,,,,,,,,,572,18,Woman,Right,4,51,0.15,2,180,0,0,0.32847990000118443,['y'],0.37112420000084967,1.792,2094.6023427,,,,,572,18,Woman,Right,
,,,,,,,,,,,,,,,,,572,18,Woman,Right,4,62,0.15,1,180,-,180,0.42490730000099575,['y'],0.4513074000005872,1.1520000000000001,2098.8731138000003,,,,,572,18,Woman,Right,
,,,,,,,,,,,,,,,,,572,18,Woman,Right,4,70,0.15,1,180,-,180,0.37146690000008675,['n'],0.7318236999999499,1.558,2102.2933544999996,,,,,572,18,Woman,Right,
,,,,,,,,,,,,,,,,,572,18,Woman,Right,4,44,0.15,1,0,-,180,0.2819266999995307,['n'],1.0445512999995117,1.612,2106.4139973,,,,,572,18,Woman,Right,
,,,,,,,,,,,,,,,,,572,18,Woman,Right,4,57,0.15,2,0,180,0,0.4468347999991238,['n'],0.9494553999993514,1.686,2110.6183194000005,,,,,572,18,Woman,Right,
,,,,,,,,,,,,,,,,,572,18,Woman,Right,4,4,1,1,0,-,180,0.3006511999992654,['y'],0.5630398000012065,1.6600000000000001,2113.9381753,,,,,572,18,Woman,Right,
,,,,,,,,,,,,,,,,,572,18,Woman,Right,4,22,0.4,1,180,-,180,0.34666509999988193,['y'],0.7260569999998552,1.67,2117.5084953999994,,,,,572,18,Woman,Right,
,,,,,,,,,,,,,,,,,572,18,Woman,Right,4,27,0.4,2,180,0,0,0.2754551000016363,['y'],0.4943691000007675,1.672,2120.9784629999995,,,,,572,18,Woman,Right,
,,,,,,,,,,,,,,,,,572,18,Woman,Right,4,61,0.15,2,0,180,180,0.43833900000026915,['n'],0.8157722999985708,1.6640000000000001,2124.6155132000004,,,,,572,18,Woman,Right,
,,,,,,,,,,,,,,,,,572,18,Woman,Right,4,76,0.15,1,0,-,0,0.4817683000001125,['n'],0.6069286000001739,1.73,2127.952086699999,,,,,572,18,Woman,Right,
,,,,,,,,,,,,,,,,,572,18,Woman,Right,4,75,0.15,2,180,0,180,0.4394952000002377,['n'],0.6397367999998096,1.6680000000000001,2131.3057138000004,,,,,572,18,Woman,Right,
,,,,,,,,,,,,,,,,,572,18,Woman,Right,4,6,1,1,180,-,0,0.44392169999991893,['y'],0.8485589000010805,1.77,2135.159296,,,,,572,18,Woman,Right,
,,,,,,,,,,,,,,,,,572,18,Woman,Right,4,42,0.4,1,180,-,0,0.37977150000006077,['y'],0.7366995000011229,1.758,2138.7466415,,,,,572,18,Woman,Right,
,,,,,,,,,,,,,,,,,572,18,Woman,Right,4,45,0.15,2,0,180,180,0.7835046999989572,['y'],0.5132567000000563,1.71,2142.4836832,,,,,572,18,Woman,Right,
,,,,,,,,,,,,,,,,,572,18,Woman,Right,4,67,0.15,2,180,0,180,0.7011120000006485,['n'],0.4838101999994251,1.75,2146.0034393000005,,,,,572,18,Woman,Right,
,,,,,,,,,,,,,,,,,572,18,Woman,Right,4,7,1,2,180,0,0,0.2782530999993469,['y'],0.3462611000013567,1.738,2148.9896652000007,,,,,572,18,Woman,Right,
,,,,,,,,,,,,,,,,,572,18,Woman,Right,4,40,0.4,1,0,-,180,0.7571785000000091,['y'],0.37865379999857396,1.9020000000000001,2152.5933215999994,,,,,572,18,Woman,Right,
,,,,,,,,,,,,,,,,,572,18,Woman,Right,4,41,0.4,2,0,180,180,0.2557933999996749,['y'],0.34696919999987585,1.88,2155.529726500001,,,,,572,18,Woman,Right,
,,,,,,,,,,,,,,,,,572,18,Woman,Right,4,9,0.4,2,0,180,180,0.2789661000006163,['y'],0.22737359999882756,1.74,2158.6326449000007,,,,,572,18,Woman,Right,
,,,,,,,,,,,,,,,,,572,18,Woman,Right,4,31,0.4,2,180,0,0,0.4844264999992447,['y'],0.3237981000002037,1.71,2162.4865391000003,,,,,572,18,Woman,Right,
,,,,,,,,,,,,,,,,,572,18,Woman,Right,4,64,0.15,1,0,-,180,0.5575439000003826,['y'],0.7883924999987357,1.704,2166.140393400001,,,,,572,18,Woman,Right,
,,,,,,,,,,,,,,,,,572,18,Woman,Right,4,66,0.15,1,180,-,0,0.5336595000007947,['n'],0.5649348999995709,1.728,2170.1953247,,,,,572,18,Woman,Right,
,,,,,,,,,,,,,,,,,572,18,Woman,Right,4,54,0.15,1,180,-,0,0.4840268999996624,['y'],0.4126102999998693,1.6640000000000001,2173.6479015000004,,,,,572,18,Woman,Right,
,,,,,,,,,,,,,,,,,572,18,Woman,Right,4,74,0.15,1,180,-,180,0.6262657000006584,['y'],0.40590270000029705,1.432,2177.8352276999995,,,,,572,18,Woman,Right,
,,,,,,,,,,,,,,,,,572,18,Woman,Right,4,49,0.15,2,0,180,0,0.8076994000002742,['n'],0.5341554999995424,1.6320000000000001,2181.6223109000002,,,,,572,18,Woman,Right,
,,,,,,,,,,,,,,,,,572,18,Woman,Right,4,52,0.15,1,0,-,180,0.925733099998979,['n'],1.0227070999990246,1.424,2185.926645400001,,,,,572,18,Woman,Right,
,,,,,,,,,,,,,,,,,572,18,Woman,Right,4,19,0.4,2,180,0,0,0.22122620000118332,['y'],0.45558080000046175,1.6059999999999999,2189.3466757000006,,,,,572,18,Woman,Right,
,,,,,,,,,,,,,,,,,572,18,Woman,Right,4,58,0.15,1,180,-,0,0.5991028000007645,['y'],0.45594070000151987,1.738,2192.9669622,,,,,572,18,Woman,Right,
,,,,,,,,,,,,,,,,,572,18,Woman,Right,4,55,0.15,2,180,0,0,0.4026756999992358,['n'],0.8162709000007453,1.17,2197.3379981,,,,,572,18,Woman,Right,
,,,,,,,,,,,,,,,,,572,18,Woman,Right,4,46,0.15,1,180,-,0,0.29606039999998757,['y'],1.0654288999994606,1.612,2201.8759518000006,,,,,572,18,Woman,Right,
,,,,,,,,,,,,,,,,,572,18,Woman,Right,4,37,0.4,2,0,180,180,0.15895480000108364,['y'],0.49736250000023574,1.672,2206.2634990000006,,,,,572,18,Woman,Right,
,,,,,,,,,,,,,,,,,572,18,Woman,Right,4,15,0.4,2,180,0,180,0.7196464999997261,['y'],0.49787430000105815,1.6520000000000001,2209.8337379000004,,,,,572,18,Woman,Right,
,,,,,,,,,,,,,,,,,572,18,Woman,Right,4,38,0.4,1,180,-,0,0.3216204000000289,['y'],0.3865308999993431,1.6520000000000001,2212.970179,,,,,572,18,Woman,Right,
,,,,,,,,,,,,,,,,,572,18,Woman,Right,4,60,0.15,1,0,-,180,0.45270220000020345,['n'],0.6028877000007924,1.6520000000000001,2216.3067723999993,,,,,572,18,Woman,Right,
,,,,,,,,,,,,,,,,,572,18,Woman,Right,4,12,0.4,1,0,-,180,0.34838870000021416,['y'],0.6590153999986796,1.8,2219.6101887000004,,,,,572,18,Woman,Right,
,,,,,,,,,,,,,,,,,572,18,Woman,Right,4,10,0.4,1,180,-,0,1.268191900000602,['n'],0.43922120000024734,1.798,2223.981185299999,,,,,572,18,Woman,Right,
,,,,,,,,,,,,,,,,,572,18,Woman,Right,4,25,0.4,2,0,180,0,0.4379170000011072,['y'],1.1006749000007403,1.196,2228.8695977000007,,,,,572,18,Woman,Right,
,,,,,,,,,,,,,,,,,572,18,Woman,Right,4,72,0.15,1,0,-,180,0.41487899999992806,['n'],1.3175443000000087,1.686,2232.8075692,,,,,572,18,Woman,Right,
,,,,,,,,,,,,,,,,,572,18,Woman,Right,4,35,0.4,2,180,0,180,0.38864639999883366,['n'],0.27779560000089987,1.376,2237.227632100001,,,,,572,18,Woman,Right,
,,,,,,,,,,,,,,,,,572,18,Woman,Right,4,13,0.4,2,0,180,0,0.6575139000015042,['n'],1.37418020000041,1.6400000000000001,2241.850268100001,,,,,572,18,Woman,Right,
,,,,,,,,,,,,,,,,,572,18,Woman,Right,4,23,0.4,2,180,0,0,0.4983353999996325,['n'],2.4387111000014556,1.6640000000000001,2247.8884799000007,,,,,572,18,Woman,Right,
,,,,,,,,,,,,,,,,,572,18,Woman,Right,4,14,0.4,1,180,-,0,0.3746112999997422,['y'],0.49604399999952875,1.778,2251.1917572,,,,,572,18,Woman,Right,
,,,,,,,,,,,,,,,,,572,18,Woman,Right,4,78,0.15,1,180,-,0,0.2515254999998433,['y'],0.39981380000062927,1.784,2255.345681999999,,,,,572,18,Woman,Right,
,,,,,,,,,,,,,,,,,572,18,Woman,Right,4,11,0.4,2,180,0,0,0.2799402000000555,['y'],0.4406355999999505,1.784,2258.5489861000005,,,,,572,18,Woman,Right,
,,,,,,,,,,,,,,,,,572,18,Woman,Right,4,79,0.15,2,180,0,180,0.3690119999992021,['y'],0.8088642000002437,1.784,2262.4194687,,,,,572,18,Woman,Right,
,,,,,,,,,,,,,,,,,572,18,Woman,Right,4,63,0.15,2,180,0,0,0.8206644000001688,['n'],0.9290280999994138,1.722,2266.8573447,,,,,572,18,Woman,Right,
,,,,,,,,,,,,,,,,,572,18,Woman,Right,4,32,0.4,1,0,-,180,0.40711910000027274,['n'],0.8100155000011,1.722,2270.3776154999996,,,,,572,18,Woman,Right,
,,,,,,,,,,,,,,,,,572,18,Woman,Right,4,16,0.4,1,0,-,180,0.34625380000034056,['n'],0.4825994000002538,1.722,2273.6139838,,,,,572,18,Woman,Right,
,,,,,,,,,,,,,,,,,572,18,Woman,Right,4,71,0.15,2,180,0,0,0.44936740000048303,['y'],0.4666199000002962,1.8980000000000001,2276.8842494,,,,,572,18,Woman,Right,
,,,,,,,,,,,,,,,,,572,18,Woman,Right,4,50,0.15,1,180,-,180,0.12459799999851384,['y'],0.7708629999997356,1.796,2280.4709593999996,,,,,572,18,Woman,Right,
,,,,,,,,,,,,,,,,,572,18,Woman,Right,4,43,0.4,2,180,0,0,2.6028625999988435,['y'],0.502708400001211,1.792,2286.1597170000005,,,,,572,18,Woman,Right,
,,,,,,,,,,,,,,,,,572,18,Woman,Right,5,36,0.4,1,0,-,180,0.7048725000004197,['n'],0.5654574000000139,1.842,2298.8559141000005,45.0,42.5,65.0,,572,18,Woman,Right,
,,,,,,,,,,,,,,,,,572,18,Woman,Right,5,78,0.15,1,180,-,0,0.08252549999997427,['n'],0.6061900000004243,1.842,2302.4926749000006,,,,,572,18,Woman,Right,
,,,,,,,,,,,,,,,,,572,18,Woman,Right,5,9,0.4,2,0,180,180,0.30747040000096604,['n'],0.5740999999998166,1.1400000000000001,2306.7811125999997,,,,,572,18,Woman,Right,
,,,,,,,,,,,,,,,,,572,18,Woman,Right,5,16,0.4,1,0,-,0,0.47816990000137594,['y'],0.5268125000002328,1.792,2310.0168132,,,,,572,18,Woman,Right,
,,,,,,,,,,,,,,,,,572,18,Woman,Right,5,58,0.15,1,180,-,180,0.36802259999967646,['n'],0.879110200001378,1.736,2313.7875984,,,,,572,18,Woman,Right,
,,,,,,,,,,,,,,,,,572,18,Woman,Right,5,34,0.4,1,180,-,180,0.28277519999937795,['n'],0.6800738000001729,1.6,2316.9738233999997,,,,,572,18,Woman,Right,
,,,,,,,,,,,,,,,,,572,18,Woman,Right,5,39,0.4,2,180,0,0,0.41916979999950854,['y'],0.5766456000001199,1.658,2320.2770388999998,,,,,572,18,Woman,Right,
,,,,,,,,,,,,,,,,,572,18,Woman,Right,5,0,1,1,0,-,180,0.40159180000046035,['y'],0.6806369000005361,1.722,2323.714741,,,,,572,18,Woman,Right,
,,,,,,,,,,,,,,,,,572,18,Woman,Right,5,41,0.4,2,0,180,180,0.6308687000000646,['n'],0.3849785999991582,1.712,2328.0014573999997,,,,,572,18,Woman,Right,
,,,,,,,,,,,,,,,,,572,18,Woman,Right,5,59,0.15,2,180,0,0,0.2810594000002311,['n'],0.7140566999987641,1.712,2331.1545165000007,,,,,572,18,Woman,Right,
,,,,,,,,,,,,,,,,,572,18,Woman,Right,5,11,0.4,2,180,0,180,0.7550623000006453,['n'],0.8184221999999863,1.712,2335.2587334,,,,,572,18,Woman,Right,
,,,,,,,,,,,,,,,,,572,18,Woman,Right,5,74,0.15,1,180,-,0,0.3910838000010699,['n'],0.4907827000006364,1.712,2339.3136883999996,,,,,572,18,Woman,Right,
,,,,,,,,,,,,,,,,,572,18,Woman,Right,5,38,0.4,1,180,-,180,0.19819879999886325,['y'],0.9955380999999761,1.712,2342.9329543000003,,,,,572,18,Woman,Right,
,,,,,,,,,,,,,,,,,572,18,Woman,Right,5,35,0.4,2,180,0,0,0.3957978999987972,['y'],0.4919423999999708,1.712,2346.3030120000003,,,,,572,18,Woman,Right,
,,,,,,,,,,,,,,,,,572,18,Woman,Right,5,50,0.15,1,180,-,180,0.6857932999992045,['y'],0.6526594999995723,1.9,2350.0233647999994,,,,,572,18,Woman,Right,
,,,,,,,,,,,,,,,,,572,18,Woman,Right,5,64,0.15,1,0,-,180,0.5783671000008326,['n'],0.788891500000318,1.69,2353.7937334,,,,,572,18,Woman,Right,
,,,,,,,,,,,,,,,,,572,18,Woman,Right,5,4,1,1,0,-,180,0.45809639999970386,['y'],0.42105629999969096,1.608,2357.0637248000003,,,,,572,18,Woman,Right,
,,,,,,,,,,,,,,,,,572,18,Woman,Right,5,25,0.4,2,0,180,180,0.8432965000010881,['y'],0.40610500000002503,1.818,2360.9175378,,,,,572,18,Woman,Right,
,,,,,,,,,,,,,,,,,572,18,Woman,Right,5,22,0.4,1,180,-,0,0.2682072000006883,['y'],0.7103998999991745,1.794,2364.170838600001,,,,,572,18,Woman,Right,
,,,,,,,,,,,,,,,,,572,18,Woman,Right,5,2,1,1,180,-,0,0.36604560000159836,['y'],0.9827241999992111,1.828,2367.9253924999994,,,,,572,18,Woman,Right,
,,,,,,,,,,,,,,,,,572,18,Woman,Right,5,56,0.15,1,0,-,180,0.4876248000000487,['n'],0.7911564000005455,1.788,2371.6114271000006,,,,,572,18,Woman,Right,
,,,,,,,,,,,,,,,,,572,18,Woman,Right,5,32,0.4,1,0,-,180,0.31713579999996,['y'],0.4074302000008174,1.6560000000000001,2374.6981882,,,,,572,18,Woman,Right,
,,,,,,,,,,,,,,,,,572,18,Woman,Right,5,75,0.15,2,180,0,180,0.9604147000009107,['n'],0.8155199000011635,1.67,2378.885495300001,,,,,572,18,Woman,Right,
,,,,,,,,,,,,,,,,,572,18,Woman,Right,5,46,0.15,1,180,-,180,0.28624090000084834,['y'],0.8724439000015991,1.6560000000000001,2382.3391322000007,,,,,572,18,Woman,Right,
,,,,,,,,,,,,,,,,,572,18,Woman,Right,5,61,0.15,2,0,180,180,0.8041087000001426,['y'],0.30490349999854516,1.6560000000000001,2385.8259347000003,,,,,572,18,Woman,Right,
,,,,,,,,,,,,,,,,,572,18,Woman,Right,5,3,1,2,180,0,0,0.49291489999995974,['y'],0.329197999999451,1.732,2389.0290442999994,,,,,572,18,Woman,Right,
,,,,,,,,,,,,,,,,,572,18,Woman,Right,5,47,0.15,2,180,0,180,0.46098260000144364,['n'],0.5862533999988955,1.774,2392.2320719,,,,,572,18,Woman,Right,
,,,,,,,,,,,,,,,,,572,18,Woman,Right,5,53,0.15,2,0,180,0,1.303042400000777,['y'],0.19428770000013174,1.63,2395.835971300001,,,,,572,18,Woman,Right,
,,,,,,,,,,,,,,,,,572,18,Woman,Right,5,62,0.15,1,180,-,180,0.36704939999981434,['n'],0.5384498999992502,1.738,2400.1900994999996,,,,,572,18,Woman,Right,
,,,,,,,,,,,,,,,,,572,18,Woman,Right,5,67,0.15,2,180,0,0,0.4111195999994379,['y'],0.26685790000010456,1.646,2403.9272796000005,,,,,572,18,Woman,Right,
,,,,,,,,,,,,,,,,,572,18,Woman,Right,5,71,0.15,2,180,0,0,0.6692746000007901,['y'],0.8999402999997983,1.666,2408.2316302,,,,,572,18,Woman,Right,
,,,,,,,,,,,,,,,,,572,18,Woman,Right,5,21,0.4,2,0,180,180,1.8145198000001983,['n'],0.8765148999991652,1.666,2413.0026686,,,,,572,18,Woman,Right,
,,,,,,,,,,,,,,,,,572,18,Woman,Right,5,43,0.4,2,180,0,0,0.333635899998626,['y'],0.3557213000003685,1.666,2416.0394032000004,,,,,572,18,Woman,Right,
,,,,,,,,,,,,,,,,,572,18,Woman,Right,5,48,0.15,1,0,-,0,0.33793770000011136,['y'],0.3332785000002332,1.666,2418.991968800001,,,,,572,18,Woman,Right,
,,,,,,,,,,,,,,,,,572,18,Woman,Right,5,14,0.4,1,180,-,0,0.6015169999991485,['n'],1.0142487000011897,1.81,2423.397436699999,,,,,572,18,Woman,Right,
,,,,,,,,,,,,,,,,,572,18,Woman,Right,5,17,0.4,2,0,180,180,0.22914339999988442,['y'],0.49461169999995036,1.83,2427.0000512999995,,,,,572,18,Woman,Right,
,,,,,,,,,,,,,,,,,572,18,Woman,Right,5,54,0.15,1,180,-,180,0.6038520000001881,['n'],0.3671656000005896,1.808,2431.0539847,,,,,572,18,Woman,Right,
,,,,,,,,,,,,,,,,,572,18,Woman,Right,5,52,0.15,1,0,-,180,0.4288141999986692,['y'],0.5035482999992382,1.624,2434.3575913999994,,,,,572,18,Woman,Right,
,,,,,,,,,,,,,,,,,572,18,Woman,Right,5,37,0.4,2,0,180,180,0.27049190000070666,['y'],0.6076468999999634,1.6360000000000001,2437.4607271999994,,,,,572,18,Woman,Right,
,,,,,,,,,,,,,,,,,572,18,Woman,Right,5,24,0.4,1,0,-,180,0.38855750000038825,['y'],0.29617119999966235,1.63,2440.7137346,,,,,572,18,Woman,Right,
,,,,,,,,,,,,,,,,,572,18,Woman,Right,5,79,0.15,2,180,0,0,0.20954499999970722,['y'],0.4649169999993319,1.6680000000000001,2444.3506333999994,,,,,572,18,Woman,Right,
,,,,,,,,,,,,,,,,,572,18,Woman,Right,5,26,0.4,1,180,-,0,0.35513170000012906,['y'],0.37722759999996924,1.6680000000000001,2447.437115999999,,,,,572,18,Woman,Right,
,,,,,,,,,,,,,,,,,572,18,Woman,Right,5,13,0.4,2,0,180,180,0.14202530000147817,['y'],0.35326959999838436,1.6680000000000001,2450.2231169999995,,,,,572,18,Woman,Right,
,,,,,,,,,,,,,,,,,572,18,Woman,Right,5,49,0.15,2,0,180,0,0.6043955000004644,['n'],0.45749609999984386,1.6680000000000001,2454.8444388999997,,,,,572,18,Woman,Right,
,,,,,,,,,,,,,,,,,572,18,Woman,Right,5,77,0.15,2,0,180,180,0.27711769999950775,['y'],0.34641410000040196,1.6680000000000001,2457.6974893999995,,,,,572,18,Woman,Right,
,,,,,,,,,,,,,,,,,572,18,Woman,Right,5,27,0.4,2,180,0,0,0.4773273999999219,['y'],0.5470977000004495,1.866,2461.050664300001,,,,,572,18,Woman,Right,
,,,,,,,,,,,,,,,,,572,18,Woman,Right,5,19,0.4,2,180,0,0,0.39301049999994575,['y'],0.28269510000063747,1.846,2463.9370041,,,,,572,18,Woman,Right,
,,,,,,,,,,,,,,,,,572,18,Woman,Right,5,44,0.15,1,0,-,0,1.576887600000191,['y'],0.37960890000067593,1.8479999999999999,2469.9094774999994,,,,,572,18,Woman,Right,
,,,,,,,,,,,,,,,,,572,18,Woman,Right,5,33,0.4,2,0,180,180,0.4836735000008048,['y'],0.42896620000101393,1.87,2474.2970963999996,,,,,572,18,Woman,Right,
,,,,,,,,,,,,,,,,,572,18,Woman,Right,5,70,0.15,1,180,-,180,0.5216620000010153,['y'],0.3565086999988125,1.85,2477.450597700001,,,,,572,18,Woman,Right,
,,,,,,,,,,,,,,,,,572,18,Woman,Right,5,12,0.4,1,0,-,180,0.7212906000004295,['y'],0.4375856000006024,1.85,2477.450597700001,,,,,572,18,Woman,Right,
,,,,,,,,,,,,,,,,,572,18,Woman,Right,5,57,0.15,2,0,180,180,0.3871349000000919,['y'],0.4219255999996676,1.69,2484.0903072,,,,,572,18,Woman,Right,
,,,,,,,,,,,,,,,,,572,18,Woman,Right,5,42,0.4,1,180,-,0,0.5429084999996121,['y'],0.36614620000000286,1.608,2488.5448096,,,,,572,18,Woman,Right,
,,,,,,,,,,,,,,,,,572,18,Woman,Right,5,73,0.15,2,0,180,0,0.2975453999988531,['y'],0.37524300000040967,1.74,2491.464164000001,,,,,572,18,Woman,Right,
,,,,,,,,,,,,,,,,,572,18,Woman,Right,5,28,0.4,1,0,-,0,0.4813600999987102,['y'],0.2796477000010782,1.884,2494.717799600001,,,,,572,18,Woman,Right,
,,,,,,,,,,,,,,,,,572,18,Woman,Right,5,63,0.15,2,180,0,180,0.6495002999999997,['n'],0.8158076999989134,1.82,2498.4379257,,,,,572,18,Woman,Right,
,,,,,,,,,,,,,,,,,572,18,Woman,Right,5,65,0.15,2,0,180,0,0.4647224999989703,['y'],0.47225909999906435,1.702,2501.991654900001,,,,,572,18,Woman,Right,
,,,,,,,,,,,,,,,,,572,18,Woman,Right,5,23,0.4,2,180,0,0,0.588235999999597,['y'],0.544916299999386,1.698,2505.4451214,,,,,572,18,Woman,Right,
,,,,,,,,,,,,,,,,,572,18,Woman,Right,5,1,1,2,0,180,180,0.36693390000073123,['n'],0.40901080000003276,1.698,2509.282032700001,,,,,572,18,Woman,Right,
,,,,,,,,,,,,,,,,,572,18,Woman,Right,5,51,0.15,2,180,0,0,0.3166892999997799,['n'],0.7366330000004382,1.698,2512.4020407000007,,,,,572,18,Woman,Right,
,,,,,,,,,,,,,,,,,572,18,Woman,Right,5,66,0.15,1,180,-,180,0.44687750000048254,['y'],0.3057003000012628,1.698,2512.4020407000007,,,,,572,18,Woman,Right,
,,,,,,,,,,,,,,,,,572,18,Woman,Right,5,15,0.4,2,180,0,180,0.9596251000002667,['y'],0.9063336999988678,1.822,2520.8603753000007,,,,,572,18,Woman,Right,
,,,,,,,,,,,,,,,,,572,18,Woman,Right,5,45,0.15,2,0,180,180,0.40033190000031027,['n'],0.5154548000009527,1.3359999999999999,2525.9319104000006,,,,,572,18,Woman,Right,
,,,,,,,,,,,,,,,,,572,18,Woman,Right,5,29,0.4,2,0,180,180,0.2791010000000824,['y'],0.4110671000016737,1.708,2528.8683765999995,,,,,572,18,Woman,Right,
,,,,,,,,,,,,,,,,,572,18,Woman,Right,5,72,0.15,1,0,-,0,0.49174159999893163,['n'],0.8765371000008599,1.698,2532.5387198000008,,,,,572,18,Woman,Right,
,,,,,,,,,,,,,,,,,572,18,Woman,Right,5,55,0.15,2,180,0,180,0.25695399999858637,['y'],0.5400392999999895,1.716,2535.8584627,,,,,572,18,Woman,Right,
,,,,,,,,,,,,,,,,,572,18,Woman,Right,5,69,0.15,2,0,180,0,0.39048250000087137,['n'],0.5329862999988109,1.92,2539.4120746999997,,,,,572,18,Woman,Right,
,,,,,,,,,,,,,,,,,572,18,Woman,Right,5,18,0.4,1,180,-,0,0.32432949999929406,['y'],0.30131839999921795,1.3639999999999999,2543.2825316,,,,,572,18,Woman,Right,
,,,,,,,,,,,,,,,,,572,18,Woman,Right,5,40,0.4,1,0,-,180,0.3680663999984972,['y'],0.4621237999999721,1.722,2546.335822700001,,,,,572,18,Woman,Right,
,,,,,,,,,,,,,,,,,572,18,Woman,Right,5,20,0.4,1,0,-,180,0.2661726999995153,['y'],0.6386379999985365,1.692,2549.555341699999,,,,,572,18,Woman,Right,
,,,,,,,,,,,,,,,,,572,18,Woman,Right,5,76,0.15,1,0,-,180,0.26091009999981907,['n'],0.6307479999995849,1.698,2552.9757594000002,,,,,572,18,Woman,Right,
,,,,,,,,,,,,,,,,,572,18,Woman,Right,5,6,1,1,180,-,0,0.5119042999995145,['y'],0.3757958999995026,1.724,2556.929699099999,,,,,572,18,Woman,Right,
,,,,,,,,,,,,,,,,,572,18,Woman,Right,5,31,0.4,2,180,0,180,0.9819962999990821,['n'],0.4795155000010709,1.666,2561.1339193999993,,,,,572,18,Woman,Right,
,,,,,,,,,,,,,,,,,572,18,Woman,Right,5,5,1,2,0,180,180,0.24952250000023923,['n'],0.3600155999993149,1.288,2565.3211217000007,,,,,572,18,Woman,Right,
,,,,,,,,,,,,,,,,,572,18,Woman,Right,5,60,0.15,1,0,-,180,2.0854672999994364,['n'],0.857584900000802,1.424,2571.4772687000004,,,,,572,18,Woman,Right,
,,,,,,,,,,,,,,,,,572,18,Woman,Right,5,68,0.15,1,0,-,180,0.3406185000003461,['y'],0.689306399999623,1.76,2575.3813783999994,,,,,572,18,Woman,Right,
,,,,,,,,,,,,,,,,,572,18,Woman,Right,5,7,1,2,180,0,0,0.47970429999986663,['n'],0.30624189999980445,1.376,2579.9359277999993,,,,,572,18,Woman,Right,
,,,,,,,,,,,,,,,,,572,18,Woman,Right,5,10,0.4,1,180,-,0,0.2168082999996841,['y'],0.5058293000001868,1.69,2583.0220859,,,,,572,18,Woman,Right,
,,,,,,,,,,,,,,,,,572,18,Woman,Right,5,30,0.4,1,180,-,0,0.226938899999368,['n'],0.435051200000089,1.374,2586.8761804000005,,,,,572,18,Woman,Right,
,,,,,,,,,,,,,,,,,572,18,Woman,Right,5,8,0.4,1,0,-,180,0.3371177999997599,['y'],0.3718435999999201,1.83,2589.7792405,,,,,572,18,Woman,Right,
,,,,,,,,,,,,,,,,,,,,,,,,,,,,,,,,,52.5,35.0,60.0,2255.014098400001,,,,,
