p_block,p_section,p_coherence,p_direction1,p_direction2,p_direction_response,p_direction_RT,p_change_response,p_change_RT,p_confidence,p_full_correct,p_without5_correct,p_full_total,p_without5_total,p_full_avg,p_witout5_avg,p_total_time,sub,age,sex,handedness,loop,trial randomization,coherence,condition,direction1,direction2,direction_response,direction_RT,change_response,change_RT,change_confidence,change_confidence_RT,block_direction_avg,block_stable_avg,block_change_avg,total_time,sub,age,sex,handedness,
1,1,1.0,0,-,0,0.6149798999977065,-,-,-,,,,,,,,528,19,Woman,Right,,,,,,,,,,,,,,,,,528,19,Woman,Right,
1,1,1.0,180,-,180,0.1836771000016597,-,-,-,,,,,,,,528,19,Woman,Right,,,,,,,,,,,,,,,,,528,19,Woman,Right,
1,1,1.0,180,-,180,0.18826960000296822,-,-,-,,,,,,,,528,19,Woman,Right,,,,,,,,,,,,,,,,,528,19,Woman,Right,
1,1,1.0,180,-,180,0.7422806999966269,-,-,-,,,,,,,,528,19,Woman,Right,,,,,,,,,,,,,,,,,528,19,Woman,Right,
1,1,1.0,0,-,0,0.5145765999986907,-,-,-,,,,,,,,528,19,Woman,Right,,,,,,,,,,,,,,,,,528,19,Woman,Right,
1,1,1.0,0,-,0,0.8085342000049422,-,-,-,,,,,,,,528,19,Woman,Right,,,,,,,,,,,,,,,,,528,19,Woman,Right,
1,1,1.0,180,-,180,0.016567999999097083,-,-,-,,,,,,,,528,19,Woman,Right,,,,,,,,,,,,,,,,,528,19,Woman,Right,
1,1,1.0,0,-,0,0.3088147999951616,-,-,-,,,,,,,,528,19,Woman,Right,,,,,,,,,,,,,,,,,528,19,Woman,Right,
1,1,1.0,180,-,180,0.016478699995786883,-,-,-,,,,,,,,528,19,Woman,Right,,,,,,,,,,,,,,,,,528,19,Woman,Right,
1,1,1.0,180,-,180,0.7951724000013201,-,-,-,10,10,10,10,1.0,1.0,,528,19,Woman,Right,,,,,,,,,,,,,,,,,528,19,Woman,Right,
2,1,0.4,0,-,0,0.705672299998696,-,-,-,,,,,,,,528,19,Woman,Right,,,,,,,,,,,,,,,,,528,19,Woman,Right,
2,1,0.15,0,-,0,0.3433167000039248,-,-,-,,,,,,,,528,19,Woman,Right,,,,,,,,,,,,,,,,,528,19,Woman,Right,
2,1,0.15,0,-,0,0.3886941999953706,-,-,-,,,,,,,,528,19,Woman,Right,,,,,,,,,,,,,,,,,528,19,Woman,Right,
2,1,0.15,180,-,180,0.43114839999907417,-,-,-,,,,,,,,528,19,Woman,Right,,,,,,,,,,,,,,,,,528,19,Woman,Right,
2,1,0.15,0,-,0,0.7369804999980261,-,-,-,,,,,,,,528,19,Woman,Right,,,,,,,,,,,,,,,,,528,19,Woman,Right,
2,1,0.4,180,-,180,0.053945799998473376,-,-,-,,,,,,,,528,19,Woman,Right,,,,,,,,,,,,,,,,,528,19,Woman,Right,
2,1,0.4,180,-,0,1.1165433999995003,-,-,-,,,,,,,,528,19,Woman,Right,,,,,,,,,,,,,,,,,528,19,Woman,Right,
2,1,0.4,180,-,180,0.2665110000016284,-,-,-,,,,,,,,528,19,Woman,Right,,,,,,,,,,,,,,,,,528,19,Woman,Right,
2,1,0.15,0,-,180,0.41937870000401745,-,-,-,,,,,,,,528,19,Woman,Right,,,,,,,,,,,,,,,,,528,19,Woman,Right,
2,1,0.4,180,-,180,0.11697409999760566,-,-,-,8,4,10,5,0.8,0.8,,528,19,Woman,Right,,,,,,,,,,,,,,,,,528,19,Woman,Right,
3,2,1.0,0,180,0,5.2662091000020155,['y'],4.545561699997052,2,,,,,,,,528,19,Woman,Right,,,,,,,,,,,,,,,,,528,19,Woman,Right,
3,2,1.0,180,0,0,4.51450680000562,['y'],3.1133472000001348,2.0,,,,,,,,528,19,Woman,Right,,,,,,,,,,,,,,,,,528,19,Woman,Right,
3,2,1.0,180,0,0,0.37336019999929704,['y'],1.7448814000017592,2.0,,,,,,,,528,19,Woman,Right,,,,,,,,,,,,,,,,,528,19,Woman,Right,
3,2,1.0,0,180,180,0.4979464999996708,['y'],0.41736479999963194,2.0,,,,,,,,528,19,Woman,Right,,,,,,,,,,,,,,,,,528,19,Woman,Right,
3,2,1.0,0,180,180,0.34198369999649003,['y'],0.3947104999970179,2.0,,,,,,,,528,19,Woman,Right,,,,,,,,,,,,,,,,,528,19,Woman,Right,
3,2,1.0,0,180,180,0.4978274000022793,['y'],0.6416851000030874,2.0,,,,,,,,528,19,Woman,Right,,,,,,,,,,,,,,,,,528,19,Woman,Right,
3,2,1.0,0,180,180,0.24855029999889666,['y'],0.4251229000001331,2.0,,,,,,,,528,19,Woman,Right,,,,,,,,,,,,,,,,,528,19,Woman,Right,
3,2,1.0,180,0,0,0.4011400000017602,['y'],0.764393099998415,2.0,,,,,,,,528,19,Woman,Right,,,,,,,,,,,,,,,,,528,19,Woman,Right,
3,2,1.0,0,180,180,0.3345049999988987,['y'],1.1407012999989092,2.0,,,,,,,,528,19,Woman,Right,,,,,,,,,,,,,,,,,528,19,Woman,Right,
3,2,1.0,180,0,0,0.2998193000021274,['y'],0.8577241000020877,2.0,9,9,10,10,0.9,0.9,,528,19,Woman,Right,,,,,,,,,,,,,,,,,528,19,Woman,Right,
4,2,0.4,180,0,0,2.234123600006569,['y'],0.47501130000455305,2.0,,,,,,,,528,19,Woman,Right,,,,,,,,,,,,,,,,,528,19,Woman,Right,
4,2,0.4,0,180,180,0.20405900000332622,['y'],0.33335860000079265,2.0,,,,,,,,528,19,Woman,Right,,,,,,,,,,,,,,,,,528,19,Woman,Right,
4,2,0.15,0,180,180,0.3342175999932806,['y'],0.3077781000029063,2.0,,,,,,,,528,19,Woman,Right,,,,,,,,,,,,,,,,,528,19,Woman,Right,
4,2,0.15,180,0,0,0.2438177000003634,['y'],0.5168030999993789,2.0,,,,,,,,528,19,Woman,Right,,,,,,,,,,,,,,,,,528,19,Woman,Right,
4,2,0.4,180,0,0,0.2397583999991184,['y'],0.3047140000053332,2.0,,,,,,,,528,19,Woman,Right,,,,,,,,,,,,,,,,,528,19,Woman,Right,
4,2,0.15,180,0,0,0.26240749999851687,['y'],0.6706760999950347,2.0,,,,,,,,528,19,Woman,Right,,,,,,,,,,,,,,,,,528,19,Woman,Right,
4,2,0.4,180,0,0,0.16756170000007842,['y'],0.6663403999991715,2.0,,,,,,,,528,19,Woman,Right,,,,,,,,,,,,,,,,,528,19,Woman,Right,
4,2,0.4,180,0,0,0.3123349000015878,['y'],0.3579823999971268,2.0,,,,,,,,528,19,Woman,Right,,,,,,,,,,,,,,,,,528,19,Woman,Right,
4,2,0.4,0,180,180,1.319511900001089,['y'],0.7654575999986264,2.0,,,,,,,,528,19,Woman,Right,,,,,,,,,,,,,,,,,528,19,Woman,Right,
4,2,0.4,180,0,0,0.27932200000213925,['y'],0.5436967999994522,2.0,10,7,10,7,1.0,1.0,,528,19,Woman,Right,,,,,,,,,,,,,,,,,528,19,Woman,Right,
5,3,0.15,0,180,180,0.7818747999990592,['y'],1.4500095999974292,2.0,,,,,,,,528,19,Woman,Right,,,,,,,,,,,,,,,,,528,19,Woman,Right,
5,3,0.15,180,0,0,1.123540699998557,['y'],0.36100230000010924,2.0,,,,,,,,528,19,Woman,Right,,,,,,,,,,,,,,,,,528,19,Woman,Right,
5,3,1.0,180,-,180,0.4075077000015881,['n'],0.29042430000117747,2.0,,,,,,,,528,19,Woman,Right,,,,,,,,,,,,,,,,,528,19,Woman,Right,
5,3,0.4,180,0,0,0.22825190000003204,['y'],2.5026730000026873,2.0,,,,,,,,528,19,Woman,Right,,,,,,,,,,,,,,,,,528,19,Woman,Right,
5,3,1.0,180,0,0,0.12494290000176989,['y'],0.9951311000040732,2.0,,,,,,,,528,19,Woman,Right,,,,,,,,,,,,,,,,,528,19,Woman,Right,
5,3,0.4,0,180,180,0.43908139999984996,['y'],0.40821449999930337,2.0,,,,,,,,528,19,Woman,Right,,,,,,,,,,,,,,,,,528,19,Woman,Right,
5,3,0.4,180,-,180,0.43175630000041565,['n'],0.3289431000011973,2.0,,,,,,,,528,19,Woman,Right,,,,,,,,,,,,,,,,,528,19,Woman,Right,
5,3,1.0,0,180,180,0.4373308000067482,['y'],1.0622125000008964,2.0,,,,,,,,528,19,Woman,Right,,,,,,,,,,,,,,,,,528,19,Woman,Right,
5,3,1.0,180,-,180,0.2931501999992179,['n'],0.3081871000031242,2.0,,,,,,,,528,19,Woman,Right,,,,,,,,,,,,,,,,,528,19,Woman,Right,
5,3,0.15,0,180,180,0.9621803000045475,['y'],0.3344284000049811,2.0,10,7,10,7,1.0,1.0,,528,19,Woman,Right,,,,,,,,,,,,,,,,,528,19,Woman,Right,
,,,,,,,,,,,,,,,,4.900000931229442e-06,528,19,Woman,Right,,,,,,,,,,,,,,,,,528,19,Woman,Right,
,,,,,,,,,,,,,,,,,528,19,Woman,Right,0,29,0.4,2,0,180,180,0.6818081000019447,['y'],2.2712422000040533,2.0,289.8348130000013,,,,,528,19,Woman,Right,
,,,,,,,,,,,,,,,,,528,19,Woman,Right,0,53,0.15,2,0,180,180,2.88773609999771,['y'],2.1758298999993713,1.316,298.5182353000055,,,,,528,19,Woman,Right,
,,,,,,,,,,,,,,,,,528,19,Woman,Right,0,51,0.15,2,180,0,180,2.9845582999987528,['n'],1.415931700001238,1.3,306.1847215000016,,,,,528,19,Woman,Right,
,,,,,,,,,,,,,,,,,528,19,Woman,Right,0,45,0.15,2,0,180,180,2.6089352999988478,['y'],0.9668879000018933,1.282,312.68396439999924,,,,,528,19,Woman,Right,
,,,,,,,,,,,,,,,,,528,19,Woman,Right,0,34,0.4,1,180,-,180,0.30677590000414057,['n'],1.688488599997072,1.6440000000000001,317.90059530000144,,,,,528,19,Woman,Right,
,,,,,,,,,,,,,,,,,528,19,Woman,Right,0,56,0.15,1,0,-,180,1.4327401999980793,['n'],1.191344000006211,1.316,323.51733120000426,,,,,528,19,Woman,Right,
,,,,,,,,,,,,,,,,,528,19,Woman,Right,0,8,0.4,1,0,-,180,1.672382100005052,['y'],0.8550221000041347,1.426,328.8016646000033,,,,,528,19,Woman,Right,
,,,,,,,,,,,,,,,,,528,19,Woman,Right,0,69,0.15,2,0,180,180,3.11122840000462,['n'],0.7517676999996183,1.3820000000000001,335.7182532000006,,,,,528,19,Woman,Right,
,,,,,,,,,,,,,,,,,528,19,Woman,Right,0,50,0.15,1,180,-,180,1.375812099999166,['n'],1.2800098000006983,1.304,341.91738330000226,,,,,528,19,Woman,Right,
,,,,,,,,,,,,,,,,,528,19,Woman,Right,0,76,0.15,1,0,-,0,1.488761799999338,['n'],0.8476411000010557,1.286,347.534444900004,,,,,528,19,Woman,Right,
,,,,,,,,,,,,,,,,,528,19,Woman,Right,0,60,0.15,1,0,-,0,1.9893751999989036,['y'],1.6715423999994528,1.324,354.5506752000001,,,,,528,19,Woman,Right,
,,,,,,,,,,,,,,,,,528,19,Woman,Right,0,31,0.4,2,180,0,0,2.0849331999997958,['y'],1.1204969999962486,1.328,361.00072999999975,,,,,528,19,Woman,Right,
,,,,,,,,,,,,,,,,,528,19,Woman,Right,0,1,1,2,0,180,180,1.1587471000020741,['y'],0.847288999997545,2.0,366.0507160999987,,,,,528,19,Woman,Right,
,,,,,,,,,,,,,,,,,528,19,Woman,Right,0,73,0.15,2,0,180,180,1.225107600002957,['y'],1.0071296000023722,2.0,371.3183349000028,,,,,528,19,Woman,Right,
,,,,,,,,,,,,,,,,,528,19,Woman,Right,0,68,0.15,1,0,-,180,1.0916452999954345,['y'],0.5432076999932178,1.588,376.01745479999954,,,,,528,19,Woman,Right,
,,,,,,,,,,,,,,,,,528,19,Woman,Right,0,40,0.4,1,0,-,180,2.4729520000037155,['n'],0.8796866000047885,1.37,384.4008596000058,,,,,528,19,Woman,Right,
,,,,,,,,,,,,,,,,,528,19,Woman,Right,0,61,0.15,2,0,180,180,0.4375567000024603,['n'],0.8556680000037886,1.572,388.56753030000255,,,,,528,19,Woman,Right,
,,,,,,,,,,,,,,,,,528,19,Woman,Right,0,15,0.4,2,180,0,0,0.8081617999996524,['y'],0.960034399999131,2.0,393.41754629999923,,,,,528,19,Woman,Right,
,,,,,,,,,,,,,,,,,528,19,Woman,Right,0,7,1,2,180,0,0,1.5336441999970702,['y'],0.7512433999945642,1.98,398.43434150000394,,,,,528,19,Woman,Right,
,,,,,,,,,,,,,,,,,528,19,Woman,Right,0,9,0.4,2,0,180,180,0.5709882999944966,['y'],0.6475534999990487,2.0,402.4509229000032,,,,,528,19,Woman,Right,
,,,,,,,,,,,,,,,,,528,19,Woman,Right,0,13,0.4,2,0,180,180,0.3638915999981691,['y'],1.0307412999973167,2.0,406.81756529999984,,,,,528,19,Woman,Right,
,,,,,,,,,,,,,,,,,528,19,Woman,Right,0,43,0.4,2,180,0,0,0.28135939999629045,['y'],0.6481233000013162,2.0,410.73521900000196,,,,,528,19,Woman,Right,
,,,,,,,,,,,,,,,,,528,19,Woman,Right,0,33,0.4,2,0,180,180,0.2565533000015421,['y'],0.7355877000009059,2.0,414.5682550999991,,,,,528,19,Woman,Right,
,,,,,,,,,,,,,,,,,528,19,Woman,Right,0,42,0.4,1,180,-,180,0.6772466999973403,['n'],0.6393093999940902,2.0,418.96830200000113,,,,,528,19,Woman,Right,
,,,,,,,,,,,,,,,,,528,19,Woman,Right,0,66,0.15,1,180,-,180,1.0238250999973388,['n'],0.8233474000007845,1.788,424.1509373000008,,,,,528,19,Woman,Right,
,,,,,,,,,,,,,,,,,528,19,Woman,Right,0,10,0.4,1,180,-,180,0.34979610000300454,['y'],0.7674422999989474,1.51,431.06749370000034,,,,,528,19,Woman,Right,
,,,,,,,,,,,,,,,,,528,19,Woman,Right,0,75,0.15,2,180,0,0,1.2301034000047366,['n'],0.9676962999947136,2.0,437.15096099999937,,,,,528,19,Woman,Right,
,,,,,,,,,,,,,,,,,528,19,Woman,Right,0,59,0.15,2,180,0,0,0.6300281000003451,['y'],0.7994483000002219,2.0,442.00200010000117,,,,,528,19,Woman,Right,
,,,,,,,,,,,,,,,,,528,19,Woman,Right,0,6,1,1,180,-,180,0.31635459999961313,['n'],1.615865500003565,2.0,447.35087320000457,,,,,528,19,Woman,Right,
,,,,,,,,,,,,,,,,,528,19,Woman,Right,0,3,1,2,180,0,0,0.9929076000044006,['y'],0.9595867999960319,2.0,452.1009630000044,,,,,528,19,Woman,Right,
,,,,,,,,,,,,,,,,,528,19,Woman,Right,0,65,0.15,2,0,180,180,0.6571674000006169,['y'],2.711310999999114,2.0,458.95105630000035,,,,,528,19,Woman,Right,
,,,,,,,,,,,,,,,,,528,19,Woman,Right,0,64,0.15,1,0,-,180,3.4512122000014642,['n'],0.7432849999968312,1.35,467.0343611999997,,,,,528,19,Woman,Right,
,,,,,,,,,,,,,,,,,528,19,Woman,Right,0,21,0.4,2,0,180,180,0.5241491999986465,['y'],0.7822984000013093,2.0,470.9353426000016,,,,,528,19,Woman,Right,
,,,,,,,,,,,,,,,,,528,19,Woman,Right,0,39,0.4,2,180,0,0,1.1839792000027956,['y'],1.3277579999994487,2.0,476.5510598000037,,,,,528,19,Woman,Right,
,,,,,,,,,,,,,,,,,528,19,Woman,Right,0,4,1,1,0,-,0,0.7398115000032703,['n'],1.4153017999997246,1.642,482.18457180000405,,,,,528,19,Woman,Right,
,,,,,,,,,,,,,,,,,528,19,Woman,Right,0,5,1,2,0,180,180,0.2635104000000865,['y'],1.543515599994862,2.0,486.9010072000019,,,,,528,19,Woman,Right,
,,,,,,,,,,,,,,,,,528,19,Woman,Right,0,37,0.4,2,0,180,180,0.4000194999971427,['y'],0.8317142000014428,2.0,491.16855190000206,,,,,528,19,Woman,Right,
,,,,,,,,,,,,,,,,,528,19,Woman,Right,0,38,0.4,1,180,-,180,0.6566088000035961,['n'],1.239896500002942,2.0,496.16865880000114,,,,,528,19,Woman,Right,
,,,,,,,,,,,,,,,,,528,19,Woman,Right,0,71,0.15,2,180,0,180,0.5740439000001061,['n'],1.3517926999993506,2.0,501.00104629999987,,,,,528,19,Woman,Right,
,,,,,,,,,,,,,,,,,528,19,Woman,Right,0,18,0.4,1,180,-,0,0.5690112999945995,['y'],1.2560591000001295,1.6019999999999999,506.2178107,,,,,528,19,Woman,Right,
,,,,,,,,,,,,,,,,,528,19,Woman,Right,0,58,0.15,1,180,-,180,0.8785447999980533,['n'],2.664181500003906,1.728,513.2344703999988,,,,,528,19,Woman,Right,
,,,,,,,,,,,,,,,,,528,19,Woman,Right,0,72,0.15,1,0,-,180,0.9100038999968092,['n'],2.7120052999962354,2.0,520.0512024000054,,,,,528,19,Woman,Right,
,,,,,,,,,,,,,,,,,528,19,Woman,Right,0,52,0.15,1,0,-,180,0.6823998999971082,['n'],1.4879479000010178,1.576,525.367736500004,,,,,528,19,Woman,Right,
,,,,,,,,,,,,,,,,,528,19,Woman,Right,0,54,0.15,1,180,-,180,0.07861399999819696,['n'],1.1751040999952238,1.694,529.1844009000051,,,,,528,19,Woman,Right,
,,,,,,,,,,,,,,,,,528,19,Woman,Right,0,70,0.15,1,180,-,180,0.108658999997715,['n'],0.9116084999986924,1.84,532.768052899999,,,,,528,19,Woman,Right,
,,,,,,,,,,,,,,,,,528,19,Woman,Right,0,20,0.4,1,0,-,180,0.42658790000132285,['n'],0.9840460999985225,2.0,536.9687384999997,,,,,528,19,Woman,Right,
,,,,,,,,,,,,,,,,,528,19,Woman,Right,0,2,1,1,180,-,180,0.2631457000024966,['n'],0.7363253000003169,2.0,540.5353534000024,,,,,528,19,Woman,Right,
,,,,,,,,,,,,,,,,,528,19,Woman,Right,0,48,0.15,1,0,-,180,0.5130598000032478,['n'],0.727876799996011,2.0,545.0346897000054,,,,,528,19,Woman,Right,
,,,,,,,,,,,,,,,,,528,19,Woman,Right,0,26,0.4,1,180,-,180,0.40808300000207964,['n'],0.5278966999976547,2.0,548.7678166000042,,,,,528,19,Woman,Right,
,,,,,,,,,,,,,,,,,528,19,Woman,Right,0,77,0.15,2,0,180,180,3.116741700003331,['y'],0.7834122999993269,1.35,555.5514564000041,,,,,528,19,Woman,Right,
,,,,,,,,,,,,,,,,,528,19,Woman,Right,0,79,0.15,2,180,0,180,0.3496565000023111,['n'],2.81505019999895,1.686,561.3680901000043,,,,,528,19,Woman,Right,
,,,,,,,,,,,,,,,,,528,19,Woman,Right,0,67,0.15,2,180,0,180,0.8052895000000717,['n'],0.7595654999968247,2.0,565.6012467000037,,,,,528,19,Woman,Right,
,,,,,,,,,,,,,,,,,528,19,Woman,Right,0,22,0.4,1,180,-,180,0.07346659999893745,['n'],1.1192557999966084,2.0,569.5678346000059,,,,,528,19,Woman,Right,
,,,,,,,,,,,,,,,,,528,19,Woman,Right,0,27,0.4,2,180,0,0,0.7337936000039917,['y'],1.2314636000010069,2.0,574.5852464999989,,,,,528,19,Woman,Right,
,,,,,,,,,,,,,,,,,528,19,Woman,Right,0,12,0.4,1,0,-,180,0.4008663999993587,['n'],1.1033715999947162,2.0,578.9012610999998,,,,,528,19,Woman,Right,
,,,,,,,,,,,,,,,,,528,19,Woman,Right,0,23,0.4,2,180,0,0,0.4668043999990914,['y'],2.943312800001877,2.0,585.3679042000003,,,,,528,19,Woman,Right,
,,,,,,,,,,,,,,,,,528,19,Woman,Right,0,74,0.15,1,180,-,180,1.262730599999486,['n'],0.46286330000293674,2.0,590.901274200005,,,,,528,19,Woman,Right,
,,,,,,,,,,,,,,,,,528,19,Woman,Right,0,62,0.15,1,180,-,180,0.36078100000304403,['n'],3.536229099998309,2.0,597.6687922000056,,,,,528,19,Woman,Right,
,,,,,,,,,,,,,,,,,528,19,Woman,Right,0,19,0.4,2,180,0,0,0.6188770000007935,['y'],1.4395244999977876,2.0,602.7345399000042,,,,,528,19,Woman,Right,
,,,,,,,,,,,,,,,,,528,19,Woman,Right,0,55,0.15,2,180,0,0,0.36914899999828776,['y'],1.303651499998523,2.0,607.0853370000041,,,,,528,19,Woman,Right,
,,,,,,,,,,,,,,,,,528,19,Woman,Right,0,35,0.4,2,180,0,0,0.3465894000037224,['y'],1.1993913000042085,2.0,611.5512789999993,,,,,528,19,Woman,Right,
,,,,,,,,,,,,,,,,,528,19,Woman,Right,0,78,0.15,1,180,-,180,0.4909635000003618,['n'],0.6714223000017228,2.0,615.4513137000031,,,,,528,19,Woman,Right,
,,,,,,,,,,,,,,,,,528,19,Woman,Right,0,32,0.4,1,0,-,0,0.6751796000025934,['n'],2.528628599997319,2.0,621.5513909000001,,,,,528,19,Woman,Right,
,,,,,,,,,,,,,,,,,528,19,Woman,Right,0,0,1,1,0,-,0,0.32656320000387495,['n'],1.0233894999983022,2.0,626.0847614000013,,,,,528,19,Woman,Right,
,,,,,,,,,,,,,,,,,528,19,Woman,Right,0,36,0.4,1,0,-,180,0.6919521000017994,['y'],0.9430859999993118,1.562,633.1847965000052,,,,,528,19,Woman,Right,
,,,,,,,,,,,,,,,,,528,19,Woman,Right,0,46,0.15,1,180,-,180,0.2704526000015903,['n'],1.2398794000037014,2.0,637.201350000003,,,,,528,19,Woman,Right,
,,,,,,,,,,,,,,,,,528,19,Woman,Right,0,49,0.15,2,0,180,0,1.5908032999941497,['n'],1.0955849999954808,1.426,642.8347207000043,,,,,528,19,Woman,Right,
,,,,,,,,,,,,,,,,,528,19,Woman,Right,0,30,0.4,1,180,-,180,0.8135180000026594,['n'],1.432021699998586,1.6139999999999999,649.1353468000016,,,,,528,19,Woman,Right,
,,,,,,,,,,,,,,,,,528,19,Woman,Right,0,41,0.4,2,0,180,180,0.42868620000081137,['n'],3.6868820000017877,1.96,656.4013495000036,,,,,528,19,Woman,Right,
,,,,,,,,,,,,,,,,,528,19,Woman,Right,0,63,0.15,2,180,0,0,0.5963009999977658,['y'],2.0317771999980323,1.976,663.1188270999992,,,,,528,19,Woman,Right,
,,,,,,,,,,,,,,,,,528,19,Woman,Right,0,47,0.15,2,180,0,0,0.3019258999993326,['y'],0.8319398000021465,2.0,666.8359901000003,,,,,528,19,Woman,Right,
,,,,,,,,,,,,,,,,,528,19,Woman,Right,0,11,0.4,2,180,0,0,0.21218209999642568,['y'],0.8787916000001132,2.0,670.4855695000006,,,,,528,19,Woman,Right,
,,,,,,,,,,,,,,,,,528,19,Woman,Right,0,16,0.4,1,0,-,180,0.4655228999981773,['y'],0.6314597000018694,2.0,674.1689343000035,,,,,528,19,Woman,Right,
,,,,,,,,,,,,,,,,,528,19,Woman,Right,0,57,0.15,2,0,180,180,0.5370400999963749,['n'],0.7592080000031274,2.0,678.4514255000031,,,,,528,19,Woman,Right,
,,,,,,,,,,,,,,,,,528,19,Woman,Right,0,14,0.4,1,180,-,180,0.6233676999981981,['n'],0.7751903000025777,2.0,682.4352657999989,,,,,528,19,Woman,Right,
,,,,,,,,,,,,,,,,,528,19,Woman,Right,0,44,0.15,1,0,-,0,2.247323999996297,['n'],0.9035809000051813,1.0,689.1015001000051,,,,,528,19,Woman,Right,
,,,,,,,,,,,,,,,,,528,19,Woman,Right,0,17,0.4,2,0,180,180,0.40012510000087786,['y'],0.9753536999996868,2.0,692.9516925999997,,,,,528,19,Woman,Right,
,,,,,,,,,,,,,,,,,528,19,Woman,Right,0,25,0.4,2,0,180,180,0.4050268999999389,['y'],0.9035281999967992,2.0,697.1015688000043,,,,,528,19,Woman,Right,
,,,,,,,,,,,,,,,,,528,19,Woman,Right,0,28,0.4,1,0,-,0,1.034097700001439,['n'],0.8195436000023619,2.0,701.6689323000028,,,,,528,19,Woman,Right,
,,,,,,,,,,,,,,,,,528,19,Woman,Right,0,24,0.4,1,0,-,0,0.6029281000010087,['n'],2.926878400001442,2.0,708.3860239999995,,,,,528,19,Woman,Right,
,,,,,,,,,,,,,,,,,528,19,Woman,Right,1,54,0.15,1,180,-,180,1.5601587999990443,['n'],2.4464874000041164,1.134,758.5186987000052,77.5,82.5,75.0,,528,19,Woman,Right,
,,,,,,,,,,,,,,,,,528,19,Woman,Right,1,57,0.15,2,0,180,180,0.2329812999960268,['n'],0.7513914000010118,2.0,762.9357711000048,,,,,528,19,Woman,Right,
,,,,,,,,,,,,,,,,,528,19,Woman,Right,1,64,0.15,1,0,-,180,0.2437939000010374,['n'],1.2153966000041692,2.0,766.9356737000053,,,,,528,19,Woman,Right,
,,,,,,,,,,,,,,,,,528,19,Woman,Right,1,74,0.15,1,180,-,180,0.017465699995227624,['n'],0.8870686999944155,2.0,770.3183777000013,,,,,528,19,Woman,Right,
,,,,,,,,,,,,,,,,,528,19,Woman,Right,1,22,0.4,1,180,-,180,0.08137810000334866,['n'],1.0713933000006364,2.0,774.1016412000026,,,,,528,19,Woman,Right,
,,,,,,,,,,,,,,,,,528,19,Woman,Right,1,35,0.4,2,180,0,0,1.7290615000019898,['n'],1.2634416000000783,2.0,779.8016881000003,,,,,528,19,Woman,Right,
,,,,,,,,,,,,,,,,,528,19,Woman,Right,1,15,0.4,2,180,0,0,0.538774700005888,['y'],1.2638003999963985,2.0,784.3517605000015,,,,,528,19,Woman,Right,
,,,,,,,,,,,,,,,,,528,19,Woman,Right,1,34,0.4,1,180,-,180,0.5471687999961432,['n'],0.5999812000009115,2.0,788.334872899999,,,,,528,19,Woman,Right,
,,,,,,,,,,,,,,,,,528,19,Woman,Right,1,27,0.4,2,180,0,0,0.37032840000028955,['y'],1.2628757999991649,2.0,792.5357337000023,,,,,528,19,Woman,Right,
,,,,,,,,,,,,,,,,,528,19,Woman,Right,1,56,0.15,1,0,-,180,0.9372124999936204,['n'],0.5117285000014817,1.696,796.8857873000015,,,,,528,19,Woman,Right,
,,,,,,,,,,,,,,,,,528,19,Woman,Right,1,73,0.15,2,0,180,180,0.596432400001504,['y'],0.7908563000019058,1.85,801.0517187000005,,,,,528,19,Woman,Right,
,,,,,,,,,,,,,,,,,528,19,Woman,Right,1,62,0.15,1,180,-,180,0.4642840000014985,['n'],1.7193011999988812,2.0,805.9359461000058,,,,,528,19,Woman,Right,
,,,,,,,,,,,,,,,,,528,19,Woman,Right,1,6,1,1,180,-,180,0.4176337999961106,['n'],1.2154363999943598,2.0,810.2360909999989,,,,,528,19,Woman,Right,
,,,,,,,,,,,,,,,,,528,19,Woman,Right,1,29,0.4,2,0,180,180,0.42266989999916404,['n'],2.518989899996086,2.0,815.8184646000009,,,,,528,19,Woman,Right,
,,,,,,,,,,,,,,,,,528,19,Woman,Right,1,65,0.15,2,0,180,180,0.479214699997101,['y'],1.0947515000007115,2.0,820.0018560000026,,,,,528,19,Woman,Right,
,,,,,,,,,,,,,,,,,528,19,Woman,Right,1,58,0.15,1,180,-,180,0.7262738999997964,['n'],1.5682760999989114,2.0,825.0521723999991,,,,,528,19,Woman,Right,
,,,,,,,,,,,,,,,,,528,19,Woman,Right,1,4,1,1,0,-,0,0.38109769999573473,['n'],3.5511868000030518,2.0,832.3854247999989,,,,,528,19,Woman,Right,
,,,,,,,,,,,,,,,,,528,19,Woman,Right,1,36,0.4,1,0,-,0,0.3635783999998239,['n'],0.975583599996753,2.0,836.2185109000056,,,,,528,19,Woman,Right,
,,,,,,,,,,,,,,,,,528,19,Woman,Right,1,61,0.15,2,0,180,180,0.3002109000008204,['y'],1.5348899000018719,1.862,841.1694427000039,,,,,528,19,Woman,Right,
,,,,,,,,,,,,,,,,,528,19,Woman,Right,1,67,0.15,2,180,0,0,0.5998056999960681,['y'],2.8956572999886703,2.0,847.3353791000045,,,,,528,19,Woman,Right,
,,,,,,,,,,,,,,,,,528,19,Woman,Right,1,7,1,2,180,0,0,0.38365709999925457,['y'],4.568008999995072,2.0,855.3192425000088,,,,,528,19,Woman,Right,
,,,,,,,,,,,,,,,,,528,19,Woman,Right,1,32,0.4,1,0,-,0,1.209008799996809,['n'],0.7516936000029091,2.0,859.8854362000056,,,,,528,19,Woman,Right,
,,,,,,,,,,,,,,,,,528,19,Woman,Right,1,40,0.4,1,0,-,0,0.36841460000141524,['n'],1.055562399997143,1.8439999999999999,863.9192765999978,,,,,528,19,Woman,Right,
,,,,,,,,,,,,,,,,,528,19,Woman,Right,1,71,0.15,2,180,0,0,0.5455109999893466,['n'],2.7441428000020096,2.0,870.6518542000049,,,,,528,19,Woman,Right,
,,,,,,,,,,,,,,,,,528,19,Woman,Right,1,66,0.15,1,180,-,180,0.3164376000058837,['n'],0.6308004000020446,2.0,874.2029113999961,,,,,528,19,Woman,Right,
,,,,,,,,,,,,,,,,,528,19,Woman,Right,1,68,0.15,1,0,-,180,0.7428068000008352,['n'],0.7195409999985714,1.836,879.7018617000067,,,,,528,19,Woman,Right,
,,,,,,,,,,,,,,,,,528,19,Woman,Right,1,1,1,2,0,180,180,0.3455264000076568,['y'],5.022931899991818,2.0,888.6351875000037,,,,,528,19,Woman,Right,
,,,,,,,,,,,,,,,,,528,19,Woman,Right,1,37,0.4,2,0,180,180,0.29466810000303667,['y'],1.2711046999902464,1.992,892.8031425000008,,,,,528,19,Woman,Right,
,,,,,,,,,,,,,,,,,528,19,Woman,Right,1,50,0.15,1,180,-,180,1.0256404999963706,['n'],1.8636024000006728,2.0,898.6359892999972,,,,,528,19,Woman,Right,
,,,,,,,,,,,,,,,,,528,19,Woman,Right,1,26,0.4,1,180,-,180,0.5980897999979788,['n'],0.5595841000031214,1.698,902.5360586999959,,,,,528,19,Woman,Right,
,,,,,,,,,,,,,,,,,528,19,Woman,Right,1,25,0.4,2,0,180,180,0.44809520000126213,['y'],0.8559232999978121,2.0,906.2528474000064,,,,,528,19,Woman,Right,
,,,,,,,,,,,,,,,,,528,19,Woman,Right,1,30,0.4,1,180,-,180,0.2858900999999605,['n'],0.9679924999945797,2.0,909.9018473999968,,,,,528,19,Woman,Right,
,,,,,,,,,,,,,,,,,528,19,Woman,Right,1,23,0.4,2,180,0,0,0.4998395000002347,['y'],0.8381700000027195,2.0,913.7520318999959,,,,,528,19,Woman,Right,
,,,,,,,,,,,,,,,,,528,19,Woman,Right,1,17,0.4,2,0,180,180,0.4631043999979738,['y'],1.31164980000176,2.0,918.0520023000063,,,,,528,19,Woman,Right,
,,,,,,,,,,,,,,,,,528,19,Woman,Right,1,0,1,1,0,-,0,0.2831404000025941,['n'],0.5831939999916358,2.0,921.6520650000093,,,,,528,19,Woman,Right,
,,,,,,,,,,,,,,,,,528,19,Woman,Right,1,14,0.4,1,180,-,180,0.3160866999969585,['n'],1.247316499997396,2.0,925.9694911000042,,,,,528,19,Woman,Right,
,,,,,,,,,,,,,,,,,528,19,Woman,Right,1,3,1,2,180,0,0,0.34660260000964627,['n'],1.4635880999994697,2.0,930.9359737999985,,,,,528,19,Woman,Right,
,,,,,,,,,,,,,,,,,528,19,Woman,Right,1,33,0.4,2,0,180,180,0.4255782999971416,['y'],1.462754699998186,2.0,935.3196742000073,,,,,528,19,Woman,Right,
,,,,,,,,,,,,,,,,,528,19,Woman,Right,1,45,0.15,2,0,180,180,1.9049939999968046,['n'],0.655530700008967,1.3,940.4353359000015,,,,,528,19,Woman,Right,
,,,,,,,,,,,,,,,,,528,19,Woman,Right,1,38,0.4,1,180,-,180,0.7310980999900494,['n'],2.5361182000051485,1.232,952.336346300006,,,,,528,19,Woman,Right,
,,,,,,,,,,,,,,,,,528,19,Woman,Right,1,43,0.4,2,180,0,0,1.8487843000038993,['y'],1.2156473999930313,2.0,960.2353718000013,,,,,528,19,Woman,Right,
,,,,,,,,,,,,,,,,,528,19,Woman,Right,1,75,0.15,2,180,0,180,3.248331299997517,['n'],1.7750233000115259,1.666,968.2695263999994,,,,,528,19,Woman,Right,
,,,,,,,,,,,,,,,,,528,19,Woman,Right,1,20,0.4,1,0,-,0,0.8072019999963231,['n'],1.2159637000004295,1.294,972.7521821000046,,,,,528,19,Woman,Right,
,,,,,,,,,,,,,,,,,528,19,Woman,Right,1,16,0.4,1,0,-,0,0.38129530000151135,['n'],0.974986799992621,1.706,977.4194578999959,,,,,528,19,Woman,Right,
,,,,,,,,,,,,,,,,,528,19,Woman,Right,1,13,0.4,2,0,180,0,2.663186500009033,['n'],1.1755058000126155,1.244,984.0861266000065,,,,,528,19,Woman,Right,
,,,,,,,,,,,,,,,,,528,19,Woman,Right,1,11,0.4,2,180,0,0,1.4513806000031764,['y'],1.022867200008477,1.726,989.9353451999996,,,,,528,19,Woman,Right,
,,,,,,,,,,,,,,,,,528,19,Woman,Right,1,10,0.4,1,180,-,180,0.28932050000003073,['n'],0.8638132999913068,1.72,993.8353893000094,,,,,528,19,Woman,Right,
,,,,,,,,,,,,,,,,,528,19,Woman,Right,1,19,0.4,2,180,0,0,0.2296113000047626,['y'],0.718711199995596,2.0,997.2531634999978,,,,,528,19,Woman,Right,
,,,,,,,,,,,,,,,,,528,19,Woman,Right,1,69,0.15,2,0,180,180,2.9168042999954196,['n'],1.1744790999946417,1.716,1003.9028892999995,,,,,528,19,Woman,Right,
,,,,,,,,,,,,,,,,,528,19,Woman,Right,1,9,0.4,2,0,180,180,0.9333818000013707,['y'],7.127166699996451,1.25,1014.8539941999989,,,,,528,19,Woman,Right,
,,,,,,,,,,,,,,,,,528,19,Woman,Right,1,21,0.4,2,0,180,180,0.2550134000048274,['y'],0.7909404999954859,2.0,1018.2865463999988,,,,,528,19,Woman,Right,
,,,,,,,,,,,,,,,,,528,19,Woman,Right,1,79,0.15,2,180,0,180,0.6767613999982132,['n'],0.8072080999991158,1.246,1023.7197894000055,,,,,528,19,Woman,Right,
,,,,,,,,,,,,,,,,,528,19,Woman,Right,1,42,0.4,1,180,-,180,0.33342670000274666,['n'],0.8948406999988947,1.6179999999999999,1027.418844000007,,,,,528,19,Woman,Right,
,,,,,,,,,,,,,,,,,528,19,Woman,Right,1,51,0.15,2,180,0,180,0.8481386000057682,['n'],0.9513821000000462,1.788,1031.6856808000084,,,,,528,19,Woman,Right,
,,,,,,,,,,,,,,,,,528,19,Woman,Right,1,49,0.15,2,0,180,0,1.0360117000091122,['n'],0.8072687999956543,1.806,1038.2688381999978,,,,,528,19,Woman,Right,
,,,,,,,,,,,,,,,,,528,19,Woman,Right,1,47,0.15,2,180,0,180,0.8341901999956463,['n'],0.8552960999950301,1.278,1043.319276000002,,,,,528,19,Woman,Right,
,,,,,,,,,,,,,,,,,528,19,Woman,Right,1,2,1,1,180,-,180,0.2610895999969216,['n'],1.039199799997732,2.0,1047.102286900008,,,,,528,19,Woman,Right,
,,,,,,,,,,,,,,,,,528,19,Woman,Right,1,48,0.15,1,0,-,180,0.6518353999999817,['n'],3.310485099995276,1.568,1053.836340300004,,,,,528,19,Woman,Right,
,,,,,,,,,,,,,,,,,528,19,Woman,Right,1,28,0.4,1,0,-,0,0.8761820999934571,['n'],0.7280487999960314,1.786,1058.136629499997,,,,,528,19,Woman,Right,
,,,,,,,,,,,,,,,,,528,19,Woman,Right,1,63,0.15,2,180,0,180,8.099180699995486,['n'],1.0710974999965401,1.12,1071.3196037000089,,,,,528,19,Woman,Right,
,,,,,,,,,,,,,,,,,528,19,Woman,Right,1,55,0.15,2,180,0,180,0.5715494000032777,['n'],1.1348734000057448,1.346,1076.4864487000086,,,,,528,19,Woman,Right,
,,,,,,,,,,,,,,,,,528,19,Woman,Right,1,18,0.4,1,180,-,180,1.0884943999990355,['n'],2.0794124999956694,1.946,1085.318914399999,,,,,528,19,Woman,Right,
,,,,,,,,,,,,,,,,,528,19,Woman,Right,1,44,0.15,1,0,-,180,0.6701672000053804,['n'],0.5756289999990258,1.318,1089.6525771000088,,,,,528,19,Woman,Right,
,,,,,,,,,,,,,,,,,528,19,Woman,Right,1,12,0.4,1,0,-,180,0.4799384999932954,['y'],0.6715480999991996,2.0,1093.803046100009,,,,,528,19,Woman,Right,
,,,,,,,,,,,,,,,,,528,19,Woman,Right,1,52,0.15,1,0,-,180,0.4729922999977134,['y'],1.6151620000018738,1.306,1098.9022828000088,,,,,528,19,Woman,Right,
,,,,,,,,,,,,,,,,,528,19,Woman,Right,1,31,0.4,2,180,0,0,0.6256816999957664,['y'],0.8318146999954479,2.0,1102.853131799995,,,,,528,19,Woman,Right,
,,,,,,,,,,,,,,,,,528,19,Woman,Right,1,39,0.4,2,180,0,0,0.6689801999891642,['y'],1.4631745999940904,1.984,1107.902448300003,,,,,528,19,Woman,Right,
,,,,,,,,,,,,,,,,,528,19,Woman,Right,1,53,0.15,2,0,180,180,0.7252049999951851,['n'],0.4876135999948019,1.236,1113.1028703999982,,,,,528,19,Woman,Right,
,,,,,,,,,,,,,,,,,528,19,Woman,Right,1,46,0.15,1,180,-,0,1.7325973999977577,['y'],0.4637360000051558,1.23,1118.0690256000016,,,,,528,19,Woman,Right,
,,,,,,,,,,,,,,,,,528,19,Woman,Right,1,76,0.15,1,0,-,0,0.9686383000080241,['n'],0.719974200008437,1.31,1122.6024459999971,,,,,528,19,Woman,Right,
,,,,,,,,,,,,,,,,,528,19,Woman,Right,1,59,0.15,2,180,0,0,0.8303740999981528,['y'],0.5277143999992404,1.584,1127.519026700007,,,,,528,19,Woman,Right,
,,,,,,,,,,,,,,,,,528,19,Woman,Right,1,70,0.15,1,180,-,0,0.41071840000222437,['y'],0.45475940000324044,1.616,1131.5030118000068,,,,,528,19,Woman,Right,
,,,,,,,,,,,,,,,,,528,19,Woman,Right,1,78,0.15,1,180,-,0,2.146760500007076,['y'],0.6079912999994121,1.286,1136.7203642000022,,,,,528,19,Woman,Right,
,,,,,,,,,,,,,,,,,528,19,Woman,Right,1,60,0.15,1,0,-,180,0.4355496000061976,['y'],0.8237633000098867,1.646,1141.5369477999993,,,,,528,19,Woman,Right,
,,,,,,,,,,,,,,,,,528,19,Woman,Right,1,5,1,2,0,180,180,0.14632020000135526,['y'],1.175338200002443,1.718,1145.2857372000071,,,,,528,19,Woman,Right,
,,,,,,,,,,,,,,,,,528,19,Woman,Right,1,8,0.4,1,0,-,0,0.753435199992964,['n'],1.0154321000009077,1.616,1149.8527669999967,,,,,528,19,Woman,Right,
,,,,,,,,,,,,,,,,,528,19,Woman,Right,1,77,0.15,2,0,180,0,0.6526675000059186,['y'],1.215668699995149,1.7,1155.4024988000092,,,,,528,19,Woman,Right,
,,,,,,,,,,,,,,,,,528,19,Woman,Right,1,24,0.4,1,0,-,0,0.648237400004291,['n'],0.8151570000045467,1.672,1161.3208486000003,,,,,528,19,Woman,Right,
,,,,,,,,,,,,,,,,,528,19,Woman,Right,1,41,0.4,2,0,180,180,0.1690326000098139,['n'],2.2793619000003673,1.776,1167.002517000008,,,,,528,19,Woman,Right,
,,,,,,,,,,,,,,,,,528,19,Woman,Right,1,72,0.15,1,0,-,180,1.590712999997777,['n'],0.8717660999973305,1.208,1172.1699117000026,,,,,528,19,Woman,Right,
,,,,,,,,,,,,,,,,,528,19,Woman,Right,2,2,1,1,180,-,180,0.34151919999567326,['n'],0.8154646000039065,2.0,1217.1535497000077,73.75,85.0,57.5,,528,19,Woman,Right,
,,,,,,,,,,,,,,,,,528,19,Woman,Right,2,64,0.15,1,0,-,180,2.0378023000084795,['y'],0.5195819000073243,1.3559999999999999,1223.053691000001,,,,,528,19,Woman,Right,
,,,,,,,,,,,,,,,,,528,19,Woman,Right,2,76,0.15,1,0,-,180,0.39812569999776315,['y'],0.6477589999994962,1.756,1226.6878808999973,,,,,528,19,Woman,Right,
,,,,,,,,,,,,,,,,,528,19,Woman,Right,2,29,0.4,2,0,180,180,1.2361482999986038,['n'],0.5197613999916939,1.248,1231.3367478000073,,,,,528,19,Woman,Right,
,,,,,,,,,,,,,,,,,528,19,Woman,Right,2,18,0.4,1,180,-,180,0.23505700001260266,['n'],0.7191301999991992,2.0,1234.8373167000027,,,,,528,19,Woman,Right,
,,,,,,,,,,,,,,,,,528,19,Woman,Right,2,47,0.15,2,180,0,0,0.6359599999996135,['y'],1.8479546000016853,2.0,1234.8373167000027,,,,,528,19,Woman,Right,
,,,,,,,,,,,,,,,,,528,19,Woman,Right,2,43,0.4,2,180,0,0,0.2675874999986263,['y'],0.6633254000043962,2.0,1243.386114300003,,,,,528,19,Woman,Right,
,,,,,,,,,,,,,,,,,528,19,Woman,Right,2,37,0.4,2,0,180,180,0.2807652999908896,['y'],1.3115583000035258,2.0,1247.5532415999987,,,,,528,19,Woman,Right,
,,,,,,,,,,,,,,,,,528,19,Woman,Right,2,62,0.15,1,180,-,180,0.663468600003398,['n'],0.39111709999269806,2.0,1251.0697542000053,,,,,528,19,Woman,Right,
,,,,,,,,,,,,,,,,,528,19,Woman,Right,2,12,0.4,1,0,-,0,0.8756587999960175,['n'],0.4709526999940863,1.74,1255.1372195000076,,,,,528,19,Woman,Right,
,,,,,,,,,,,,,,,,,528,19,Woman,Right,2,53,0.15,2,0,180,180,0.24832349999633152,['y'],1.4317290999897523,2.0,1259.2028645000028,,,,,528,19,Woman,Right,
,,,,,,,,,,,,,,,,,528,19,Woman,Right,2,50,0.15,1,180,-,180,0.32635219999065157,['n'],0.8158491000067443,2.0,1262.6861843000006,,,,,528,19,Woman,Right,
,,,,,,,,,,,,,,,,,528,19,Woman,Right,2,66,0.15,1,180,-,180,0.7284787999960827,['n'],0.7518479999998817,1.678,1266.7201950999952,,,,,528,19,Woman,Right,
,,,,,,,,,,,,,,,,,528,19,Woman,Right,2,19,0.4,2,180,0,0,0.5320277999999234,['y'],1.0314571999915643,2.0,1270.803808699995,,,,,528,19,Woman,Right,
,,,,,,,,,,,,,,,,,528,19,Woman,Right,2,67,0.15,2,180,0,180,0.37259550001181196,['y'],2.327252100003534,1.0,1277.2201252000013,,,,,528,19,Woman,Right,
,,,,,,,,,,,,,,,,,528,19,Woman,Right,2,35,0.4,2,180,0,0,0.532393499990576,['y'],0.5994506999995792,2.0,1281.1696445000052,,,,,528,19,Woman,Right,
,,,,,,,,,,,,,,,,,528,19,Woman,Right,2,32,0.4,1,0,-,0,0.693897899996955,['n'],0.9512728999980027,1.3780000000000001,1286.1026688000056,,,,,528,19,Woman,Right,
,,,,,,,,,,,,,,,,,528,19,Woman,Right,2,52,0.15,1,0,-,0,1.2761044999933802,['y'],0.6640891999995802,1.294,1291.1035579999952,,,,,528,19,Woman,Right,
,,,,,,,,,,,,,,,,,528,19,Woman,Right,2,14,0.4,1,180,-,180,0.4085749000078067,['n'],0.8952446000039345,1.63,1296.4361175000013,,,,,528,19,Woman,Right,
,,,,,,,,,,,,,,,,,528,19,Woman,Right,2,11,0.4,2,180,0,0,0.24394780000147875,['y'],1.7597429000015836,2.0,1301.053871300006,,,,,528,19,Woman,Right,
,,,,,,,,,,,,,,,,,528,19,Woman,Right,2,7,1,2,180,0,0,0.2876663999923039,['y'],0.6877442999975756,2.0,1304.420135100001,,,,,528,19,Woman,Right,
,,,,,,,,,,,,,,,,,528,19,Woman,Right,2,58,0.15,1,180,-,180,0.5274708999932045,['n'],0.704013099995791,1.734,1308.3527715000018,,,,,528,19,Woman,Right,
,,,,,,,,,,,,,,,,,528,19,Woman,Right,2,57,0.15,2,0,180,180,0.9058253999974113,['y'],0.8877523999981349,1.81,1313.420374500005,,,,,528,19,Woman,Right,
,,,,,,,,,,,,,,,,,528,19,Woman,Right,2,24,0.4,1,0,-,180,2.5916101000038907,['n'],0.8552087999996729,1.6520000000000001,1319.7028005999964,,,,,528,19,Woman,Right,
,,,,,,,,,,,,,,,,,528,19,Woman,Right,2,46,0.15,1,180,-,180,0.388525699992897,['n'],2.183401900008903,1.824,1325.1535671999955,,,,,528,19,Woman,Right,
,,,,,,,,,,,,,,,,,528,19,Woman,Right,2,45,0.15,2,0,180,0,1.8662124000111362,['y'],1.1680972999893129,1.742,1331.3529993000047,,,,,528,19,Woman,Right,
,,,,,,,,,,,,,,,,,528,19,Woman,Right,2,26,0.4,1,180,-,180,0.6556061000010232,['n'],0.8475996000051964,1.68,1335.1694648000048,,,,,528,19,Woman,Right,
,,,,,,,,,,,,,,,,,528,19,Woman,Right,2,75,0.15,2,180,0,180,0.6142657000018517,['n'],0.5595979999925476,1.68,1338.769829200006,,,,,528,19,Woman,Right,
,,,,,,,,,,,,,,,,,528,19,Woman,Right,2,10,0.4,1,180,-,180,0.22729890000482555,['n'],0.5996999999915715,1.862,1343.3037869000036,,,,,528,19,Woman,Right,
,,,,,,,,,,,,,,,,,528,19,Woman,Right,2,56,0.15,1,0,-,0,0.016887299992959015,['n'],2.64832400000887,1.6219999999999999,1349.0701068999988,,,,,528,19,Woman,Right,
,,,,,,,,,,,,,,,,,528,19,Woman,Right,2,78,0.15,1,180,-,180,1.8184531000006245,['n'],1.0235344999964582,1.288,1354.7362046999988,,,,,528,19,Woman,Right,
,,,,,,,,,,,,,,,,,528,19,Woman,Right,2,5,1,2,0,180,180,0.8299987999926088,['y'],1.200097500011907,2.0,1359.370534499998,,,,,528,19,Woman,Right,
,,,,,,,,,,,,,,,,,528,19,Woman,Right,2,8,0.4,1,0,-,0,0.4904251999978442,['n'],0.6880872000037925,1.738,1363.4369615999967,,,,,528,19,Woman,Right,
,,,,,,,,,,,,,,,,,528,19,Woman,Right,2,59,0.15,2,180,0,180,2.380084300006274,['n'],1.3749032000050647,1.754,1369.5870113000055,,,,,528,19,Woman,Right,
,,,,,,,,,,,,,,,,,528,19,Woman,Right,2,25,0.4,2,0,180,180,0.8761002000101143,['y'],0.4559893999976339,2.0,1373.4530818999992,,,,,528,19,Woman,Right,
,,,,,,,,,,,,,,,,,528,19,Woman,Right,2,68,0.15,1,0,-,0,0.5096578000084264,['n'],0.6552988000039477,1.884,1377.5041011000067,,,,,528,19,Woman,Right,
,,,,,,,,,,,,,,,,,528,19,Woman,Right,2,20,0.4,1,0,-,0,1.9117826000001514,['n'],0.49565009999787435,1.6059999999999999,1382.737014899998,,,,,528,19,Woman,Right,
,,,,,,,,,,,,,,,,,528,19,Woman,Right,2,16,0.4,1,0,-,180,0.4647250999987591,['y'],0.8150661999970907,1.45,1387.4205147999965,,,,,528,19,Woman,Right,
,,,,,,,,,,,,,,,,,528,19,Woman,Right,2,4,1,1,0,-,0,0.4274195000034524,['n'],0.8154145000007702,1.8820000000000001,1392.1196160000036,,,,,528,19,Woman,Right,
,,,,,,,,,,,,,,,,,528,19,Woman,Right,2,15,0.4,2,180,0,0,0.3498245999944629,['y'],0.8554318999958923,2.0,1395.986643300006,,,,,528,19,Woman,Right,
,,,,,,,,,,,,,,,,,528,19,Woman,Right,2,34,0.4,1,180,-,180,0.6708324999926845,['n'],0.6231096999981673,1.998,1400.0037168000053,,,,,528,19,Woman,Right,
,,,,,,,,,,,,,,,,,528,19,Woman,Right,2,61,0.15,2,0,180,180,0.3950258999975631,['y'],1.8555567000003066,2.0,1404.8864061999993,,,,,528,19,Woman,Right,
,,,,,,,,,,,,,,,,,528,19,Woman,Right,2,39,0.4,2,180,0,0,0.38414160000684205,['y'],0.7041596000053687,2.0,1408.5697110999972,,,,,528,19,Woman,Right,
,,,,,,,,,,,,,,,,,528,19,Woman,Right,2,48,0.15,1,0,-,0,0.6791436999919824,['n'],1.5119386000005761,2.0,1414.1364452000053,,,,,528,19,Woman,Right,
,,,,,,,,,,,,,,,,,528,19,Woman,Right,2,60,0.15,1,0,-,0,0.5194096000050195,['n'],1.263269399991259,2.0,1418.1865386000063,,,,,528,19,Woman,Right,
,,,,,,,,,,,,,,,,,528,19,Woman,Right,2,13,0.4,2,0,180,180,0.39919880000525154,['y'],0.5832281000039075,2.0,1422.053711499997,,,,,528,19,Woman,Right,
,,,,,,,,,,,,,,,,,528,19,Woman,Right,2,30,0.4,1,180,-,180,0.40977559999737423,['n'],3.3188910000026226,2.0,1428.4206945999977,,,,,528,19,Woman,Right,
,,,,,,,,,,,,,,,,,528,19,Woman,Right,2,28,0.4,1,0,-,0,0.3351552999956766,['y'],0.7037267999985488,1.004,1433.637150500006,,,,,528,19,Woman,Right,
,,,,,,,,,,,,,,,,,528,19,Woman,Right,2,70,0.15,1,180,-,180,0.8417155999923125,['n'],0.3514121000043815,2.0,1437.553063300009,,,,,528,19,Woman,Right,
,,,,,,,,,,,,,,,,,528,19,Woman,Right,2,44,0.15,1,0,-,0,0.7078579000080936,['n'],0.7923807000042871,1.472,1442.1030163000032,,,,,528,19,Woman,Right,
,,,,,,,,,,,,,,,,,528,19,Woman,Right,2,27,0.4,2,180,0,0,0.3067701000109082,['y'],0.41508960000646766,2.0,1445.2538944000044,,,,,528,19,Woman,Right,
,,,,,,,,,,,,,,,,,528,19,Woman,Right,2,3,1,2,180,0,0,0.3806872999994084,['y'],1.6075498999998672,2.0,1449.6698513000083,,,,,528,19,Woman,Right,
,,,,,,,,,,,,,,,,,528,19,Woman,Right,2,33,0.4,2,0,180,180,0.9867225000052713,['y'],0.5439723999879789,2.0,1453.6033699000036,,,,,528,19,Woman,Right,
,,,,,,,,,,,,,,,,,528,19,Woman,Right,2,73,0.15,2,0,180,180,2.8600287000008393,['y'],1.0869789000134915,1.16,1460.819713500001,,,,,528,19,Woman,Right,
,,,,,,,,,,,,,,,,,528,19,Woman,Right,2,22,0.4,1,180,-,180,0.3319492000009632,['n'],1.2395875000074739,1.8599999999999999,1465.1370667000083,,,,,528,19,Woman,Right,
,,,,,,,,,,,,,,,,,528,19,Woman,Right,2,72,0.15,1,0,-,180,2.3006708000029903,['y'],1.1027938000042923,1.06,1472.3541001000049,,,,,528,19,Woman,Right,
,,,,,,,,,,,,,,,,,528,19,Woman,Right,2,23,0.4,2,180,0,0,0.3060953999956837,['y'],0.8070724999997765,1.954,1475.7874223000035,,,,,528,19,Woman,Right,
,,,,,,,,,,,,,,,,,528,19,Woman,Right,2,79,0.15,2,180,0,0,0.24807020000298508,['y'],0.8320854000048712,2.0,1479.3698403999952,,,,,528,19,Woman,Right,
,,,,,,,,,,,,,,,,,528,19,Woman,Right,2,1,1,2,0,180,180,0.303094200004125,['y'],0.7274036999879172,2.0,1482.803459499999,,,,,528,19,Woman,Right,
,,,,,,,,,,,,,,,,,528,19,Woman,Right,2,51,0.15,2,180,0,180,0.4991719999961788,['n'],0.5677161000057822,1.838,1486.3866682000007,,,,,528,19,Woman,Right,
,,,,,,,,,,,,,,,,,528,19,Woman,Right,2,42,0.4,1,180,-,180,0.2741161000012653,['y'],0.7361499999969965,1.0,1490.8706746000025,,,,,528,19,Woman,Right,
,,,,,,,,,,,,,,,,,528,19,Woman,Right,2,65,0.15,2,0,180,180,1.2092408000025898,['y'],0.7913973000104306,1.6059999999999999,1496.3373787000091,,,,,528,19,Woman,Right,
,,,,,,,,,,,,,,,,,528,19,Woman,Right,2,49,0.15,2,0,180,0,0.9578354999976,['n'],0.8638557000085711,1.1360000000000001,1501.9038878000065,,,,,528,19,Woman,Right,
,,,,,,,,,,,,,,,,,528,19,Woman,Right,2,6,1,1,180,-,180,0.2640975999966031,['n'],0.9441653999965638,1.986,1505.6038924999957,,,,,528,19,Woman,Right,
,,,,,,,,,,,,,,,,,528,19,Woman,Right,2,74,0.15,1,180,-,0,2.089629199996125,['y'],0.8232538000011118,1.0,1511.3202805999972,,,,,528,19,Woman,Right,
,,,,,,,,,,,,,,,,,528,19,Woman,Right,2,38,0.4,1,180,-,180,0.26770009999745525,['n'],0.5191925999970408,2.0,1514.570074299998,,,,,528,19,Woman,Right,
,,,,,,,,,,,,,,,,,528,19,Woman,Right,2,71,0.15,2,180,0,180,1.0939378000039142,['n'],1.0396036000020104,1.328,1519.3042606000017,,,,,528,19,Woman,Right,
,,,,,,,,,,,,,,,,,528,19,Woman,Right,2,41,0.4,2,0,180,180,0.525450599991018,['y'],0.8314663000055589,2.0,1523.0536098000084,,,,,528,19,Woman,Right,
,,,,,,,,,,,,,,,,,528,19,Woman,Right,2,54,0.15,1,180,-,180,1.4280717999936314,['n'],0.694933899998432,1.708,1528.1866185000035,,,,,528,19,Woman,Right,
,,,,,,,,,,,,,,,,,528,19,Woman,Right,2,40,0.4,1,0,-,0,0.3189935999980662,['n'],1.7362595000013243,1.796,1533.1875366999957,,,,,528,19,Woman,Right,
,,,,,,,,,,,,,,,,,528,19,Woman,Right,2,21,0.4,2,0,180,180,0.3220646000117995,['y'],2.1118329000019003,2.0,1538.3036154000074,,,,,528,19,Woman,Right,
,,,,,,,,,,,,,,,,,528,19,Woman,Right,2,0,1,1,0,-,0,0.20315149999805726,['n'],0.5594810000038706,2.0,1541.4533556000024,,,,,528,19,Woman,Right,
,,,,,,,,,,,,,,,,,528,19,Woman,Right,2,36,0.4,1,0,-,0,1.3627785999997286,['n'],0.7516157000063686,1.706,1546.8868961000044,,,,,528,19,Woman,Right,
,,,,,,,,,,,,,,,,,528,19,Woman,Right,2,69,0.15,2,0,180,180,1.216201800009003,['n'],0.6953139999968698,1.556,1553.1704131000079,,,,,528,19,Woman,Right,
,,,,,,,,,,,,,,,,,528,19,Woman,Right,2,31,0.4,2,180,0,0,0.7274804999906337,['y'],0.711763700004667,2.0,1558.054217799996,,,,,528,19,Woman,Right,
,,,,,,,,,,,,,,,,,528,19,Woman,Right,2,63,0.15,2,180,0,0,0.283722599997418,['y'],0.6548694999946747,2.0,1561.5866653000048,,,,,528,19,Woman,Right,
,,,,,,,,,,,,,,,,,528,19,Woman,Right,2,17,0.4,2,0,180,180,0.5413126999919768,['y'],0.9602338999975473,2.0,1565.5032864000023,,,,,528,19,Woman,Right,
,,,,,,,,,,,,,,,,,528,19,Woman,Right,2,77,0.15,2,0,180,180,0.7350312999915332,['y'],0.3032692999986466,2.0,1568.8369094000009,,,,,528,19,Woman,Right,
,,,,,,,,,,,,,,,,,528,19,Woman,Right,2,9,0.4,2,0,180,180,0.22585610000533052,['y'],0.3353415000019595,2.0,1571.8042055000042,,,,,528,19,Woman,Right,
,,,,,,,,,,,,,,,,,528,19,Woman,Right,2,55,0.15,2,180,0,180,0.6368214999965858,['n'],1.119817899991176,1.642,1576.8867362000092,,,,,528,19,Woman,Right,
,,,,,,,,,,,,,,,,,528,19,Woman,Right,3,18,0.4,1,180,-,0,2.046794299996691,['y'],0.6881904999900144,1.266,1585.3042547000005,82.5,80.0,80.0,,528,19,Woman,Right,
,,,,,,,,,,,,,,,,,528,19,Woman,Right,3,46,0.15,1,180,-,180,0.32761829999799374,['n'],1.1992490000120597,1.692,1589.3866884999952,,,,,528,19,Woman,Right,
,,,,,,,,,,,,,,,,,528,19,Woman,Right,3,17,0.4,2,0,180,180,0.2404508000036003,['y'],1.8394758999929763,1.966,1593.8701195999965,,,,,528,19,Woman,Right,
,,,,,,,,,,,,,,,,,528,19,Woman,Right,3,56,0.15,1,0,-,0,0.49049929999455344,['n'],0.7193068999913521,1.428,1598.4367254000026,,,,,528,19,Woman,Right,
,,,,,,,,,,,,,,,,,528,19,Woman,Right,3,7,1,2,180,0,0,0.256927700000233,['y'],0.4164355999964755,2.0,1601.6876707999982,,,,,528,19,Woman,Right,
,,,,,,,,,,,,,,,,,528,19,Woman,Right,3,78,0.15,1,180,-,180,1.0838554999936605,['n'],0.4803976999974111,1.918,1606.7367538000035,,,,,528,19,Woman,Right,
,,,,,,,,,,,,,,,,,528,19,Woman,Right,3,35,0.4,2,180,0,0,0.42817379999905825,['y'],0.6153752999962308,2.0,1610.7203861999951,,,,,528,19,Woman,Right,
,,,,,,,,,,,,,,,,,528,19,Woman,Right,3,54,0.15,1,180,-,0,1.962408300008974,['y'],0.7111144000082277,1.298,1616.3201246000026,,,,,528,19,Woman,Right,
,,,,,,,,,,,,,,,,,528,19,Woman,Right,3,28,0.4,1,0,-,0,0.5536070999951335,['y'],0.6074879999941913,1.0,1620.304108000004,,,,,528,19,Woman,Right,
,,,,,,,,,,,,,,,,,528,19,Woman,Right,3,1,1,2,0,180,180,0.35344270001223776,['y'],2.823455300007481,2.0,1626.904416199999,,,,,528,19,Woman,Right,
,,,,,,,,,,,,,,,,,528,19,Woman,Right,3,48,0.15,1,0,-,0,0.6903086000093026,['n'],1.2798326000047382,2.0,1631.3202803999957,,,,,528,19,Woman,Right,
,,,,,,,,,,,,,,,,,528,19,Woman,Right,3,3,1,2,180,0,0,0.8898558999935631,['y'],0.5195803999959026,2.0,1635.204227800008,,,,,528,19,Woman,Right,
,,,,,,,,,,,,,,,,,528,19,Woman,Right,3,59,0.15,2,180,0,180,0.7651951000007102,['n'],1.7754183000070043,2.0,1640.0369947000072,,,,,528,19,Woman,Right,
,,,,,,,,,,,,,,,,,528,19,Woman,Right,3,20,0.4,1,0,-,0,1.2447475000080885,['n'],0.6717421000066679,1.854,1644.5702260000035,,,,,528,19,Woman,Right,
,,,,,,,,,,,,,,,,,528,19,Woman,Right,3,31,0.4,2,180,0,0,0.3614097999961814,['y'],0.6629086000029929,1.588,1647.8701939000093,,,,,528,19,Woman,Right,
,,,,,,,,,,,,,,,,,528,19,Woman,Right,3,50,0.15,1,180,-,180,0.5724162999977125,['n'],0.3670581000042148,1.8719999999999999,1652.2201742999969,,,,,528,19,Woman,Right,
,,,,,,,,,,,,,,,,,528,19,Woman,Right,3,65,0.15,2,0,180,180,0.990606100007426,['n'],0.606648300003144,1.784,1656.0543337000054,,,,,528,19,Woman,Right,
,,,,,,,,,,,,,,,,,528,19,Woman,Right,3,5,1,2,0,180,180,1.0099752999958582,['y'],0.47974799999792594,2.0,1660.2202934000015,,,,,528,19,Woman,Right,
,,,,,,,,,,,,,,,,,528,19,Woman,Right,3,33,0.4,2,0,180,180,0.8907569000002695,['y'],0.36774319999676663,2.0,1663.9536248000004,,,,,528,19,Woman,Right,
,,,,,,,,,,,,,,,,,528,19,Woman,Right,3,76,0.15,1,0,-,0,0.42381169999134727,['n'],1.0631584000075236,1.558,1668.1371565000081,,,,,528,19,Woman,Right,
,,,,,,,,,,,,,,,,,528,19,Woman,Right,3,73,0.15,2,0,180,180,0.8960790999990422,['n'],1.0235053000069456,1.5739999999999998,1673.3206127000085,,,,,528,19,Woman,Right,
,,,,,,,,,,,,,,,,,528,19,Woman,Right,3,11,0.4,2,180,0,0,0.5074041000043508,['y'],1.0319686000002548,2.0,1677.6203929999974,,,,,528,19,Woman,Right,
,,,,,,,,,,,,,,,,,528,19,Woman,Right,3,51,0.15,2,180,0,180,0.3041957000095863,['n'],3.671355600003153,1.6019999999999999,1684.4703029000011,,,,,528,19,Woman,Right,
,,,,,,,,,,,,,,,,,528,19,Woman,Right,3,37,0.4,2,0,180,180,0.683619200004614,['y'],0.4631563000002643,2.0,1687.9376468000046,,,,,528,19,Woman,Right,
,,,,,,,,,,,,,,,,,528,19,Woman,Right,3,32,0.4,1,0,-,0,0.48051249999844003,['n'],0.8558349999948405,2.0,1691.8703129999994,,,,,528,19,Woman,Right,
,,,,,,,,,,,,,,,,,528,19,Woman,Right,3,67,0.15,2,180,0,0,0.7060859000048367,['y'],0.5427856000023894,1.752,1695.570322499996,,,,,528,19,Woman,Right,
,,,,,,,,,,,,,,,,,528,19,Woman,Right,3,15,0.4,2,180,0,0,0.46734999999171123,['y'],0.5439208000025246,2.0,1699.2557968999972,,,,,528,19,Woman,Right,
,,,,,,,,,,,,,,,,,528,19,Woman,Right,3,49,0.15,2,0,180,180,0.5158117999962997,['n'],0.36752960000012536,1.822,1702.9377253000057,,,,,528,19,Woman,Right,
,,,,,,,,,,,,,,,,,528,19,Woman,Right,3,71,0.15,2,180,0,0,0.42304400001012255,['n'],1.0396644000138622,1.8559999999999999,1706.7703550000078,,,,,528,19,Woman,Right,
,,,,,,,,,,,,,,,,,528,19,Woman,Right,3,34,0.4,1,180,-,180,0.33319100001244806,['n'],0.6780556000012439,1.84,1710.670289499998,,,,,528,19,Woman,Right,
,,,,,,,,,,,,,,,,,528,19,Woman,Right,3,22,0.4,1,180,-,180,1.2092893000080949,['n'],1.6157593999960227,2.0,1715.7204197000028,,,,,528,19,Woman,Right,
,,,,,,,,,,,,,,,,,528,19,Woman,Right,3,4,1,1,0,-,0,0.26949039999453817,['n'],0.8627340999955777,2.0,1720.0880567000058,,,,,528,19,Woman,Right,
,,,,,,,,,,,,,,,,,528,19,Woman,Right,3,29,0.4,2,0,180,180,0.40505049999046605,['y'],0.5116350000025705,2.0,1723.287816899996,,,,,528,19,Woman,Right,
,,,,,,,,,,,,,,,,,528,19,Woman,Right,3,24,0.4,1,0,-,0,0.3596328999992693,['n'],0.6318365000042832,1.714,1727.4537368000092,,,,,528,19,Woman,Right,
,,,,,,,,,,,,,,,,,528,19,Woman,Right,3,52,0.15,1,0,-,0,0.3598426999960793,['n'],2.543383799988078,1.79,1733.4203530000013,,,,,528,19,Woman,Right,
,,,,,,,,,,,,,,,,,528,19,Woman,Right,3,14,0.4,1,180,-,180,0.1603596000059042,['n'],0.6069609999976819,1.626,1736.8706227000002,,,,,528,19,Woman,Right,
,,,,,,,,,,,,,,,,,528,19,Woman,Right,3,0,1,1,0,-,0,0.10704709999845363,['n'],0.7764176000055159,2.0,1740.3371086000043,,,,,528,19,Woman,Right,
,,,,,,,,,,,,,,,,,528,19,Woman,Right,3,6,1,1,180,-,180,0.5212004000059096,['n'],0.6555917999939993,2.0,1743.8038358999984,,,,,528,19,Woman,Right,
,,,,,,,,,,,,,,,,,528,19,Woman,Right,3,43,0.4,2,180,0,0,0.2675262999982806,['y'],0.8237975999945775,2.0,1747.2204285999978,,,,,528,19,Woman,Right,
,,,,,,,,,,,,,,,,,528,19,Woman,Right,3,19,0.4,2,180,0,0,0.1648270000005141,['y'],0.711384199996246,2.0,1750.6204364000077,,,,,528,19,Woman,Right,
,,,,,,,,,,,,,,,,,528,19,Woman,Right,3,10,0.4,1,180,-,180,0.3866684999957215,['n'],1.2477709999948274,1.284,1756.0204319999975,,,,,528,19,Woman,Right,
,,,,,,,,,,,,,,,,,528,19,Woman,Right,3,2,1,1,180,-,180,0.2880033999972511,['n'],0.5352630999987014,2.0,1759.2204454000093,,,,,528,19,Woman,Right,
,,,,,,,,,,,,,,,,,528,19,Woman,Right,3,36,0.4,1,0,-,0,1.4353977999999188,['n'],0.592094099993119,2.0,1763.5045661999975,,,,,528,19,Woman,Right,
,,,,,,,,,,,,,,,,,528,19,Woman,Right,3,62,0.15,1,180,-,180,1.855099499996868,['n'],1.0481001000007382,1.232,1768.8873639000012,,,,,528,19,Woman,Right,
,,,,,,,,,,,,,,,,,528,19,Woman,Right,3,74,0.15,1,180,-,180,0.37803659999917727,['y'],0.6077798999904189,1.75,1772.1205876000095,,,,,528,19,Woman,Right,
,,,,,,,,,,,,,,,,,528,19,Woman,Right,3,8,0.4,1,0,-,0,0.4407473999890499,['n'],1.0554702999943402,1.612,1776.7871801000074,,,,,528,19,Woman,Right,
,,,,,,,,,,,,,,,,,528,19,Woman,Right,3,27,0.4,2,180,0,0,0.38987600000109524,['y'],0.38389150000875816,2.0,1779.904968499999,,,,,528,19,Woman,Right,
,,,,,,,,,,,,,,,,,528,19,Woman,Right,3,57,0.15,2,0,180,180,0.27504020000924356,['n'],0.6393635999993421,2.0,1783.070777199995,,,,,528,19,Woman,Right,
,,,,,,,,,,,,,,,,,528,19,Woman,Right,3,41,0.4,2,0,180,180,0.3076603000081377,['y'],0.6476863999996567,2.0,1786.288105000007,,,,,528,19,Woman,Right,
,,,,,,,,,,,,,,,,,528,19,Woman,Right,3,38,0.4,1,180,-,180,0.4008451999980025,['n'],0.8323247999942396,1.996,1790.8539031000037,,,,,528,19,Woman,Right,
,,,,,,,,,,,,,,,,,528,19,Woman,Right,3,25,0.4,2,0,180,180,0.3940255000052275,['y'],0.7753240000020014,2.0,1794.4539337999959,,,,,528,19,Woman,Right,
,,,,,,,,,,,,,,,,,528,19,Woman,Right,3,39,0.4,2,180,0,0,0.22042910000891425,['y'],0.4239281000045594,2.0,1797.4873577000035,,,,,528,19,Woman,Right,
,,,,,,,,,,,,,,,,,528,19,Woman,Right,3,16,0.4,1,0,-,0,0.43094389999168925,['n'],0.6233151000051294,1.8940000000000001,1801.2371778000015,,,,,528,19,Woman,Right,
,,,,,,,,,,,,,,,,,528,19,Woman,Right,3,61,0.15,2,0,180,0,1.1516655000013998,['n'],0.9118206999992253,2.0,1806.0546897000095,,,,,528,19,Woman,Right,
,,,,,,,,,,,,,,,,,528,19,Woman,Right,3,68,0.15,1,0,-,0,2.3853860999952303,['n'],1.023722199999611,1.342,1812.4546603999988,,,,,528,19,Woman,Right,
,,,,,,,,,,,,,,,,,528,19,Woman,Right,3,45,0.15,2,0,180,180,1.2050618999928702,['y'],0.6713048999954481,1.38,1816.9882308000015,,,,,528,19,Woman,Right,
,,,,,,,,,,,,,,,,,528,19,Woman,Right,3,40,0.4,1,0,-,180,0.984081899994635,['y'],2.223630899999989,1.302,1822.6546116000027,,,,,528,19,Woman,Right,
,,,,,,,,,,,,,,,,,528,19,Woman,Right,3,75,0.15,2,180,0,180,1.430805900003179,['n'],1.2641845000034664,1.26,1828.7372942000002,,,,,528,19,Woman,Right,
,,,,,,,,,,,,,,,,,528,19,Woman,Right,3,66,0.15,1,180,-,180,2.659329899994191,['y'],1.5038037000049371,1.2,1835.6559236999965,,,,,528,19,Woman,Right,
,,,,,,,,,,,,,,,,,528,19,Woman,Right,3,63,0.15,2,180,0,0,2.837090499990154,['y'],0.9360476000001654,1.306,1841.6382188000061,,,,,528,19,Woman,Right,
,,,,,,,,,,,,,,,,,528,19,Woman,Right,3,23,0.4,2,180,0,180,1.2088351999991573,['n'],0.8951495999936014,1.0,1849.588331800005,,,,,528,19,Woman,Right,
,,,,,,,,,,,,,,,,,528,19,Woman,Right,3,69,0.15,2,0,180,0,1.0923151000024518,['y'],1.8558461000066018,1.22,1855.2706582000028,,,,,528,19,Woman,Right,
,,,,,,,,,,,,,,,,,528,19,Woman,Right,3,26,0.4,1,180,-,180,0.6655297999968752,['n'],0.6558117999957176,1.3439999999999999,1859.020818900004,,,,,528,19,Woman,Right,
,,,,,,,,,,,,,,,,,528,19,Woman,Right,3,47,0.15,2,180,0,180,2.0366212999942945,['n'],1.9282536000100663,1.108,1865.9543823000058,,,,,528,19,Woman,Right,
,,,,,,,,,,,,,,,,,528,19,Woman,Right,3,60,0.15,1,0,-,0,2.424876499993843,['y'],0.6312769999931334,1.292,1872.3056561000049,,,,,528,19,Woman,Right,
,,,,,,,,,,,,,,,,,528,19,Woman,Right,3,21,0.4,2,0,180,180,1.187210199990659,['y'],0.5838286999933189,2.0,1876.505174900005,,,,,528,19,Woman,Right,
,,,,,,,,,,,,,,,,,528,19,Woman,Right,3,13,0.4,2,0,180,180,1.0881377000041539,['y'],0.8792119000136154,2.0,1880.754175800008,,,,,528,19,Woman,Right,
,,,,,,,,,,,,,,,,,528,19,Woman,Right,3,70,0.15,1,180,-,0,1.638819899992086,['n'],0.7993606999953045,1.3940000000000001,1885.7707878,,,,,528,19,Woman,Right,
,,,,,,,,,,,,,,,,,528,19,Woman,Right,3,79,0.15,2,180,0,180,1.6470408000022871,['y'],0.39129610000236426,1.03,1890.2707486000072,,,,,528,19,Woman,Right,
,,,,,,,,,,,,,,,,,528,19,Woman,Right,3,55,0.15,2,180,0,180,1.0982590999919921,['y'],1.9274560999911046,1.0,1895.9042970000082,,,,,528,19,Woman,Right,
,,,,,,,,,,,,,,,,,528,19,Woman,Right,3,72,0.15,1,0,-,180,0.9285050999897067,['y'],0.6556371000042418,1.0,1899.9708646,,,,,528,19,Woman,Right,
,,,,,,,,,,,,,,,,,528,19,Woman,Right,3,30,0.4,1,180,-,180,0.4527460999961477,['n'],0.7914002000034088,1.588,1905.2716905000052,,,,,528,19,Woman,Right,
,,,,,,,,,,,,,,,,,528,19,Woman,Right,3,9,0.4,2,0,180,180,0.4011164999974426,['y'],0.4228718999947887,2.0,1908.4055795000095,,,,,528,19,Woman,Right,
,,,,,,,,,,,,,,,,,528,19,Woman,Right,3,77,0.15,2,0,180,0,0.39003219999722205,['n'],1.6476653999998234,1.56,1913.1542331000019,,,,,528,19,Woman,Right,
,,,,,,,,,,,,,,,,,528,19,Woman,Right,3,58,0.15,1,180,-,180,0.31872179999481887,['n'],0.8714541999943322,1.6099999999999999,1917.4549509999997,,,,,528,19,Woman,Right,
,,,,,,,,,,,,,,,,,528,19,Woman,Right,3,42,0.4,1,180,-,180,0.522790500006522,['n'],1.3913019000028726,1.814,1922.1374510999958,,,,,528,19,Woman,Right,
,,,,,,,,,,,,,,,,,528,19,Woman,Right,3,53,0.15,2,0,180,0,0.9441947000013897,['n'],0.40700039999501314,1.6019999999999999,1926.1374361999988,,,,,528,19,Woman,Right,
,,,,,,,,,,,,,,,,,528,19,Woman,Right,3,44,0.15,1,0,-,180,0.3509289999929024,['n'],0.6555404999962775,1.6219999999999999,1929.655170799997,,,,,528,19,Woman,Right,
,,,,,,,,,,,,,,,,,528,19,Woman,Right,3,64,0.15,1,0,-,180,7.137606900010724,['n'],1.5270490999973845,1.0,1941.4709001000083,,,,,528,19,Woman,Right,
,,,,,,,,,,,,,,,,,528,19,Woman,Right,3,12,0.4,1,0,-,0,0.7838049999991199,['n'],0.4153831000003265,1.432,1946.9048242000063,,,,,528,19,Woman,Right,
,,,,,,,,,,,,,,,,,528,19,Woman,Right,4,74,0.15,1,180,-,180,5.375480500006233,['n'],1.3278661999938777,1.0,1978.9710051000075,77.5,80.0,67.5,,528,19,Woman,Right,
,,,,,,,,,,,,,,,,,528,19,Woman,Right,4,36,0.4,1,0,-,0,0.7481230000121286,['n'],0.45586509999702685,1.1059999999999999,1983.1046524000049,,,,,528,19,Woman,Right,
,,,,,,,,,,,,,,,,,528,19,Woman,Right,4,9,0.4,2,0,180,180,0.7208116999972844,['y'],0.9038815999956569,2.0,1987.3543600000048,,,,,528,19,Woman,Right,
,,,,,,,,,,,,,,,,,528,19,Woman,Right,4,52,0.15,1,0,-,0,0.7416658000001917,['y'],0.8157052000024123,1.7,1991.1045196999985,,,,,528,19,Woman,Right,
,,,,,,,,,,,,,,,,,528,19,Woman,Right,4,70,0.15,1,180,-,180,0.6675373000034597,['n'],0.6237773000029847,1.3940000000000001,1995.8211582000004,,,,,528,19,Woman,Right,
,,,,,,,,,,,,,,,,,528,19,Woman,Right,4,79,0.15,2,180,0,180,4.045352200002526,['y'],1.4229225000017323,1.532,2004.0550589999984,,,,,528,19,Woman,Right,
,,,,,,,,,,,,,,,,,528,19,Woman,Right,4,12,0.4,1,0,-,180,0.6659272000106284,['y'],0.8473559999983991,1.646,2008.4543648000035,,,,,528,19,Woman,Right,
,,,,,,,,,,,,,,,,,528,19,Woman,Right,4,78,0.15,1,180,-,180,1.231958400006988,['y'],1.2563714999996591,1.208,2013.537749899995,,,,,528,19,Woman,Right,
,,,,,,,,,,,,,,,,,528,19,Woman,Right,4,6,1,1,180,-,180,0.2894596999976784,['n'],0.49530609999783337,2.0,2017.3878231000053,,,,,528,19,Woman,Right,
,,,,,,,,,,,,,,,,,528,19,Woman,Right,4,58,0.15,1,180,-,180,3.7529594999941764,['y'],1.0875224000046728,1.62,2024.9543500000073,,,,,528,19,Woman,Right,
,,,,,,,,,,,,,,,,,528,19,Woman,Right,4,14,0.4,1,180,-,0,1.8507154999970226,['y'],0.550867300000391,1.452,2030.1877338999984,,,,,528,19,Woman,Right,
,,,,,,,,,,,,,,,,,528,19,Woman,Right,4,1,1,2,0,180,180,0.47839880001265556,['y'],0.4074166000063997,2.0,2033.2888917000018,,,,,528,19,Woman,Right,
,,,,,,,,,,,,,,,,,528,19,Woman,Right,4,37,0.4,2,0,180,180,0.2334640000044601,['y'],0.4311470999964513,2.0,2036.2888977000039,,,,,528,19,Woman,Right,
,,,,,,,,,,,,,,,,,528,19,Woman,Right,4,40,0.4,1,0,-,0,0.7062667999998666,['n'],0.4392396000039298,1.776,2040.271033799996,,,,,528,19,Woman,Right,
,,,,,,,,,,,,,,,,,528,19,Woman,Right,4,77,0.15,2,0,180,180,0.7862453999987338,['n'],2.0478951999975834,1.436,2046.7720098000063,,,,,528,19,Woman,Right,
,,,,,,,,,,,,,,,,,528,19,Woman,Right,4,41,0.4,2,0,180,180,0.4759424000076251,['y'],0.6157397999922978,1.846,2050.504564900002,,,,,528,19,Woman,Right,
,,,,,,,,,,,,,,,,,528,19,Woman,Right,4,61,0.15,2,0,180,180,0.6138090000022203,['y'],0.7270624999946449,1.764,2053.9388305999964,,,,,528,19,Woman,Right,
,,,,,,,,,,,,,,,,,528,19,Woman,Right,4,53,0.15,2,0,180,180,0.742493799989461,['n'],2.9361510000017006,1.764,2059.906156200006,,,,,528,19,Woman,Right,
,,,,,,,,,,,,,,,,,528,19,Woman,Right,4,59,0.15,2,180,0,0,0.502905399989686,['y'],0.3195646000094712,1.858,2063.921127200003,,,,,528,19,Woman,Right,
,,,,,,,,,,,,,,,,,528,19,Woman,Right,4,7,1,2,180,0,0,0.1839375999988988,['y'],0.40082779999647755,2.0,2067.005295200004,,,,,528,19,Woman,Right,
,,,,,,,,,,,,,,,,,528,19,Woman,Right,4,63,0.15,2,180,0,0,0.6170235999888973,['y'],0.7100745000061579,1.6400000000000001,2071.337837100007,,,,,528,19,Woman,Right,
,,,,,,,,,,,,,,,,,528,19,Woman,Right,4,23,0.4,2,180,0,0,0.4445350000023609,['y'],0.5193441000010353,2.0,2074.655173500003,,,,,528,19,Woman,Right,
,,,,,,,,,,,,,,,,,528,19,Woman,Right,4,54,0.15,1,180,-,180,0.7644631000002846,['n'],0.7111808999907225,1.818,2079.0544875999985,,,,,528,19,Woman,Right,
,,,,,,,,,,,,,,,,,528,19,Woman,Right,4,51,0.15,2,180,0,0,0.475563100000727,['y'],0.5916588999971282,1.0,2083.0549083000005,,,,,528,19,Woman,Right,
,,,,,,,,,,,,,,,,,528,19,Woman,Right,4,55,0.15,2,180,0,180,0.9500898999976926,['n'],0.7801338999997824,1.0979999999999999,2087.105589400009,,,,,528,19,Woman,Right,
,,,,,,,,,,,,,,,,,528,19,Woman,Right,4,43,0.4,2,180,0,0,0.3179418999934569,['y'],0.43176730000413954,2.0,2090.2389148,,,,,528,19,Woman,Right,
,,,,,,,,,,,,,,,,,528,19,Woman,Right,4,8,0.4,1,0,-,180,1.6589848000003258,['n'],0.7040633999858983,1.1400000000000001,2095.1559273000094,,,,,528,19,Woman,Right,
,,,,,,,,,,,,,,,,,528,19,Woman,Right,4,32,0.4,1,0,-,0,0.84657189999416,['n'],0.6875551999983145,1.104,2098.9555172000037,,,,,528,19,Woman,Right,
,,,,,,,,,,,,,,,,,528,19,Woman,Right,4,27,0.4,2,180,0,0,0.3203233999956865,['y'],1.7592160000058357,1.794,2103.8721608999986,,,,,528,19,Woman,Right,
,,,,,,,,,,,,,,,,,528,19,Woman,Right,4,33,0.4,2,0,180,180,0.29080940000130795,['y'],0.7350512000120943,2.0,2107.1546405000045,,,,,528,19,Woman,Right,
,,,,,,,,,,,,,,,,,528,19,Woman,Right,4,68,0.15,1,0,-,0,0.3468180000054417,['n'],0.37449930000002496,1.8479999999999999,2110.9714036000005,,,,,528,19,Woman,Right,
,,,,,,,,,,,,,,,,,528,19,Woman,Right,4,56,0.15,1,0,-,180,1.4672303999977885,['y'],0.5868247999896994,1.6179999999999999,2115.605382600006,,,,,528,19,Woman,Right,
,,,,,,,,,,,,,,,,,528,19,Woman,Right,4,76,0.15,1,0,-,180,0.59702409998863,['n'],0.7034109000087483,1.854,2119.655556100006,,,,,528,19,Woman,Right,
,,,,,,,,,,,,,,,,,528,19,Woman,Right,4,2,1,1,180,-,180,0.3056282000034116,['n'],0.7987756000075024,2.0,2123.0712753000043,,,,,528,19,Woman,Right,
,,,,,,,,,,,,,,,,,528,19,Woman,Right,4,5,1,2,0,180,180,0.5695061000005808,['y'],0.7366893999860622,2.0,2126.7052820000026,,,,,528,19,Woman,Right,
,,,,,,,,,,,,,,,,,528,19,Woman,Right,4,69,0.15,2,0,180,180,0.31216449999192264,['n'],0.4237226999975974,2.0,2129.6888798000073,,,,,528,19,Woman,Right,
,,,,,,,,,,,,,,,,,528,19,Woman,Right,4,19,0.4,2,180,0,0,0.39366139999765437,['y'],0.36680190000333823,1.78,2133.8889070000077,,,,,528,19,Woman,Right,
,,,,,,,,,,,,,,,,,528,19,Woman,Right,4,13,0.4,2,0,180,180,0.5384767999930773,['y'],1.687501299995347,1.866,2139.10512,,,,,528,19,Woman,Right,
,,,,,,,,,,,,,,,,,528,19,Woman,Right,4,66,0.15,1,180,-,180,0.3044118999969214,['n'],0.7356289000017568,2.0,2142.3546911000085,,,,,528,19,Woman,Right,
,,,,,,,,,,,,,,,,,528,19,Woman,Right,4,25,0.4,2,0,180,180,0.3831155999941984,['y'],1.8879746000020532,1.984,2146.8052936000095,,,,,528,19,Woman,Right,
,,,,,,,,,,,,,,,,,528,19,Woman,Right,4,44,0.15,1,0,-,0,0.34780570000293665,['n'],0.41545469999255147,2.0,2149.971325300001,,,,,528,19,Woman,Right,
,,,,,,,,,,,,,,,,,528,19,Woman,Right,4,18,0.4,1,180,-,180,0.1745305000076769,['n'],0.5750225000083447,2.0,2152.938152900002,,,,,528,19,Woman,Right,
,,,,,,,,,,,,,,,,,528,19,Woman,Right,4,71,0.15,2,180,0,180,1.1027018000022508,['n'],0.279382099994109,1.6520000000000001,2156.7213790000023,,,,,528,19,Woman,Right,
,,,,,,,,,,,,,,,,,528,19,Woman,Right,4,22,0.4,1,180,-,180,0.6373621999955503,['n'],0.3989043000037782,2.0,2160.239094700002,,,,,528,19,Woman,Right,
,,,,,,,,,,,,,,,,,528,19,Woman,Right,4,34,0.4,1,180,-,180,1.1802774999960093,['n'],0.36749729998700786,1.85,2164.4213269999964,,,,,528,19,Woman,Right,
,,,,,,,,,,,,,,,,,528,19,Woman,Right,4,35,0.4,2,180,0,0,1.1152989999973215,['y'],0.35934900000575,2.0,2168.5714687000072,,,,,528,19,Woman,Right,
,,,,,,,,,,,,,,,,,528,19,Woman,Right,4,11,0.4,2,180,0,0,0.2362874000100419,['y'],0.39151690001017414,1.988,2171.6891122000015,,,,,528,19,Woman,Right,
,,,,,,,,,,,,,,,,,528,19,Woman,Right,4,15,0.4,2,180,0,0,0.2923332000063965,['y'],0.28669860000081826,1.996,2174.8713990000033,,,,,528,19,Woman,Right,
,,,,,,,,,,,,,,,,,528,19,Woman,Right,4,26,0.4,1,180,-,180,0.33237869999720715,['n'],0.39067720000457484,1.842,2178.4388668999964,,,,,528,19,Woman,Right,
,,,,,,,,,,,,,,,,,528,19,Woman,Right,4,29,0.4,2,0,180,180,1.8837972000037553,['y'],0.3041174999962095,2.0,2183.204759299995,,,,,528,19,Woman,Right,
,,,,,,,,,,,,,,,,,528,19,Woman,Right,4,39,0.4,2,180,0,0,0.37143519999517594,['y'],0.2953613999998197,2.0,2186.1554695000013,,,,,528,19,Woman,Right,
,,,,,,,,,,,,,,,,,528,19,Woman,Right,4,73,0.15,2,0,180,180,0.800773199996911,['y'],0.3164513999945484,1.866,2189.805853200007,,,,,528,19,Woman,Right,
,,,,,,,,,,,,,,,,,528,19,Woman,Right,4,62,0.15,1,180,-,180,0.5752264999900945,['n'],0.39159189999918453,1.754,2193.004854999999,,,,,528,19,Woman,Right,
,,,,,,,,,,,,,,,,,528,19,Woman,Right,4,47,0.15,2,180,0,180,0.3384010999870952,['n'],0.3979678000032436,1.912,2196.3881619999956,,,,,528,19,Woman,Right,
,,,,,,,,,,,,,,,,,528,19,Woman,Right,4,38,0.4,1,180,-,180,0.5924043000122765,['n'],0.4713029000122333,1.726,2199.8557652999953,,,,,528,19,Woman,Right,
,,,,,,,,,,,,,,,,,528,19,Woman,Right,4,45,0.15,2,0,180,0,0.3299531999946339,['n'],0.48738730000332,1.688,2203.4555828000084,,,,,528,19,Woman,Right,
,,,,,,,,,,,,,,,,,528,19,Woman,Right,4,28,0.4,1,0,-,180,0.5128684999945108,['n'],0.8396720999880927,1.946,2207.821560000004,,,,,528,19,Woman,Right,
,,,,,,,,,,,,,,,,,528,19,Woman,Right,4,50,0.15,1,180,-,180,0.5796636000013677,['n'],0.3358513999992283,1.952,2210.988945600002,,,,,528,19,Woman,Right,
,,,,,,,,,,,,,,,,,528,19,Woman,Right,4,72,0.15,1,0,-,0,0.3724367999966489,['n'],0.7351260999857914,1.782,2214.4555610000025,,,,,528,19,Woman,Right,
,,,,,,,,,,,,,,,,,528,19,Woman,Right,4,67,0.15,2,180,0,180,1.119047000000137,['n'],0.45466030000534374,1.68,2218.6560801000087,,,,,528,19,Woman,Right,
,,,,,,,,,,,,,,,,,528,19,Woman,Right,4,16,0.4,1,0,-,0,0.786090299996431,['n'],0.3522594999958528,1.792,2222.088148200004,,,,,528,19,Woman,Right,
,,,,,,,,,,,,,,,,,528,19,Woman,Right,4,30,0.4,1,180,-,180,0.24743439999292605,['n'],1.0713553999958094,2.0,2225.739007400007,,,,,528,19,Woman,Right,
,,,,,,,,,,,,,,,,,528,19,Woman,Right,4,75,0.15,2,180,0,180,1.6880740999913542,['y'],0.7517951999907382,1.8940000000000001,2231.8715133000005,,,,,528,19,Woman,Right,
,,,,,,,,,,,,,,,,,528,19,Woman,Right,4,3,1,2,180,0,0,0.3926616000098875,['y'],0.33535209999536164,2.0,2234.9389575000023,,,,,528,19,Woman,Right,
,,,,,,,,,,,,,,,,,528,19,Woman,Right,4,21,0.4,2,0,180,180,0.24043180000444409,['y'],0.6237476000096649,2.0,2238.304830800007,,,,,528,19,Woman,Right,
,,,,,,,,,,,,,,,,,528,19,Woman,Right,4,20,0.4,1,0,-,0,0.5042497000104049,['y'],2.0719346000114456,1.316,2245.0717644000033,,,,,528,19,Woman,Right,
,,,,,,,,,,,,,,,,,528,19,Woman,Right,4,60,0.15,1,0,-,0,1.6833407000085572,['n'],2.1335340999939945,1.862,2251.388952000001,,,,,528,19,Woman,Right,
,,,,,,,,,,,,,,,,,528,19,Woman,Right,4,31,0.4,2,180,0,0,0.333277800003998,['y'],0.5761535000056028,1.978,2255.1215722999987,,,,,528,19,Woman,Right,
,,,,,,,,,,,,,,,,,528,19,Woman,Right,4,46,0.15,1,180,-,180,0.4382627000013599,['n'],0.3763366000057431,1.782,2258.171581399998,,,,,528,19,Woman,Right,
,,,,,,,,,,,,,,,,,528,19,Woman,Right,4,42,0.4,1,180,-,180,0.3421286000084365,['n'],0.5117937000031816,2.0,2261.2715634999986,,,,,528,19,Woman,Right,
,,,,,,,,,,,,,,,,,528,19,Woman,Right,4,65,0.15,2,0,180,180,1.8013203000009526,['y'],0.5113359000097262,1.994,2265.7383569000012,,,,,528,19,Woman,Right,
,,,,,,,,,,,,,,,,,528,19,Woman,Right,4,57,0.15,2,0,180,180,1.783049799996661,['y'],2.4557366000080947,1.8599999999999999,2272.8890853999983,,,,,528,19,Woman,Right,
,,,,,,,,,,,,,,,,,528,19,Woman,Right,4,48,0.15,1,0,-,180,1.2096975000022212,['n'],0.4317317999957595,1.294,2277.0882420000053,,,,,528,19,Woman,Right,
,,,,,,,,,,,,,,,,,528,19,Woman,Right,4,0,1,1,0,-,0,0.41206200000306126,['n'],0.6313455000054091,2.0,2280.3717196,,,,,528,19,Woman,Right,
,,,,,,,,,,,,,,,,,528,19,Woman,Right,4,10,0.4,1,180,-,180,0.2963026999932481,['n'],0.6797045999992406,1.6360000000000001,2283.754989000001,,,,,528,19,Woman,Right,
,,,,,,,,,,,,,,,,,528,19,Woman,Right,4,24,0.4,1,0,-,0,0.4060031999979401,['n'],0.30349890000070445,1.676,2286.7050673999984,,,,,528,19,Woman,Right,
,,,,,,,,,,,,,,,,,528,19,Woman,Right,4,64,0.15,1,0,-,0,0.4224473000067519,['n'],0.4560261000005994,1.6,2289.8717192999975,,,,,528,19,Woman,Right,
,,,,,,,,,,,,,,,,,528,19,Woman,Right,4,17,0.4,2,0,180,180,0.5380358999973396,['y'],0.967460799991386,1.8860000000000001,2293.9215858000025,,,,,528,19,Woman,Right,
,,,,,,,,,,,,,,,,,528,19,Woman,Right,4,4,1,1,0,-,0,0.34348080000199843,['n'],1.0793947000056505,2.0,2297.622512599999,,,,,528,19,Woman,Right,
,,,,,,,,,,,,,,,,,528,19,Woman,Right,4,49,0.15,2,0,180,180,1.2762163000006694,['n'],0.5438082000036957,1.714,2301.971691000006,,,,,528,19,Woman,Right,
,,,,,,,,,,,,,,,,,528,19,Woman,Right,5,77,0.15,2,0,180,180,0.6884532999974908,['n'],0.5117002000042703,1.328,2344.721961199997,82.5,82.5,77.5,,528,19,Woman,Right,
,,,,,,,,,,,,,,,,,528,19,Woman,Right,5,3,1,2,180,0,0,0.25442650000331923,['y'],0.36677619999682065,2.0,2347.6893585,,,,,528,19,Woman,Right,
,,,,,,,,,,,,,,,,,528,19,Woman,Right,5,72,0.15,1,0,-,180,0.3524228999885963,['n'],0.46396269999968354,1.422,2350.988676000001,,,,,528,19,Woman,Right,
,,,,,,,,,,,,,,,,,528,19,Woman,Right,5,55,0.15,2,180,0,0,0.47954179999942426,['y'],0.32750519999535754,1.734,2354.155081099998,,,,,528,19,Woman,Right,
,,,,,,,,,,,,,,,,,528,19,Woman,Right,5,62,0.15,1,180,-,0,0.5258858999877702,['y'],0.5517748999991454,1.634,2357.506048000003,,,,,528,19,Woman,Right,
,,,,,,,,,,,,,,,,,528,19,Woman,Right,5,47,0.15,2,180,0,180,0.2808884999976726,['n'],0.4149885999941034,1.48,2360.573051200008,,,,,528,19,Woman,Right,
,,,,,,,,,,,,,,,,,528,19,Woman,Right,5,39,0.4,2,180,0,0,0.3108986000006553,['y'],0.31146030001400504,1.8980000000000001,2364.5053149000087,,,,,528,19,Woman,Right,
,,,,,,,,,,,,,,,,,528,19,Woman,Right,5,66,0.15,1,180,-,0,2.0117957000038587,['y'],0.40796829998726025,1.388,2369.322027800001,,,,,528,19,Woman,Right,
,,,,,,,,,,,,,,,,,528,19,Woman,Right,5,18,0.4,1,180,-,180,0.4563631999917561,['n'],0.3759786000009626,1.756,2372.8895009000044,,,,,528,19,Woman,Right,
,,,,,,,,,,,,,,,,,528,19,Woman,Right,5,32,0.4,1,0,-,0,1.7473865999927511,['n'],4.239195900008781,1.384,2381.555187400001,,,,,528,19,Woman,Right,
,,,,,,,,,,,,,,,,,528,19,Woman,Right,5,60,0.15,1,0,-,180,1.9225279999955092,['y'],0.9991387999907602,1.214,2386.722121999999,,,,,528,19,Woman,Right,
,,,,,,,,,,,,,,,,,528,19,Woman,Right,5,42,0.4,1,180,-,180,1.4530274999997346,['n'],0.2787118999985978,1.704,2391.1219103999974,,,,,528,19,Woman,Right,
,,,,,,,,,,,,,,,,,528,19,Woman,Right,5,43,0.4,2,180,0,0,0.6243582000024617,['y'],0.3274206999922171,1.938,2394.706595200005,,,,,528,19,Woman,Right,
,,,,,,,,,,,,,,,,,528,19,Woman,Right,5,7,1,2,180,0,0,0.7386709999991581,['y'],0.5039091000071494,2.0,2398.4552461000058,,,,,528,19,Woman,Right,
,,,,,,,,,,,,,,,,,528,19,Woman,Right,5,22,0.4,1,180,-,180,0.42979039999772795,['n'],0.6555305999936536,2.0,2403.638726099998,,,,,528,19,Woman,Right,
,,,,,,,,,,,,,,,,,528,19,Woman,Right,5,75,0.15,2,180,0,180,1.1257124999974621,['n'],0.7515916999982437,1.428,2408.855951400001,,,,,528,19,Woman,Right,
,,,,,,,,,,,,,,,,,528,19,Woman,Right,5,4,1,1,0,-,0,0.518887199999881,['n'],3.1430881999986013,1.81,2415.0897662999996,,,,,528,19,Woman,Right,
,,,,,,,,,,,,,,,,,528,19,Woman,Right,5,35,0.4,2,180,0,0,0.31231280000065453,['y'],1.1827746000053594,2.0,2418.9219795000026,,,,,528,19,Woman,Right,
,,,,,,,,,,,,,,,,,528,19,Woman,Right,5,65,0.15,2,0,180,180,0.39410180000413675,['y'],0.703887499999837,2.0,2422.271904900008,,,,,528,19,Woman,Right,
,,,,,,,,,,,,,,,,,528,19,Woman,Right,5,10,0.4,1,180,-,180,0.31694240000797436,['n'],0.4714396999916062,1.624,2425.3394348000074,,,,,528,19,Woman,Right,
,,,,,,,,,,,,,,,,,528,19,Woman,Right,5,19,0.4,2,180,0,0,0.5012063000031048,['y'],0.24945629999274388,2.0,2429.3060413999992,,,,,528,19,Woman,Right,
,,,,,,,,,,,,,,,,,528,19,Woman,Right,5,44,0.15,1,0,-,180,0.35398640000494197,['n'],0.5758597999956692,1.6680000000000001,2432.5563122999956,,,,,528,19,Woman,Right,
,,,,,,,,,,,,,,,,,528,19,Woman,Right,5,37,0.4,2,0,180,180,0.31090840000251774,['y'],0.6079243999993196,1.83,2435.7729009999966,,,,,528,19,Woman,Right,
,,,,,,,,,,,,,,,,,528,19,Woman,Right,5,45,0.15,2,0,180,180,3.0931680999929085,['y'],0.5679927000019234,1.342,2442.0061541999967,,,,,528,19,Woman,Right,
,,,,,,,,,,,,,,,,,528,19,Woman,Right,5,67,0.15,2,180,0,180,1.1862631999974838,['y'],0.8948323999939021,1.388,2446.439443300005,,,,,528,19,Woman,Right,
,,,,,,,,,,,,,,,,,528,19,Woman,Right,5,64,0.15,1,0,-,0,0.38516160000290256,['n'],0.40785740000137594,1.612,2450.7561575000072,,,,,528,19,Woman,Right,
,,,,,,,,,,,,,,,,,528,19,Woman,Right,5,14,0.4,1,180,-,180,0.16291429998818785,['n'],0.3921422999992501,1.81,2453.6886393999957,,,,,528,19,Woman,Right,
,,,,,,,,,,,,,,,,,528,19,Woman,Right,5,17,0.4,2,0,180,180,0.4648579000058817,['y'],0.5839429999905406,1.87,2457.123162099997,,,,,528,19,Woman,Right,
,,,,,,,,,,,,,,,,,528,19,Woman,Right,5,16,0.4,1,0,-,0,0.43804829999862704,['n'],0.34349710000969935,1.758,2460.1554314000023,,,,,528,19,Woman,Right,
,,,,,,,,,,,,,,,,,528,19,Woman,Right,5,58,0.15,1,180,-,180,2.7504121999954805,['y'],0.9439515999983996,1.256,2466.205479300006,,,,,528,19,Woman,Right,
,,,,,,,,,,,,,,,,,528,19,Woman,Right,5,79,0.15,2,180,0,0,1.2925280000054045,['y'],0.8550460999977076,1.46,2471.522234199998,,,,,528,19,Woman,Right,
,,,,,,,,,,,,,,,,,528,19,Woman,Right,5,23,0.4,2,180,0,0,0.49439320000237785,['y'],0.2875467999983812,2.0,2474.806438000007,,,,,528,19,Woman,Right,
,,,,,,,,,,,,,,,,,528,19,Woman,Right,5,63,0.15,2,180,0,0,1.652116199999,['y'],0.40794500001356937,1.8820000000000001,2480.3721372000073,,,,,528,19,Woman,Right,
,,,,,,,,,,,,,,,,,528,19,Woman,Right,5,49,0.15,2,0,180,180,0.5803235000057612,['y'],0.5518348000041442,1.608,2484.0886342000085,,,,,528,19,Woman,Right,
,,,,,,,,,,,,,,,,,528,19,Woman,Right,5,2,1,1,180,-,180,0.3445448000129545,['n'],0.4472532000072533,1.8860000000000001,2488.4230401000023,,,,,528,19,Woman,Right,
,,,,,,,,,,,,,,,,,528,19,Woman,Right,5,50,0.15,1,180,-,180,1.2637286999961361,['y'],0.4475226000067778,1.44,2492.939757799999,,,,,528,19,Woman,Right,
,,,,,,,,,,,,,,,,,528,19,Woman,Right,5,33,0.4,2,0,180,180,0.4422160999965854,['y'],0.42347689998860005,2.0,2496.1554787999994,,,,,528,19,Woman,Right,
,,,,,,,,,,,,,,,,,528,19,Woman,Right,5,12,0.4,1,0,-,0,0.34287680000124965,['n'],0.33565740000631195,1.54,2499.905500800007,,,,,528,19,Woman,Right,
,,,,,,,,,,,,,,,,,528,19,Woman,Right,5,13,0.4,2,0,180,180,0.34643409999262076,['y'],0.3360407000000123,2.0,2502.856176100009,,,,,528,19,Woman,Right,
,,,,,,,,,,,,,,,,,528,19,Woman,Right,5,31,0.4,2,180,0,0,0.31609999999636784,['y'],0.3107243999984348,2.0,2506.5722105000095,,,,,528,19,Woman,Right,
,,,,,,,,,,,,,,,,,528,19,Woman,Right,5,11,0.4,2,180,0,0,0.15737439999065828,['y'],0.5274748999945587,2.0,2509.756224600009,,,,,528,19,Woman,Right,
,,,,,,,,,,,,,,,,,528,19,Woman,Right,5,73,0.15,2,0,180,180,0.2650364000000991,['y'],0.32750169999781065,2.0,2513.0887756000084,,,,,528,19,Woman,Right,
,,,,,,,,,,,,,,,,,528,19,Woman,Right,5,20,0.4,1,0,-,0,0.5100985000026412,['n'],0.9596832000097493,1.75,2517.106376500007,,,,,528,19,Woman,Right,
,,,,,,,,,,,,,,,,,528,19,Woman,Right,5,0,1,1,0,-,0,0.33075509998889174,['n'],0.5118691999959992,2.0,2520.2728832000066,,,,,528,19,Woman,Right,
,,,,,,,,,,,,,,,,,528,19,Woman,Right,5,52,0.15,1,0,-,0,1.4342055000015534,['n'],0.887473199996748,1.392,2524.905924400002,,,,,528,19,Woman,Right,
,,,,,,,,,,,,,,,,,528,19,Woman,Right,5,27,0.4,2,180,0,0,0.260709099995438,['y'],0.3589185000018915,2.0,2527.9055396999975,,,,,528,19,Woman,Right,
,,,,,,,,,,,,,,,,,528,19,Woman,Right,5,6,1,1,180,-,180,0.4476606999960495,['n'],0.4075067000085255,2.0,2531.105732700009,,,,,528,19,Woman,Right,
,,,,,,,,,,,,,,,,,528,19,Woman,Right,5,56,0.15,1,0,-,0,0.9010551999963354,['n'],0.2954546999972081,1.836,2535.0410224000007,,,,,528,19,Woman,Right,
,,,,,,,,,,,,,,,,,528,19,Woman,Right,5,57,0.15,2,0,180,180,0.7938512999971863,['n'],0.5118399999919347,1.754,2540.205611000005,,,,,528,19,Woman,Right,
,,,,,,,,,,,,,,,,,528,19,Woman,Right,5,51,0.15,2,180,0,0,0.9736492000083672,['n'],0.49526460000197403,1.646,2544.3059362999993,,,,,528,19,Woman,Right,
,,,,,,,,,,,,,,,,,528,19,Woman,Right,5,24,0.4,1,0,-,0,0.5438216000038665,['n'],1.1360872999939602,1.3639999999999999,2548.6065000000017,,,,,528,19,Woman,Right,
,,,,,,,,,,,,,,,,,528,19,Woman,Right,5,38,0.4,1,180,-,180,1.6116780000011204,['n'],0.7443109000014374,1.772,2553.4728438999955,,,,,528,19,Woman,Right,
,,,,,,,,,,,,,,,,,528,19,Woman,Right,5,70,0.15,1,180,-,0,1.8878837999945972,['y'],0.7203632000018843,1.216,2558.6896930000003,,,,,528,19,Woman,Right,
,,,,,,,,,,,,,,,,,528,19,Woman,Right,5,26,0.4,1,180,-,180,1.8689447999931872,['n'],0.4306224000029033,1.814,2563.2896929000053,,,,,528,19,Woman,Right,
,,,,,,,,,,,,,,,,,528,19,Woman,Right,5,48,0.15,1,0,-,0,1.3100820999970892,['n'],0.6318806999915978,1.608,2567.5557706000036,,,,,528,19,Woman,Right,
,,,,,,,,,,,,,,,,,528,19,Woman,Right,5,46,0.15,1,180,-,0,1.316841799998656,['y'],1.263656600000104,1.3359999999999999,2572.8406924000083,,,,,528,19,Woman,Right,
,,,,,,,,,,,,,,,,,528,19,Woman,Right,5,74,0.15,1,180,-,180,1.7882056000089506,['y'],1.2473620000091614,1.0,2578.1397891000015,,,,,528,19,Woman,Right,
,,,,,,,,,,,,,,,,,528,19,Woman,Right,5,78,0.15,1,180,-,180,1.281167599998298,['y'],1.1039099000045098,1.056,2583.072938000005,,,,,528,19,Woman,Right,
,,,,,,,,,,,,,,,,,528,19,Woman,Right,5,21,0.4,2,0,180,180,0.9514858000038657,['y'],0.46367940001073293,2.0,2586.8056628999984,,,,,528,19,Woman,Right,
,,,,,,,,,,,,,,,,,528,19,Woman,Right,5,68,0.15,1,0,-,0,0.6754604000016116,['n'],0.5108126000122866,1.572,2590.689982300006,,,,,528,19,Woman,Right,
,,,,,,,,,,,,,,,,,528,19,Woman,Right,5,41,0.4,2,0,180,180,0.5542887999908999,['y'],0.6953909000003478,2.0,2594.1724157000062,,,,,528,19,Woman,Right,
,,,,,,,,,,,,,,,,,528,19,Woman,Right,5,8,0.4,1,0,-,0,0.4605961999914143,['n'],1.1755620000039926,1.93,2598.739095600009,,,,,528,19,Woman,Right,
,,,,,,,,,,,,,,,,,528,19,Woman,Right,5,54,0.15,1,180,-,180,0.4376256999967154,['n'],0.5443464000127278,2.0,2602.0557092000017,,,,,528,19,Woman,Right,
,,,,,,,,,,,,,,,,,528,19,Woman,Right,5,25,0.4,2,0,180,180,0.24946750000526663,['y'],0.4236501999985194,2.0,2605.0060509999967,,,,,528,19,Woman,Right,
,,,,,,,,,,,,,,,,,528,19,Woman,Right,5,15,0.4,2,180,0,0,0.5384507999988273,['y'],0.31141190000926144,2.0,2608.273160799996,,,,,528,19,Woman,Right,
,,,,,,,,,,,,,,,,,528,19,Woman,Right,5,1,1,2,0,180,180,0.29727660000207834,['y'],0.7351098999934038,2.0,2611.589935200005,,,,,528,19,Woman,Right,
,,,,,,,,,,,,,,,,,528,19,Woman,Right,5,69,0.15,2,0,180,180,1.7629853999969782,['y'],0.42451910000818316,1.3479999999999999,2616.722528899998,,,,,528,19,Woman,Right,
,,,,,,,,,,,,,,,,,528,19,Woman,Right,5,71,0.15,2,180,0,180,1.2487152999965474,['n'],0.679454999990412,1.1099999999999999,2621.4741315000065,,,,,528,19,Woman,Right,
,,,,,,,,,,,,,,,,,528,19,Woman,Right,5,59,0.15,2,180,0,0,0.6007543999876361,['y'],0.5193503000045894,1.194,2626.005727200005,,,,,528,19,Woman,Right,
,,,,,,,,,,,,,,,,,528,19,Woman,Right,5,36,0.4,1,0,-,0,0.28244229999836534,['n'],0.4398973999923328,1.514,2629.623415700007,,,,,528,19,Woman,Right,
,,,,,,,,,,,,,,,,,528,19,Woman,Right,5,61,0.15,2,0,180,0,2.243063900008565,['y'],1.599598100001458,1.0,2636.1724988999995,,,,,528,19,Woman,Right,
,,,,,,,,,,,,,,,,,528,19,Woman,Right,5,30,0.4,1,180,-,180,0.21737209999992047,['n'],0.8236659999965923,1.81,2639.889948200005,,,,,528,19,Woman,Right,
,,,,,,,,,,,,,,,,,528,19,Woman,Right,5,76,0.15,1,0,-,180,1.3452259000041522,['y'],0.6157969000050798,1.422,2644.9065540000083,,,,,528,19,Woman,Right,
,,,,,,,,,,,,,,,,,528,19,Woman,Right,5,29,0.4,2,0,180,180,0.6552537999959895,['y'],1.1920776000042679,2.0,2649.0900921000066,,,,,528,19,Woman,Right,
,,,,,,,,,,,,,,,,,528,19,Woman,Right,5,28,0.4,1,0,-,0,0.39317160000791773,['n'],0.4636929999978747,2.0,2652.1731614999953,,,,,528,19,Woman,Right,
,,,,,,,,,,,,,,,,,528,19,Woman,Right,5,40,0.4,1,0,-,0,0.3378252000111388,['n'],0.4241760000004433,1.862,2656.0225798999963,,,,,528,19,Woman,Right,
,,,,,,,,,,,,,,,,,528,19,Woman,Right,5,9,0.4,2,0,180,180,0.3575420999986818,['y'],2.05547029999434,1.97,2660.9061063000045,,,,,528,19,Woman,Right,
,,,,,,,,,,,,,,,,,528,19,Woman,Right,5,5,1,2,0,180,180,1.8314495000086026,['y'],0.4071555999980774,2.0,2665.6066078000076,,,,,528,19,Woman,Right,
,,,,,,,,,,,,,,,,,528,19,Woman,Right,5,53,0.15,2,0,180,180,0.5168164000060642,['y'],0.5431881999975303,1.834,2668.889847999999,,,,,528,19,Woman,Right,
,,,,,,,,,,,,,,,,,528,19,Woman,Right,5,34,0.4,1,180,-,180,0.3140733000036562,['n'],0.5197438999894075,1.984,2672.2066432000065,,,,,528,19,Woman,Right,
,,,,,,,,,,,,,,,,,,,,,,,,,,,,,,,,,83.75,75.0,85.0,2393.4738205999965,,,,,
