p_block,p_section,p_coherence,p_direction1,p_direction2,p_direction_response,p_direction_RT,p_change_response,p_change_RT,p_confidence,p_full_correct,p_without5_correct,p_full_total,p_without5_total,p_full_avg,p_witout5_avg,p_total_time,sub,age,sex,handedness,loop,trial randomization,coherence,condition,direction1,direction2,direction_response,direction_RT,change_response,change_RT,change_confidence,change_confidence_RT,block_direction_avg,block_stable_avg,block_change_avg,total_time,sub,age,sex,handedness,
1,1,1.0,0,-,0,1.6494631999958074,-,-,-,,,,,,,,521,20,Woman,Right,,,,,,,,,,,,,,,,,521,20,Woman,Right,
1,1,1.0,180,-,180,1.0823015999994823,-,-,-,,,,,,,,521,20,Woman,Right,,,,,,,,,,,,,,,,,521,20,Woman,Right,
1,1,1.0,0,-,0,0.7538879999992787,-,-,-,,,,,,,,521,20,Woman,Right,,,,,,,,,,,,,,,,,521,20,Woman,Right,
1,1,1.0,0,-,0,0.8061326000024565,-,-,-,,,,,,,,521,20,Woman,Right,,,,,,,,,,,,,,,,,521,20,Woman,Right,
1,1,1.0,180,-,180,0.6405058000018471,-,-,-,,,,,,,,521,20,Woman,Right,,,,,,,,,,,,,,,,,521,20,Woman,Right,
1,1,1.0,0,-,0,0.7142164000033517,-,-,-,,,,,,,,521,20,Woman,Right,,,,,,,,,,,,,,,,,521,20,Woman,Right,
1,1,1.0,180,-,180,1.0328960999977426,-,-,-,,,,,,,,521,20,Woman,Right,,,,,,,,,,,,,,,,,521,20,Woman,Right,
1,1,1.0,0,-,0,0.8179625999982818,-,-,-,,,,,,,,521,20,Woman,Right,,,,,,,,,,,,,,,,,521,20,Woman,Right,
1,1,1.0,180,-,180,0.7167288000055123,-,-,-,,,,,,,,521,20,Woman,Right,,,,,,,,,,,,,,,,,521,20,Woman,Right,
1,1,1.0,180,-,180,0.5054294000001391,-,-,-,10,10,10,10,1.0,1.0,,521,20,Woman,Right,,,,,,,,,,,,,,,,,521,20,Woman,Right,
2,1,0.4,180,-,0,0.7998669000007794,-,-,-,,,,,,,,521,20,Woman,Right,,,,,,,,,,,,,,,,,521,20,Woman,Right,
2,1,0.4,0,-,0,0.4424781999987317,-,-,-,,,,,,,,521,20,Woman,Right,,,,,,,,,,,,,,,,,521,20,Woman,Right,
2,1,0.4,180,-,180,0.5481995000009192,-,-,-,,,,,,,,521,20,Woman,Right,,,,,,,,,,,,,,,,,521,20,Woman,Right,
2,1,0.15,180,-,0,0.8327093999978388,-,-,-,,,,,,,,521,20,Woman,Right,,,,,,,,,,,,,,,,,521,20,Woman,Right,
2,1,0.15,180,-,180,0.5058691999947769,-,-,-,,,,,,,,521,20,Woman,Right,,,,,,,,,,,,,,,,,521,20,Woman,Right,
2,1,0.4,180,-,180,0.5114350000003469,-,-,-,,,,,,,,521,20,Woman,Right,,,,,,,,,,,,,,,,,521,20,Woman,Right,
2,1,0.4,180,-,180,0.49509799999941606,-,-,-,,,,,,,,521,20,Woman,Right,,,,,,,,,,,,,,,,,521,20,Woman,Right,
2,1,0.15,0,-,0,0.4617971000043326,-,-,-,,,,,,,,521,20,Woman,Right,,,,,,,,,,,,,,,,,521,20,Woman,Right,
2,1,0.4,0,-,0,0.44966849999764236,-,-,-,,,,,,,,521,20,Woman,Right,,,,,,,,,,,,,,,,,521,20,Woman,Right,
2,1,0.15,0,-,0,0.2869217999977991,-,-,-,8,5,10,6,0.8,0.8333333333333334,,521,20,Woman,Right,,,,,,,,,,,,,,,,,521,20,Woman,Right,
3,2,1.0,0,180,180,1.777951199997915,['y'],6.478370900003938,2,,,,,,,,521,20,Woman,Right,,,,,,,,,,,,,,,,,521,20,Woman,Right,
3,2,1.0,180,0,0,0.9228394999954617,['y'],1.352714400003606,2.0,,,,,,,,521,20,Woman,Right,,,,,,,,,,,,,,,,,521,20,Woman,Right,
3,2,1.0,0,180,180,1.0746689000006882,['y'],0.977946899998642,2.0,,,,,,,,521,20,Woman,Right,,,,,,,,,,,,,,,,,521,20,Woman,Right,
3,2,1.0,0,180,180,1.163943300001847,['y'],0.9695905000044149,2.0,,,,,,,,521,20,Woman,Right,,,,,,,,,,,,,,,,,521,20,Woman,Right,
3,2,1.0,180,0,0,0.9981390000029933,['y'],0.9773158000025433,2.0,,,,,,,,521,20,Woman,Right,,,,,,,,,,,,,,,,,521,20,Woman,Right,
3,2,1.0,180,0,0,0.9555601000029128,['y'],0.8965066999953706,2.0,,,,,,,,521,20,Woman,Right,,,,,,,,,,,,,,,,,521,20,Woman,Right,
3,2,1.0,180,0,0,0.8240950000035809,['y'],1.985651199996937,2.0,,,,,,,,521,20,Woman,Right,,,,,,,,,,,,,,,,,521,20,Woman,Right,
3,2,1.0,0,180,180,0.6479860000035842,['y'],0.865989099998842,2.0,,,,,,,,521,20,Woman,Right,,,,,,,,,,,,,,,,,521,20,Woman,Right,
3,2,1.0,180,0,0,1.031376699997054,['y'],0.7944119000021601,2.0,,,,,,,,521,20,Woman,Right,,,,,,,,,,,,,,,,,521,20,Woman,Right,
3,2,1.0,0,180,180,0.8451731000022846,['y'],0.9817422999985865,2.0,10,10,10,10,1.0,1.0,,521,20,Woman,Right,,,,,,,,,,,,,,,,,521,20,Woman,Right,
4,2,0.4,180,0,0,0.9657783000002382,['y'],1.0413960000005318,1.762,,,,,,,,521,20,Woman,Right,,,,,,,,,,,,,,,,,521,20,Woman,Right,
4,2,0.15,0,180,180,0.7505835999982082,['n'],1.2105800999997882,1.214,,,,,,,,521,20,Woman,Right,,,,,,,,,,,,,,,,,521,20,Woman,Right,
4,2,0.4,0,180,180,1.106891399998858,['y'],0.3942363999958616,2.0,,,,,,,,521,20,Woman,Right,,,,,,,,,,,,,,,,,521,20,Woman,Right,
4,2,0.4,0,180,180,0.5657728000005591,['y'],0.5385947999966447,2.0,,,,,,,,521,20,Woman,Right,,,,,,,,,,,,,,,,,521,20,Woman,Right,
4,2,0.15,180,0,0,0.725988199999847,['y'],0.4839933999974164,1.892,,,,,,,,521,20,Woman,Right,,,,,,,,,,,,,,,,,521,20,Woman,Right,
4,2,0.4,0,180,180,0.5847672000018065,['y'],1.212128599996504,2.0,,,,,,,,521,20,Woman,Right,,,,,,,,,,,,,,,,,521,20,Woman,Right,
4,2,0.15,0,180,180,0.5992286999971839,['y'],1.2172903000027873,1.302,,,,,,,,521,20,Woman,Right,,,,,,,,,,,,,,,,,521,20,Woman,Right,
4,2,0.15,180,0,0,0.8797583999985363,['y'],0.6963317999980063,1.416,,,,,,,,521,20,Woman,Right,,,,,,,,,,,,,,,,,521,20,Woman,Right,
4,2,0.15,180,0,0,1.5312529000002542,['y'],1.0657150000042748,1.3940000000000001,,,,,,,,521,20,Woman,Right,,,,,,,,,,,,,,,,,521,20,Woman,Right,
4,2,0.4,180,0,0,0.6239483000026667,['y'],0.8185022999969078,1.904,10,5,10,5,1.0,1.0,,521,20,Woman,Right,,,,,,,,,,,,,,,,,521,20,Woman,Right,
5,3,0.15,0,180,0,0.614813400003186,['y'],1.2573910999999498,1.084,,,,,,,,521,20,Woman,Right,,,,,,,,,,,,,,,,,521,20,Woman,Right,
5,3,1.0,180,0,0,0.7206551999988733,['y'],1.0861087000012049,2.0,,,,,,,,521,20,Woman,Right,,,,,,,,,,,,,,,,,521,20,Woman,Right,
5,3,0.15,0,180,0,0.9252966999993077,['y'],1.0424570999966818,1.054,,,,,,,,521,20,Woman,Right,,,,,,,,,,,,,,,,,521,20,Woman,Right,
5,3,0.15,180,-,180,0.6399616000053356,['y'],0.6478384000001824,1.13,,,,,,,,521,20,Woman,Right,,,,,,,,,,,,,,,,,521,20,Woman,Right,
5,3,0.15,0,-,180,3.026383000003989,['n'],1.2755676000015228,1.256,,,,,,,,521,20,Woman,Right,,,,,,,,,,,,,,,,,521,20,Woman,Right,
5,3,0.15,180,0,0,0.8788608999966527,['y'],1.0225836999961757,1.748,,,,,,,,521,20,Woman,Right,,,,,,,,,,,,,,,,,521,20,Woman,Right,
5,3,1.0,0,180,180,0.9252294000034453,['y'],0.7865486000009696,2.0,,,,,,,,521,20,Woman,Right,,,,,,,,,,,,,,,,,521,20,Woman,Right,
5,3,0.4,180,0,0,0.7926030999951763,['y'],0.5313897000014549,1.996,,,,,,,,521,20,Woman,Right,,,,,,,,,,,,,,,,,521,20,Woman,Right,
5,3,1.0,0,180,180,0.49508229999628384,['y'],0.8953060999992886,2.0,,,,,,,,521,20,Woman,Right,,,,,,,,,,,,,,,,,521,20,Woman,Right,
5,3,1.0,0,-,0,1.2070381000012276,['n'],0.81736390000151,1.988,7,5,10,5,0.7,1.0,,521,20,Woman,Right,,,,,,,,,,,,,,,,,521,20,Woman,Right,
,,,,,,,,,,,,,,,,4.599998646881431e-06,521,20,Woman,Right,,,,,,,,,,,,,,,,,521,20,Woman,Right,
,,,,,,,,,,,,,,,,,521,20,Woman,Right,0,54,0.15,1,180,-,180,0.8539692000049399,['y'],4.432266800002253,1.338,306.23525119999977,,,,,521,20,Woman,Right,
,,,,,,,,,,,,,,,,,521,20,Woman,Right,0,23,0.4,2,180,0,0,1.093763199998648,['y'],2.199939899997844,1.82,313.35122469999624,,,,,521,20,Woman,Right,
,,,,,,,,,,,,,,,,,521,20,Woman,Right,0,31,0.4,2,180,0,0,1.001136900005804,['y'],1.7596436999956495,1.756,319.31856210000115,,,,,521,20,Woman,Right,
,,,,,,,,,,,,,,,,,521,20,Woman,Right,0,52,0.15,1,0,-,0,1.6680278000058024,['n'],1.5194468999980018,1.26,326.9678313999975,,,,,521,20,Woman,Right,
,,,,,,,,,,,,,,,,,521,20,Woman,Right,0,68,0.15,1,0,-,0,3.3042176000017207,['y'],1.4477868999965722,1.244,335.43525260000024,,,,,521,20,Woman,Right,
,,,,,,,,,,,,,,,,,521,20,Woman,Right,0,29,0.4,2,0,180,180,0.6540352000010898,['y'],1.2878821999984211,1.74,340.53461029999744,,,,,521,20,Woman,Right,
,,,,,,,,,,,,,,,,,521,20,Woman,Right,0,72,0.15,1,0,-,0,3.496776600004523,['n'],1.111822500002745,1.048,349.2686850999962,,,,,521,20,Woman,Right,
,,,,,,,,,,,,,,,,,521,20,Woman,Right,0,75,0.15,2,180,0,0,1.6845248999961768,['y'],2.383074999997916,1.57,356.73457770000095,,,,,521,20,Woman,Right,
,,,,,,,,,,,,,,,,,521,20,Woman,Right,0,53,0.15,2,0,180,180,1.40649530000519,['y'],1.047859199999948,1.5739999999999998,362.4512695000012,,,,,521,20,Woman,Right,
,,,,,,,,,,,,,,,,,521,20,Woman,Right,0,35,0.4,2,180,0,0,1.0232469999973546,['y'],0.9673430999973789,1.596,367.66858549999597,,,,,521,20,Woman,Right,
,,,,,,,,,,,,,,,,,521,20,Woman,Right,0,6,1,1,180,-,180,1.3190580000009504,['n'],1.0886180000015884,1.88,373.56857789999776,,,,,521,20,Woman,Right,
,,,,,,,,,,,,,,,,,521,20,Woman,Right,0,21,0.4,2,0,180,180,1.0784331999966525,['y'],1.0317296000066563,1.976,379.35129269999743,,,,,521,20,Woman,Right,
,,,,,,,,,,,,,,,,,521,20,Woman,Right,0,76,0.15,1,0,-,0,1.25519820000045,['n'],1.0235656000004383,1.26,385.30132149999554,,,,,521,20,Woman,Right,
,,,,,,,,,,,,,,,,,521,20,Woman,Right,0,41,0.4,2,0,180,180,0.9543944000033662,['y'],1.1837586000037845,1.6400000000000001,391.10136119999515,,,,,521,20,Woman,Right,
,,,,,,,,,,,,,,,,,521,20,Woman,Right,0,44,0.15,1,0,-,0,0.9594345000004978,['n'],0.919632899996941,1.312,397.28519529999903,,,,,521,20,Woman,Right,
,,,,,,,,,,,,,,,,,521,20,Woman,Right,0,55,0.15,2,180,0,0,0.9910289999970701,['n'],0.9348734000013792,1.3599999999999999,402.2686861999973,,,,,521,20,Woman,Right,
,,,,,,,,,,,,,,,,,521,20,Woman,Right,0,64,0.15,1,0,-,0,0.7902525000026799,['n'],1.064195999999356,1.31,407.01801870000054,,,,,521,20,Woman,Right,
,,,,,,,,,,,,,,,,,521,20,Woman,Right,0,9,0.4,2,0,180,180,1.0525323000038043,['y'],1.2959188999957405,1.684,412.151388899998,,,,,521,20,Woman,Right,
,,,,,,,,,,,,,,,,,521,20,Woman,Right,0,2,1,1,180,-,180,0.9254167999970377,['n'],0.9837387000006856,1.954,417.5013024,,,,,521,20,Woman,Right,
,,,,,,,,,,,,,,,,,521,20,Woman,Right,0,51,0.15,2,180,0,0,1.2308151999968686,['y'],0.8884127999990596,1.44,423.78469459999906,,,,,521,20,Woman,Right,
,,,,,,,,,,,,,,,,,521,20,Woman,Right,0,57,0.15,2,0,180,0,1.132742200003122,['y'],1.4078212999957032,1.4020000000000001,429.9689409999992,,,,,521,20,Woman,Right,
,,,,,,,,,,,,,,,,,521,20,Woman,Right,0,33,0.4,2,0,180,180,0.47230120000313036,['y'],1.6639154000004055,1.828,435.8353691000011,,,,,521,20,Woman,Right,
,,,,,,,,,,,,,,,,,521,20,Woman,Right,0,66,0.15,1,180,-,180,1.9904087999966578,['y'],1.1682569999975385,1.104,443.06870779999736,,,,,521,20,Woman,Right,
,,,,,,,,,,,,,,,,,521,20,Woman,Right,0,0,1,1,0,-,0,0.7635215999980574,['n'],0.8883456000039587,1.984,447.71802919999755,,,,,521,20,Woman,Right,
,,,,,,,,,,,,,,,,,521,20,Woman,Right,0,5,1,2,0,180,180,0.6290619000064908,['y'],1.0475979000038933,1.938,452.5181020999953,,,,,521,20,Woman,Right,
,,,,,,,,,,,,,,,,,521,20,Woman,Right,0,36,0.4,1,0,-,0,0.94063240000105,['n'],2.2480540000033216,1.728,458.7513927999971,,,,,521,20,Woman,Right,
,,,,,,,,,,,,,,,,,521,20,Woman,Right,0,42,0.4,1,180,-,180,0.8752006999930018,['y'],1.0720498000009684,1.0,464.35140749999846,,,,,521,20,Woman,Right,
,,,,,,,,,,,,,,,,,521,20,Woman,Right,0,71,0.15,2,180,0,180,2.354649699998845,['y'],1.847173299996939,1.0,472.151790099997,,,,,521,20,Woman,Right,
,,,,,,,,,,,,,,,,,521,20,Woman,Right,0,77,0.15,2,0,180,180,0.593647100002272,['y'],1.0325050999963423,1.432,477.36810559999867,,,,,521,20,Woman,Right,
,,,,,,,,,,,,,,,,,521,20,Woman,Right,0,43,0.4,2,180,0,0,0.668598700001894,['y'],0.9517650999987382,1.658,482.2015595999983,,,,,521,20,Woman,Right,
,,,,,,,,,,,,,,,,,521,20,Woman,Right,0,39,0.4,2,180,0,0,1.0194497000047704,['y'],0.992342199999257,1.8439999999999999,487.58473740000045,,,,,521,20,Woman,Right,
,,,,,,,,,,,,,,,,,521,20,Woman,Right,0,56,0.15,1,0,-,0,0.8449640999970143,['n'],0.9761159999980009,1.27,492.8354599999948,,,,,521,20,Woman,Right,
,,,,,,,,,,,,,,,,,521,20,Woman,Right,0,73,0.15,2,0,180,180,0.7632053999986965,['n'],8.105001600000833,1.004,505.4181772000011,,,,,521,20,Woman,Right,
,,,,,,,,,,,,,,,,,521,20,Woman,Right,0,78,0.15,1,180,-,0,0.49590449999959674,['y'],1.0798514999987674,1.314,510.50148709999485,,,,,521,20,Woman,Right,
,,,,,,,,,,,,,,,,,521,20,Woman,Right,0,7,1,2,180,0,0,1.0254044999965117,['y'],0.9358263000031002,1.96,515.6847734999974,,,,,521,20,Woman,Right,
,,,,,,,,,,,,,,,,,521,20,Woman,Right,0,14,0.4,1,180,-,180,0.7030278000020189,['n'],1.015475599997444,1.212,520.3347792999994,,,,,521,20,Woman,Right,
,,,,,,,,,,,,,,,,,521,20,Woman,Right,0,58,0.15,1,180,-,0,2.0858264999988023,['y'],1.256176000002597,1.0,527.0355692999947,,,,,521,20,Woman,Right,
,,,,,,,,,,,,,,,,,521,20,Woman,Right,0,47,0.15,2,180,0,0,0.6501414000013028,['y'],1.1115219999992405,1.012,531.7856369000001,,,,,521,20,Woman,Right,
,,,,,,,,,,,,,,,,,521,20,Woman,Right,0,16,0.4,1,0,-,0,0.43352389999927254,['n'],1.0312687999976333,1.866,536.119188699995,,,,,521,20,Woman,Right,
,,,,,,,,,,,,,,,,,521,20,Woman,Right,0,30,0.4,1,180,-,180,0.7661651000016718,['n'],0.8495188000015332,1.366,540.8353405000016,,,,,521,20,Woman,Right,
,,,,,,,,,,,,,,,,,521,20,Woman,Right,0,1,1,2,0,180,180,0.963646999996854,['y'],1.1830467999971006,1.84,546.468363699998,,,,,521,20,Woman,Right,
,,,,,,,,,,,,,,,,,521,20,Woman,Right,0,17,0.4,2,0,180,180,0.6158680000007735,['y'],0.9357518000033451,1.84,551.685519300001,,,,,521,20,Woman,Right,
,,,,,,,,,,,,,,,,,521,20,Woman,Right,0,61,0.15,2,0,180,180,0.7371964999983902,['y'],1.0720293999984278,1.318,556.5515178999995,,,,,521,20,Woman,Right,
,,,,,,,,,,,,,,,,,521,20,Woman,Right,0,59,0.15,2,180,0,0,0.6743704999971669,['y'],0.9033942000023671,1.326,561.3515152999971,,,,,521,20,Woman,Right,
,,,,,,,,,,,,,,,,,521,20,Woman,Right,0,45,0.15,2,0,180,180,0.5884408999991138,['y'],0.9111286999977892,1.346,566.5848385999998,,,,,521,20,Woman,Right,
,,,,,,,,,,,,,,,,,521,20,Woman,Right,0,4,1,1,0,-,0,0.5892397999996319,['n'],0.919760500000848,1.762,571.0181254999989,,,,,521,20,Woman,Right,
,,,,,,,,,,,,,,,,,521,20,Woman,Right,0,50,0.15,1,180,-,180,1.0652594999992289,['y'],0.999458099999174,1.01,576.3015024999986,,,,,521,20,Woman,Right,
,,,,,,,,,,,,,,,,,521,20,Woman,Right,0,10,0.4,1,180,-,0,1.757239099999424,['y'],0.9032120000047144,1.13,582.3348060999997,,,,,521,20,Woman,Right,
,,,,,,,,,,,,,,,,,521,20,Woman,Right,0,48,0.15,1,0,-,0,1.6332070999997086,['n'],2.5204765000016778,1.242,590.6015463000003,,,,,521,20,Woman,Right,
,,,,,,,,,,,,,,,,,521,20,Woman,Right,0,38,0.4,1,180,-,180,1.0003369000041857,['n'],1.4401180999993812,1.3559999999999999,597.3349325999952,,,,,521,20,Woman,Right,
,,,,,,,,,,,,,,,,,521,20,Woman,Right,0,20,0.4,1,0,-,0,1.1227823000008357,['n'],1.10369200000423,1.4020000000000001,602.9515489999976,,,,,521,20,Woman,Right,
,,,,,,,,,,,,,,,,,521,20,Woman,Right,0,24,0.4,1,0,-,180,1.3599490999986301,['y'],0.9838040000031469,1.064,609.2181692999948,,,,,521,20,Woman,Right,
,,,,,,,,,,,,,,,,,521,20,Woman,Right,0,13,0.4,2,0,180,180,1.8767353000002913,['y'],1.183595200003765,1.264,615.4682031999982,,,,,521,20,Woman,Right,
,,,,,,,,,,,,,,,,,521,20,Woman,Right,0,22,0.4,1,180,-,0,1.847902300003625,['y'],0.9276320999997552,1.0,621.5688855999979,,,,,521,20,Woman,Right,
,,,,,,,,,,,,,,,,,521,20,Woman,Right,0,79,0.15,2,180,0,0,1.2252230000012787,['y'],0.9991741999983788,1.62,626.5689496999985,,,,,521,20,Woman,Right,
,,,,,,,,,,,,,,,,,521,20,Woman,Right,0,27,0.4,2,180,0,0,1.5509997999979532,['y'],1.8797749000004842,1.73,632.6181915999987,,,,,521,20,Woman,Right,
,,,,,,,,,,,,,,,,,521,20,Woman,Right,0,18,0.4,1,180,-,180,1.4615752000026987,['n'],1.0159155000001192,1.3359999999999999,638.0355854000009,,,,,521,20,Woman,Right,
,,,,,,,,,,,,,,,,,521,20,Woman,Right,0,74,0.15,1,180,-,180,3.062486299997545,['n'],0.9832520999989356,1.026,646.0015668999986,,,,,521,20,Woman,Right,
,,,,,,,,,,,,,,,,,521,20,Woman,Right,0,46,0.15,1,180,-,0,2.609744599998521,['y'],1.2314227000024403,1.002,653.0015410999986,,,,,521,20,Woman,Right,
,,,,,,,,,,,,,,,,,521,20,Woman,Right,0,28,0.4,1,0,-,0,0.7342874000023585,['n'],0.8555128000007244,1.024,657.9017142000012,,,,,521,20,Woman,Right,
,,,,,,,,,,,,,,,,,521,20,Woman,Right,0,37,0.4,2,0,180,180,1.0128869999971357,['y'],1.2000763000032748,1.608,663.3356236999971,,,,,521,20,Woman,Right,
,,,,,,,,,,,,,,,,,521,20,Woman,Right,0,19,0.4,2,180,0,0,0.9660625999968033,['y'],1.2320228000025963,1.682,668.3354095999966,,,,,521,20,Woman,Right,
,,,,,,,,,,,,,,,,,521,20,Woman,Right,0,25,0.4,2,0,180,180,1.343479600000137,['y'],1.3286077000011574,1.74,674.101599499998,,,,,521,20,Woman,Right,
,,,,,,,,,,,,,,,,,521,20,Woman,Right,0,26,0.4,1,180,-,0,1.7392302000007476,['y'],0.79155670000182,1.238,679.9515599000006,,,,,521,20,Woman,Right,
,,,,,,,,,,,,,,,,,521,20,Woman,Right,0,15,0.4,2,180,0,0,0.6430192999978317,['y'],0.9443864000058966,1.718,684.3517694999973,,,,,521,20,Woman,Right,
,,,,,,,,,,,,,,,,,521,20,Woman,Right,0,67,0.15,2,180,0,0,0.6211544000034337,['y'],3.0712730000013835,1.65,691.1857754999946,,,,,521,20,Woman,Right,
,,,,,,,,,,,,,,,,,521,20,Woman,Right,0,63,0.15,2,180,0,0,0.9054092000005767,['y'],0.9831055000031483,1.6400000000000001,695.8190347999989,,,,,521,20,Woman,Right,
,,,,,,,,,,,,,,,,,521,20,Woman,Right,0,12,0.4,1,0,-,0,1.2857810000059544,['n'],0.9353914000021177,1.3820000000000001,701.4849729999987,,,,,521,20,Woman,Right,
,,,,,,,,,,,,,,,,,521,20,Woman,Right,0,65,0.15,2,0,180,0,1.5354982999997446,['y'],2.3039726999995764,1.208,708.7183354000008,,,,,521,20,Woman,Right,
,,,,,,,,,,,,,,,,,521,20,Woman,Right,0,40,0.4,1,0,-,0,0.725332800000615,['n'],0.8402191999994102,1.646,713.5350685999947,,,,,521,20,Woman,Right,
,,,,,,,,,,,,,,,,,521,20,Woman,Right,0,32,0.4,1,0,-,0,1.1762369999996736,['n'],1.4717199000006076,1.554,719.3853747999965,,,,,521,20,Woman,Right,
,,,,,,,,,,,,,,,,,521,20,Woman,Right,0,70,0.15,1,180,-,180,0.6095886000039172,['n'],0.943499699998938,1.278,725.0864880000008,,,,,521,20,Woman,Right,
,,,,,,,,,,,,,,,,,521,20,Woman,Right,0,3,1,2,180,0,0,0.9214685999977519,['y'],0.9276647000006051,2.0,729.9685328999985,,,,,521,20,Woman,Right,
,,,,,,,,,,,,,,,,,521,20,Woman,Right,0,60,0.15,1,0,-,0,1.2919508999984828,['n'],1.1999368000033428,1.016,735.6191074999952,,,,,521,20,Woman,Right,
,,,,,,,,,,,,,,,,,521,20,Woman,Right,0,11,0.4,2,180,0,0,1.0002845999988494,['y'],1.1598211000018637,1.952,740.6015954999966,,,,,521,20,Woman,Right,
,,,,,,,,,,,,,,,,,521,20,Woman,Right,0,8,0.4,1,0,-,0,0.5942426999972668,['n'],1.0798270000013872,1.346,745.8190921999994,,,,,521,20,Woman,Right,
,,,,,,,,,,,,,,,,,521,20,Woman,Right,0,49,0.15,2,0,180,0,0.5907838999992236,['n'],1.0956443999966723,1.12,750.7017979000011,,,,,521,20,Woman,Right,
,,,,,,,,,,,,,,,,,521,20,Woman,Right,0,62,0.15,1,180,-,0,1.2267802999995183,['n'],1.0239411000002292,1.0,756.0016501999999,,,,,521,20,Woman,Right,
,,,,,,,,,,,,,,,,,521,20,Woman,Right,0,69,0.15,2,0,180,0,2.01145529999485,['n'],0.847753099995316,1.002,761.7858089000001,,,,,521,20,Woman,Right,
,,,,,,,,,,,,,,,,,521,20,Woman,Right,0,34,0.4,1,180,-,180,0.6680035000026692,['n'],0.8237168999985442,1.006,766.3517742999975,,,,,521,20,Woman,Right,
,,,,,,,,,,,,,,,,,521,20,Woman,Right,1,78,0.15,1,180,-,0,0.8953258999972604,['y'],1.3034708999985014,1.088,781.0691261999964,83.75,70.0,90.0,,521,20,Woman,Right,
,,,,,,,,,,,,,,,,,521,20,Woman,Right,1,54,0.15,1,180,-,0,0.6770058999973116,['y'],1.3759405000018887,1.17,786.4184620000015,,,,,521,20,Woman,Right,
,,,,,,,,,,,,,,,,,521,20,Woman,Right,1,69,0.15,2,0,180,180,0.8663201999952435,['n'],1.631583900001715,1.2,792.1017321999971,,,,,521,20,Woman,Right,
,,,,,,,,,,,,,,,,,521,20,Woman,Right,1,46,0.15,1,180,-,0,0.5757740000044578,['n'],4.393124500005797,1.1179999999999999,800.135704100001,,,,,521,20,Woman,Right,
,,,,,,,,,,,,,,,,,521,20,Woman,Right,1,57,0.15,2,0,180,0,0.6906810000000405,['n'],1.9442789999957313,1.09,805.8518317999988,,,,,521,20,Woman,Right,
,,,,,,,,,,,,,,,,,521,20,Woman,Right,1,75,0.15,2,180,0,0,0.5091835000057472,['n'],0.7674506999974255,1.02,810.051850799995,,,,,521,20,Woman,Right,
,,,,,,,,,,,,,,,,,521,20,Woman,Right,1,74,0.15,1,180,-,180,0.451095800002804,['n'],1.5281733000010718,1.03,814.8360595999984,,,,,521,20,Woman,Right,
,,,,,,,,,,,,,,,,,521,20,Woman,Right,1,55,0.15,2,180,0,0,1.4963904000032926,['y'],1.0317976000005729,1.052,820.7357498999991,,,,,521,20,Woman,Right,
,,,,,,,,,,,,,,,,,521,20,Woman,Right,1,8,0.4,1,0,-,0,1.353609099998721,['n'],1.680140600001323,1.07,826.369134499997,,,,,521,20,Woman,Right,
,,,,,,,,,,,,,,,,,521,20,Woman,Right,1,37,0.4,2,0,180,180,0.7772392999977455,['y'],1.2790699999968638,1.754,831.6519559000008,,,,,521,20,Woman,Right,
,,,,,,,,,,,,,,,,,521,20,Woman,Right,1,52,0.15,1,0,-,0,0.9522976000007475,['y'],0.9352356999952463,1.19,836.2687168999983,,,,,521,20,Woman,Right,
,,,,,,,,,,,,,,,,,521,20,Woman,Right,1,47,0.15,2,180,0,180,0.972195999995165,['n'],0.8236650000035297,1.116,840.718933600001,,,,,521,20,Woman,Right,
,,,,,,,,,,,,,,,,,521,20,Woman,Right,1,13,0.4,2,0,180,180,0.7495581999974092,['y'],0.919742000005499,1.858,845.085556799997,,,,,521,20,Woman,Right,
,,,,,,,,,,,,,,,,,521,20,Woman,Right,1,1,1,2,0,180,180,0.5669558000008692,['y'],0.898283899994567,1.962,849.6190596000015,,,,,521,20,Woman,Right,
,,,,,,,,,,,,,,,,,521,20,Woman,Right,1,62,0.15,1,180,-,180,1.0205470000000787,['n'],0.8077878000040073,1.166,854.2019351999988,,,,,521,20,Woman,Right,
,,,,,,,,,,,,,,,,,521,20,Woman,Right,1,5,1,2,0,180,180,0.45566210000106366,['y'],1.1199399000033736,2.0,858.7185593999966,,,,,521,20,Woman,Right,
,,,,,,,,,,,,,,,,,521,20,Woman,Right,1,72,0.15,1,0,-,180,2.3840001999997185,['y'],0.8071334999985993,1.1179999999999999,865.6018440999978,,,,,521,20,Woman,Right,
,,,,,,,,,,,,,,,,,521,20,Woman,Right,1,44,0.15,1,0,-,0,0.7997052999999141,['n'],0.7672573000018019,1.576,870.4518391999954,,,,,521,20,Woman,Right,
,,,,,,,,,,,,,,,,,521,20,Woman,Right,1,26,0.4,1,180,-,180,1.906204799997795,['y'],0.8076751000044169,1.0939999999999999,877.0859089000005,,,,,521,20,Woman,Right,
,,,,,,,,,,,,,,,,,521,20,Woman,Right,1,70,0.15,1,180,-,180,1.442970800002513,['y'],1.4319923000002746,1.0,884.0518971999991,,,,,521,20,Woman,Right,
,,,,,,,,,,,,,,,,,521,20,Woman,Right,1,30,0.4,1,180,-,180,0.60436280000431,['n'],0.5268809000044712,1.57,888.9518640999959,,,,,521,20,Woman,Right,
,,,,,,,,,,,,,,,,,521,20,Woman,Right,1,48,0.15,1,0,-,180,1.3067418999999063,['n'],0.6398183999990579,1.0,894.2861539000005,,,,,521,20,Woman,Right,
,,,,,,,,,,,,,,,,,521,20,Woman,Right,1,35,0.4,2,180,0,0,0.7859515000018291,['y'],0.967551400004595,1.974,898.8185044999991,,,,,521,20,Woman,Right,
,,,,,,,,,,,,,,,,,521,20,Woman,Right,1,39,0.4,2,180,0,0,0.5003268999935244,['y'],1.0371460000023944,1.984,903.235368099995,,,,,521,20,Woman,Right,
,,,,,,,,,,,,,,,,,521,20,Woman,Right,1,61,0.15,2,0,180,0,2.0405747999975574,['n'],0.6313999999983935,1.0,908.9193035999997,,,,,521,20,Woman,Right,
,,,,,,,,,,,,,,,,,521,20,Woman,Right,1,73,0.15,2,0,180,0,1.6050184999985504,['y'],0.6961630000005243,1.1440000000000001,914.7852346,,,,,521,20,Woman,Right,
,,,,,,,,,,,,,,,,,521,20,Woman,Right,1,10,0.4,1,180,-,180,0.599740000005113,['n'],0.9195679999975255,1.28,919.6189988999977,,,,,521,20,Woman,Right,
,,,,,,,,,,,,,,,,,521,20,Woman,Right,1,41,0.4,2,0,180,180,0.5703141999983927,['y'],0.9039661999995587,1.804,923.7692210999958,,,,,521,20,Woman,Right,
,,,,,,,,,,,,,,,,,521,20,Woman,Right,1,34,0.4,1,180,-,180,0.5408615999986068,['n'],0.591547800002445,1.626,927.7020019999982,,,,,521,20,Woman,Right,
,,,,,,,,,,,,,,,,,521,20,Woman,Right,1,7,1,2,180,0,0,0.5466653999974369,['y'],0.9276201000029687,1.77,932.001866300001,,,,,521,20,Woman,Right,
,,,,,,,,,,,,,,,,,521,20,Woman,Right,1,0,1,1,0,-,0,0.6760028999997303,['n'],1.247543500001484,1.832,936.8187341999947,,,,,521,20,Woman,Right,
,,,,,,,,,,,,,,,,,521,20,Woman,Right,1,36,0.4,1,0,-,0,1.320922300001257,['n'],1.2560688000012306,1.172,943.1352460999988,,,,,521,20,Woman,Right,
,,,,,,,,,,,,,,,,,521,20,Woman,Right,1,59,0.15,2,180,0,0,0.5778126000004704,['n'],0.7518768999943859,1.15,947.3696507999994,,,,,521,20,Woman,Right,
,,,,,,,,,,,,,,,,,521,20,Woman,Right,1,25,0.4,2,0,180,180,1.021753200002422,['y'],0.7844308999992791,1.698,953.1020246999979,,,,,521,20,Woman,Right,
,,,,,,,,,,,,,,,,,521,20,Woman,Right,1,4,1,1,0,-,0,0.534611600000062,['n'],0.6557991000008769,1.678,957.2522947999969,,,,,521,20,Woman,Right,
,,,,,,,,,,,,,,,,,521,20,Woman,Right,1,32,0.4,1,0,-,0,0.41723929999716347,['n'],0.9761680999945384,1.358,961.3686617999992,,,,,521,20,Woman,Right,
,,,,,,,,,,,,,,,,,521,20,Woman,Right,1,9,0.4,2,0,180,180,0.6472836000029929,['y'],0.639606199998525,1.662,965.5020061999967,,,,,521,20,Woman,Right,
,,,,,,,,,,,,,,,,,521,20,Woman,Right,1,63,0.15,2,180,0,0,1.0374504999999772,['y'],0.9118114000011701,1.674,970.2853316999972,,,,,521,20,Woman,Right,
,,,,,,,,,,,,,,,,,521,20,Woman,Right,1,15,0.4,2,180,0,0,0.5779410999966785,['y'],0.9039648000034504,1.588,974.3686253999986,,,,,521,20,Woman,Right,
,,,,,,,,,,,,,,,,,521,20,Woman,Right,1,49,0.15,2,0,180,0,0.5660609999977169,['n'],0.7042870000004768,1.588,978.3352818999992,,,,,521,20,Woman,Right,
,,,,,,,,,,,,,,,,,521,20,Woman,Right,1,16,0.4,1,0,-,0,0.47364180000295164,['n'],0.6639236999981222,1.588,982.2523776999951,,,,,521,20,Woman,Right,
,,,,,,,,,,,,,,,,,521,20,Woman,Right,1,21,0.4,2,0,180,180,0.6864388000030885,['y'],1.0716858000014327,1.8519999999999999,987.7519471999985,,,,,521,20,Woman,Right,
,,,,,,,,,,,,,,,,,521,20,Woman,Right,1,33,0.4,2,0,180,180,0.441709600003378,['y'],1.039774299999408,1.83,991.6687638000003,,,,,521,20,Woman,Right,
,,,,,,,,,,,,,,,,,521,20,Woman,Right,1,42,0.4,1,180,-,180,0.6379727000021376,['n'],0.903977500005567,1.69,996.4522778999963,,,,,521,20,Woman,Right,
,,,,,,,,,,,,,,,,,521,20,Woman,Right,1,43,0.4,2,180,0,0,0.44020620000083,['y'],1.2238288000007742,1.748,1000.7186577999964,,,,,521,20,Woman,Right,
,,,,,,,,,,,,,,,,,521,20,Woman,Right,1,31,0.4,2,180,0,0,0.5057316000020364,['y'],0.7120952999975998,1.748,1004.618679399995,,,,,521,20,Woman,Right,
,,,,,,,,,,,,,,,,,521,20,Woman,Right,1,28,0.4,1,0,-,0,0.5341397000011057,['n'],0.7049878000034369,1.752,1008.5194130999953,,,,,521,20,Woman,Right,
,,,,,,,,,,,,,,,,,521,20,Woman,Right,1,53,0.15,2,0,180,180,0.9667967000059434,['n'],1.2638724999997066,1.0,1013.6686682,,,,,521,20,Woman,Right,
,,,,,,,,,,,,,,,,,521,20,Woman,Right,1,58,0.15,1,180,-,180,0.5401531999959843,['n'],1.0316640000019106,1.0,1018.7686444999999,,,,,521,20,Woman,Right,
,,,,,,,,,,,,,,,,,521,20,Woman,Right,1,65,0.15,2,0,180,180,0.7671166000000085,['y'],0.744613400005619,1.068,1023.8020832999973,,,,,521,20,Woman,Right,
,,,,,,,,,,,,,,,,,521,20,Woman,Right,1,18,0.4,1,180,-,180,0.5700770000039483,['n'],0.7993054000035045,1.1480000000000001,1028.1525535999972,,,,,521,20,Woman,Right,
,,,,,,,,,,,,,,,,,521,20,Woman,Right,1,19,0.4,2,180,0,0,0.4575080000067828,['y'],0.879769800005306,1.712,1032.0698970000012,,,,,521,20,Woman,Right,
,,,,,,,,,,,,,,,,,521,20,Woman,Right,1,40,0.4,1,0,-,0,0.47613429999910295,['n'],0.6556417000028887,1.784,1035.8520375000007,,,,,521,20,Woman,Right,
,,,,,,,,,,,,,,,,,521,20,Woman,Right,1,20,0.4,1,0,-,0,0.5848704000018188,['n'],2.0321464000007836,1.756,1040.986060299998,,,,,521,20,Woman,Right,
,,,,,,,,,,,,,,,,,521,20,Woman,Right,1,51,0.15,2,180,0,0,1.363229800001136,['n'],0.9196831000008387,1.1099999999999999,1046.0856851999997,,,,,521,20,Woman,Right,
,,,,,,,,,,,,,,,,,521,20,Woman,Right,1,67,0.15,2,180,0,0,0.8020304000019678,['n'],0.8874083000046085,1.218,1050.5856033000018,,,,,521,20,Woman,Right,
,,,,,,,,,,,,,,,,,521,20,Woman,Right,1,60,0.15,1,0,-,0,0.8386902999991435,['y'],1.4156707000001916,1.018,1056.2686880999972,,,,,521,20,Woman,Right,
,,,,,,,,,,,,,,,,,521,20,Woman,Right,1,24,0.4,1,0,-,0,0.5823801000005915,['n'],0.6076493000000482,1.6219999999999999,1060.3187178000007,,,,,521,20,Woman,Right,
,,,,,,,,,,,,,,,,,521,20,Woman,Right,1,6,1,1,180,-,180,0.4355236000046716,['n'],1.407942700003332,1.714,1065.0860647000009,,,,,521,20,Woman,Right,
,,,,,,,,,,,,,,,,,521,20,Woman,Right,1,76,0.15,1,0,-,180,1.5344158000007155,['y'],0.8957834999964689,1.294,1070.2531292999993,,,,,521,20,Woman,Right,
,,,,,,,,,,,,,,,,,521,20,Woman,Right,1,71,0.15,2,180,0,0,0.801446900004521,['y'],1.2882634000052349,1.214,1075.4194167999958,,,,,521,20,Woman,Right,
,,,,,,,,,,,,,,,,,521,20,Woman,Right,1,56,0.15,1,0,-,0,0.5569959999993443,['y'],1.214982500001497,1.184,1080.4690979000006,,,,,521,20,Woman,Right,
,,,,,,,,,,,,,,,,,521,20,Woman,Right,1,66,0.15,1,180,-,180,0.8128235000040149,['n'],1.1915800999995554,1.226,1085.385490499997,,,,,521,20,Woman,Right,
,,,,,,,,,,,,,,,,,521,20,Woman,Right,1,27,0.4,2,180,0,0,0.5836202999998932,['y'],0.8831004000021494,1.822,1089.3695227999997,,,,,521,20,Woman,Right,
,,,,,,,,,,,,,,,,,521,20,Woman,Right,1,77,0.15,2,0,180,180,0.6340502000020933,['y'],1.599835000000894,1.008,1094.8187337999989,,,,,521,20,Woman,Right,
,,,,,,,,,,,,,,,,,521,20,Woman,Right,1,12,0.4,1,0,-,0,0.5202030000000377,['y'],1.1830644000001485,1.284,1099.6863056000002,,,,,521,20,Woman,Right,
,,,,,,,,,,,,,,,,,521,20,Woman,Right,1,2,1,1,180,-,180,0.5553538000021945,['n'],1.2478521000011824,1.6520000000000001,1104.0520911999993,,,,,521,20,Woman,Right,
,,,,,,,,,,,,,,,,,521,20,Woman,Right,1,79,0.15,2,180,0,0,0.6560574999966775,['y'],0.943743000003451,1.33,1109.0024524999972,,,,,521,20,Woman,Right,
,,,,,,,,,,,,,,,,,521,20,Woman,Right,1,50,0.15,1,180,-,0,0.5420069000028889,['y'],0.7518295000045327,1.0,1113.5021216999958,,,,,521,20,Woman,Right,
,,,,,,,,,,,,,,,,,521,20,Woman,Right,1,64,0.15,1,0,-,0,0.6557933000003686,['n'],0.6878215999968234,1.1360000000000001,1117.7355936999957,,,,,521,20,Woman,Right,
,,,,,,,,,,,,,,,,,521,20,Woman,Right,1,22,0.4,1,180,-,0,0.6465592000022298,['y'],1.0318895000018529,1.19,1122.2691512999954,,,,,521,20,Woman,Right,
,,,,,,,,,,,,,,,,,521,20,Woman,Right,1,14,0.4,1,180,-,180,1.1861314000052516,['n'],0.8478264000004856,1.0,1127.4024252000017,,,,,521,20,Woman,Right,
,,,,,,,,,,,,,,,,,521,20,Woman,Right,1,11,0.4,2,180,0,0,0.526491900003748,['y'],0.9118355000027805,1.918,1131.5021039999992,,,,,521,20,Woman,Right,
,,,,,,,,,,,,,,,,,521,20,Woman,Right,1,29,0.4,2,0,180,180,1.2094693000035477,['y'],1.063223700002709,1.766,1136.6355527999985,,,,,521,20,Woman,Right,
,,,,,,,,,,,,,,,,,521,20,Woman,Right,1,38,0.4,1,180,-,180,0.7180455999987316,['y'],1.231955299997935,1.064,1141.7689243999994,,,,,521,20,Woman,Right,
,,,,,,,,,,,,,,,,,521,20,Woman,Right,1,45,0.15,2,0,180,0,0.63813300000038,['n'],0.6718322000015178,1.146,1146.3854552999983,,,,,521,20,Woman,Right,
,,,,,,,,,,,,,,,,,521,20,Woman,Right,1,23,0.4,2,180,0,0,0.47820710000087274,['y'],0.9598131000020658,1.814,1150.4854641999991,,,,,521,20,Woman,Right,
,,,,,,,,,,,,,,,,,521,20,Woman,Right,1,17,0.4,2,0,180,180,0.4342885000005481,['y'],0.7116363999957684,1.896,1154.386249700001,,,,,521,20,Woman,Right,
,,,,,,,,,,,,,,,,,521,20,Woman,Right,1,68,0.15,1,0,-,0,0.7082697000005282,['n'],0.9433559000026435,1.696,1158.702310499997,,,,,521,20,Woman,Right,
,,,,,,,,,,,,,,,,,521,20,Woman,Right,1,3,1,2,180,0,0,0.5763206000046921,['y'],0.7440244000026723,1.984,1162.835551600001,,,,,521,20,Woman,Right,
,,,,,,,,,,,,,,,,,521,20,Woman,Right,2,18,0.4,1,180,-,180,0.5964578999992227,['n'],0.855873900000006,1.212,1170.035494799995,82.5,67.5,72.5,,521,20,Woman,Right,
,,,,,,,,,,,,,,,,,521,20,Woman,Right,2,24,0.4,1,0,-,0,0.35853230000066105,['n'],0.9998371000037878,1.3599999999999999,1175.6021521000002,,,,,521,20,Woman,Right,
,,,,,,,,,,,,,,,,,521,20,Woman,Right,2,42,0.4,1,180,-,180,0.5734732999990229,['n'],0.7758009999961359,1.436,1180.452151999998,,,,,521,20,Woman,Right,
,,,,,,,,,,,,,,,,,521,20,Woman,Right,2,48,0.15,1,0,-,0,0.37447590000374475,['n'],0.864001099995221,1.21,1184.6522646999947,,,,,521,20,Woman,Right,
,,,,,,,,,,,,,,,,,521,20,Woman,Right,2,41,0.4,2,0,180,180,0.6050084000016795,['y'],1.176265499998408,1.186,1189.4191724999982,,,,,521,20,Woman,Right,
,,,,,,,,,,,,,,,,,521,20,Woman,Right,2,31,0.4,2,180,0,0,0.35207229999650735,['y'],0.8719644000011613,1.762,1193.952182299996,,,,,521,20,Woman,Right,
,,,,,,,,,,,,,,,,,521,20,Woman,Right,2,22,0.4,1,180,-,180,0.5293176999985008,['n'],1.3113274999996065,1.5939999999999999,1199.1188878999965,,,,,521,20,Woman,Right,
,,,,,,,,,,,,,,,,,521,20,Woman,Right,2,28,0.4,1,0,-,0,0.6405105000012554,['n'],0.9438768000036362,1.65,1203.1855329999962,,,,,521,20,Woman,Right,
,,,,,,,,,,,,,,,,,521,20,Woman,Right,2,51,0.15,2,180,0,0,0.4727363000056357,['n'],0.9840034000008018,1.65,1206.9521782999946,,,,,521,20,Woman,Right,
,,,,,,,,,,,,,,,,,521,20,Woman,Right,2,32,0.4,1,0,-,0,0.49981839999963995,['n'],0.8644375000003492,1.65,1210.7187675999958,,,,,521,20,Woman,Right,
,,,,,,,,,,,,,,,,,521,20,Woman,Right,2,78,0.15,1,180,-,180,0.5354896999997436,['n'],1.088314900000114,1.35,1215.5858624999964,,,,,521,20,Woman,Right,
,,,,,,,,,,,,,,,,,521,20,Woman,Right,2,1,1,2,0,180,180,0.8891313999993145,['y'],0.9199226000055205,1.88,1220.1525733999952,,,,,521,20,Woman,Right,
,,,,,,,,,,,,,,,,,521,20,Woman,Right,2,36,0.4,1,0,-,0,1.3462498000008054,['n'],1.0073438999970676,1.3860000000000001,1225.4022566999993,,,,,521,20,Woman,Right,
,,,,,,,,,,,,,,,,,521,20,Woman,Right,2,4,1,1,0,-,0,0.7127019999970798,['n'],0.9599023000046145,1.854,1229.8521852999984,,,,,521,20,Woman,Right,
,,,,,,,,,,,,,,,,,521,20,Woman,Right,2,27,0.4,2,180,0,180,2.001970099998289,['y'],0.711349600001995,1.714,1236.0365463999988,,,,,521,20,Woman,Right,
,,,,,,,,,,,,,,,,,521,20,Woman,Right,2,77,0.15,2,0,180,180,1.244008000001486,['y'],0.9359903000004124,1.074,1241.1195708999949,,,,,521,20,Woman,Right,
,,,,,,,,,,,,,,,,,521,20,Woman,Right,2,20,0.4,1,0,-,0,0.398350900002697,['n'],1.0877989000000525,1.22,1245.485523999996,,,,,521,20,Woman,Right,
,,,,,,,,,,,,,,,,,521,20,Woman,Right,2,75,0.15,2,180,0,0,1.0482068000055733,['y'],0.7441738999987138,1.5899999999999999,1250.268888300001,,,,,521,20,Woman,Right,
,,,,,,,,,,,,,,,,,521,20,Woman,Right,2,26,0.4,1,180,-,0,0.6240586999992956,['y'],0.7832296999986283,1.258,1254.3522200000007,,,,,521,20,Woman,Right,
,,,,,,,,,,,,,,,,,521,20,Woman,Right,2,16,0.4,1,0,-,180,1.0886735999956727,['y'],2.6800460000013118,1.254,1261.3856168999991,,,,,521,20,Woman,Right,
,,,,,,,,,,,,,,,,,521,20,Woman,Right,2,58,0.15,1,180,-,0,0.7622226000021328,['y'],0.7991569000005256,1.182,1265.7522202999971,,,,,521,20,Woman,Right,
,,,,,,,,,,,,,,,,,521,20,Woman,Right,2,23,0.4,2,180,0,0,0.8334677000020747,['y'],0.9599549000049592,1.6440000000000001,1270.5522920000003,,,,,521,20,Woman,Right,
,,,,,,,,,,,,,,,,,521,20,Woman,Right,2,39,0.4,2,180,0,0,0.5215710999982548,['y'],0.7756842000017059,1.686,1274.5022772999946,,,,,521,20,Woman,Right,
,,,,,,,,,,,,,,,,,521,20,Woman,Right,2,73,0.15,2,0,180,0,0.9092634999979055,['n'],0.8237947999950848,1.0,1279.0355612999992,,,,,521,20,Woman,Right,
,,,,,,,,,,,,,,,,,521,20,Woman,Right,2,43,0.4,2,180,0,0,0.47079479999956675,['y'],0.7676991999978782,1.97,1283.3855564999976,,,,,521,20,Woman,Right,
,,,,,,,,,,,,,,,,,521,20,Woman,Right,2,60,0.15,1,0,-,0,0.641747800000303,['y'],1.1119219999964116,1.3599999999999999,1288.002530400001,,,,,521,20,Woman,Right,
,,,,,,,,,,,,,,,,,521,20,Woman,Right,2,61,0.15,2,0,180,0,0.6729341999962344,['n'],0.7439935000002151,1.0,1292.8858002999987,,,,,521,20,Woman,Right,
,,,,,,,,,,,,,,,,,521,20,Woman,Right,2,11,0.4,2,180,0,0,1.0591344999993453,['y'],0.9357592000014847,1.5819999999999999,1297.8688983999964,,,,,521,20,Woman,Right,
,,,,,,,,,,,,,,,,,521,20,Woman,Right,2,63,0.15,2,180,0,0,1.1064829000024474,['y'],0.7437554999996792,1.0,1302.9523994999981,,,,,521,20,Woman,Right,
,,,,,,,,,,,,,,,,,521,20,Woman,Right,2,52,0.15,1,0,-,0,0.3588149999995949,['n'],1.415826399999787,1.022,1308.3855502000006,,,,,521,20,Woman,Right,
,,,,,,,,,,,,,,,,,521,20,Woman,Right,2,29,0.4,2,0,180,180,1.033531300003233,['y'],0.9995818999959738,1.134,1314.4022908999978,,,,,521,20,Woman,Right,
,,,,,,,,,,,,,,,,,521,20,Woman,Right,2,8,0.4,1,0,-,0,0.718980499994359,['n'],0.8799782000060077,1.568,1318.9864331999997,,,,,521,20,Woman,Right,
,,,,,,,,,,,,,,,,,521,20,Woman,Right,2,12,0.4,1,0,-,180,1.762183000006189,['y'],0.7675468000015826,1.1179999999999999,1324.4033877999973,,,,,521,20,Woman,Right,
,,,,,,,,,,,,,,,,,521,20,Woman,Right,2,50,0.15,1,180,-,180,1.0886587999993935,['y'],1.9440873999992618,1.1440000000000001,1329.9697099999976,,,,,521,20,Woman,Right,
,,,,,,,,,,,,,,,,,521,20,Woman,Right,2,25,0.4,2,0,180,180,0.9979410000014468,['y'],0.6076810000013211,1.704,1334.619285599998,,,,,521,20,Woman,Right,
,,,,,,,,,,,,,,,,,521,20,Woman,Right,2,65,0.15,2,0,180,0,0.5492490000033285,['n'],0.8477868999980274,1.0,1339.3533918999965,,,,,521,20,Woman,Right,
,,,,,,,,,,,,,,,,,521,20,Woman,Right,2,64,0.15,1,0,-,0,0.7610951000024215,['n'],0.7677814999988186,1.0,1343.8022917999988,,,,,521,20,Woman,Right,
,,,,,,,,,,,,,,,,,521,20,Woman,Right,2,21,0.4,2,0,180,180,0.5851192999980412,['y'],0.8156125000023167,1.83,1348.0024881999998,,,,,521,20,Woman,Right,
,,,,,,,,,,,,,,,,,521,20,Woman,Right,2,13,0.4,2,0,180,180,0.4768038999973214,['y'],0.8236921999996412,1.764,1352.2690215999974,,,,,521,20,Woman,Right,
,,,,,,,,,,,,,,,,,521,20,Woman,Right,2,53,0.15,2,0,180,180,0.49767189999693073,['y'],0.831672799999069,1.592,1356.8524816999998,,,,,521,20,Woman,Right,
,,,,,,,,,,,,,,,,,521,20,Woman,Right,2,3,1,2,180,0,0,0.30948860000353307,['y'],0.727680899995903,1.912,1360.9359283000013,,,,,521,20,Woman,Right,
,,,,,,,,,,,,,,,,,521,20,Woman,Right,2,79,0.15,2,180,0,180,0.7037611999985529,['n'],0.9197206000026199,1.004,1365.1360127000007,,,,,521,20,Woman,Right,
,,,,,,,,,,,,,,,,,521,20,Woman,Right,2,59,0.15,2,180,0,0,0.5006192000000738,['n'],0.7035485000014887,1.0,1369.2692938999971,,,,,521,20,Woman,Right,
,,,,,,,,,,,,,,,,,521,20,Woman,Right,2,30,0.4,1,180,-,180,0.6644072999988566,['n'],1.1597420999969472,1.684,1373.8028703000018,,,,,521,20,Woman,Right,
,,,,,,,,,,,,,,,,,521,20,Woman,Right,2,57,0.15,2,0,180,0,0.5662821000005351,['y'],1.479917500000738,1.0,1378.835918699995,,,,,521,20,Woman,Right,
,,,,,,,,,,,,,,,,,521,20,Woman,Right,2,55,0.15,2,180,0,0,0.4620864999960759,['y'],0.791824899999483,1.1560000000000001,1383.3026427000004,,,,,521,20,Woman,Right,
,,,,,,,,,,,,,,,,,521,20,Woman,Right,2,66,0.15,1,180,-,0,0.6541395000022021,['y'],0.7196205000000191,1.0,1387.5526299999983,,,,,521,20,Woman,Right,
,,,,,,,,,,,,,,,,,521,20,Woman,Right,2,34,0.4,1,180,-,180,0.6726011999999173,['n'],0.7677183999985573,1.012,1392.285873599998,,,,,521,20,Woman,Right,
,,,,,,,,,,,,,,,,,521,20,Woman,Right,2,15,0.4,2,180,0,0,0.42056850000517443,['y'],0.7036518000022625,1.916,1396.286060499995,,,,,521,20,Woman,Right,
,,,,,,,,,,,,,,,,,521,20,Woman,Right,2,17,0.4,2,0,180,180,1.203806600002281,['y'],0.7036399000062374,1.684,1401.5691776999956,,,,,521,20,Woman,Right,
,,,,,,,,,,,,,,,,,521,20,Woman,Right,2,7,1,2,180,0,0,0.40311129999463446,['y'],0.6480073999991873,1.978,1405.1859550000008,,,,,521,20,Woman,Right,
,,,,,,,,,,,,,,,,,521,20,Woman,Right,2,47,0.15,2,180,0,180,1.7585284000015236,['y'],0.6875744999997551,1.1560000000000001,1410.335904200001,,,,,521,20,Woman,Right,
,,,,,,,,,,,,,,,,,521,20,Woman,Right,2,10,0.4,1,180,-,180,0.6313148999979603,['n'],1.311969800000952,1.25,1414.8024016999989,,,,,521,20,Woman,Right,
,,,,,,,,,,,,,,,,,521,20,Woman,Right,2,40,0.4,1,0,-,0,0.5140718999973615,['n'],0.7597352000011597,1.3780000000000001,1418.6190483999962,,,,,521,20,Woman,Right,
,,,,,,,,,,,,,,,,,521,20,Woman,Right,2,70,0.15,1,180,-,180,0.6344958999980008,['n'],1.0960599999962142,1.236,1422.936395699995,,,,,521,20,Woman,Right,
,,,,,,,,,,,,,,,,,521,20,Woman,Right,2,68,0.15,1,0,-,0,0.8849990999951842,['n'],0.7847332999954233,1.288,1427.2024367999984,,,,,521,20,Woman,Right,
,,,,,,,,,,,,,,,,,521,20,Woman,Right,2,76,0.15,1,0,-,0,0.5032710000014049,['y'],1.3038641000021016,1.004,1431.8024248000002,,,,,521,20,Woman,Right,
,,,,,,,,,,,,,,,,,521,20,Woman,Right,2,46,0.15,1,180,-,180,0.9066222000037669,['y'],0.9834096000049612,1.008,1436.5190799999982,,,,,521,20,Woman,Right,
,,,,,,,,,,,,,,,,,521,20,Woman,Right,2,5,1,2,0,180,180,0.5670231000040076,['y'],0.8795820000013919,1.838,1440.9367318000004,,,,,521,20,Woman,Right,
,,,,,,,,,,,,,,,,,521,20,Woman,Right,2,33,0.4,2,0,180,180,0.6028000000005704,['y'],0.6478801999983261,2.0,1445.3858141999954,,,,,521,20,Woman,Right,
,,,,,,,,,,,,,,,,,521,20,Woman,Right,2,45,0.15,2,0,180,0,1.7268635000000359,['n'],0.8156844999975874,1.0,1450.8358437999996,,,,,521,20,Woman,Right,
,,,,,,,,,,,,,,,,,521,20,Woman,Right,2,6,1,1,180,-,180,0.5265328000023146,['n'],0.7360005000009551,1.846,1454.6190786000006,,,,,521,20,Woman,Right,
,,,,,,,,,,,,,,,,,521,20,Woman,Right,2,69,0.15,2,0,180,0,0.928335499993409,['n'],1.0239177999974345,1.182,1459.5690882999988,,,,,521,20,Woman,Right,
,,,,,,,,,,,,,,,,,521,20,Woman,Right,2,14,0.4,1,180,-,180,1.882000400000834,['y'],0.6237162999968859,1.1139999999999999,1464.7858234000014,,,,,521,20,Woman,Right,
,,,,,,,,,,,,,,,,,521,20,Woman,Right,2,67,0.15,2,180,0,0,1.0083536000020104,['y'],0.7199869000032777,1.388,1469.2691013000003,,,,,521,20,Woman,Right,
,,,,,,,,,,,,,,,,,521,20,Woman,Right,2,37,0.4,2,0,180,180,0.5104406000027666,['y'],0.7439344999947934,1.978,1473.169115699995,,,,,521,20,Woman,Right,
,,,,,,,,,,,,,,,,,521,20,Woman,Right,2,54,0.15,1,180,-,180,0.6820322999992641,['n'],0.7679941999958828,1.0,1477.4524100999988,,,,,521,20,Woman,Right,
,,,,,,,,,,,,,,,,,521,20,Woman,Right,2,44,0.15,1,0,-,180,0.5575115000028745,['y'],0.7036077000011574,1.024,1481.6191445000004,,,,,521,20,Woman,Right,
,,,,,,,,,,,,,,,,,521,20,Woman,Right,2,35,0.4,2,180,0,0,0.4987468999970588,['n'],0.9518265000006068,1.0,1487.8191411000007,,,,,521,20,Woman,Right,
,,,,,,,,,,,,,,,,,521,20,Woman,Right,2,19,0.4,2,180,0,0,0.9837025999950129,['y'],0.6958066000006511,1.672,1492.2700718999986,,,,,521,20,Woman,Right,
,,,,,,,,,,,,,,,,,521,20,Woman,Right,2,38,0.4,1,180,-,180,0.4995292000021436,['n'],0.6397801999992225,1.21,1495.8857895999972,,,,,521,20,Woman,Right,
,,,,,,,,,,,,,,,,,521,20,Woman,Right,2,56,0.15,1,0,-,0,0.3253047000034712,['n'],0.9756921000007424,1.0,1501.4357987999974,,,,,521,20,Woman,Right,
,,,,,,,,,,,,,,,,,521,20,Woman,Right,2,49,0.15,2,0,180,180,0.49257399999623885,['y'],0.5677393000005395,1.738,1505.252817499997,,,,,521,20,Woman,Right,
,,,,,,,,,,,,,,,,,521,20,Woman,Right,2,62,0.15,1,180,-,180,0.8832279999987804,['n'],0.6360787000012351,1.016,1509.819091999998,,,,,521,20,Woman,Right,
,,,,,,,,,,,,,,,,,521,20,Woman,Right,2,0,1,1,0,-,0,0.6474539000046207,['n'],0.6233912999960012,1.922,1514.0357863999961,,,,,521,20,Woman,Right,
,,,,,,,,,,,,,,,,,521,20,Woman,Right,2,2,1,1,180,-,180,0.38907049999397714,['n'],0.7676327999943169,1.816,1518.5694309999963,,,,,521,20,Woman,Right,
,,,,,,,,,,,,,,,,,521,20,Woman,Right,2,72,0.15,1,0,-,180,0.7075516999975662,['n'],0.7598113999993075,1.0,1523.0198676,,,,,521,20,Woman,Right,
,,,,,,,,,,,,,,,,,521,20,Woman,Right,2,9,0.4,2,0,180,180,0.5465565999984392,['y'],0.8165115000010701,1.838,1527.2369328999994,,,,,521,20,Woman,Right,
,,,,,,,,,,,,,,,,,521,20,Woman,Right,2,74,0.15,1,180,-,180,0.6360079000005499,['y'],0.6803337000019383,1.0,1531.6191859999963,,,,,521,20,Woman,Right,
,,,,,,,,,,,,,,,,,521,20,Woman,Right,2,71,0.15,2,180,0,0,0.47422659999574535,['y'],1.6633856999978889,1.688,1536.5864820999996,,,,,521,20,Woman,Right,
,,,,,,,,,,,,,,,,,521,20,Woman,Right,3,78,0.15,1,180,-,0,0.9897600999975111,['n'],2.4638512000019546,1.026,1545.869250799995,80.0,70.0,77.5,,521,20,Woman,Right,
,,,,,,,,,,,,,,,,,521,20,Woman,Right,3,20,0.4,1,0,-,0,0.4123897000026773,['n'],0.8877788000027067,1.3359999999999999,1549.9697480999967,,,,,521,20,Woman,Right,
,,,,,,,,,,,,,,,,,521,20,Woman,Right,3,31,0.4,2,180,0,0,0.47404529999766964,['y'],0.9670000999976764,1.778,1553.8864512,,,,,521,20,Woman,Right,
,,,,,,,,,,,,,,,,,521,20,Woman,Right,3,47,0.15,2,180,0,0,0.6274278999990202,['y'],1.2398818000001484,1.6680000000000001,1558.7524613999994,,,,,521,20,Woman,Right,
,,,,,,,,,,,,,,,,,521,20,Woman,Right,3,8,0.4,1,0,-,0,0.6426104999991367,['n'],0.799771599995438,1.222,1563.1198686999996,,,,,521,20,Woman,Right,
,,,,,,,,,,,,,,,,,521,20,Woman,Right,3,13,0.4,2,0,180,180,0.4168264999971143,['y'],1.559545900003286,1.794,1567.602547800001,,,,,521,20,Woman,Right,
,,,,,,,,,,,,,,,,,521,20,Woman,Right,3,75,0.15,2,180,0,0,0.4156901000023936,['y'],0.6395717999985209,1.322,1571.5691676999995,,,,,521,20,Woman,Right,
,,,,,,,,,,,,,,,,,521,20,Woman,Right,3,4,1,1,0,-,0,0.40118169999914244,['n'],0.68786249999539,1.7,1575.3871747999947,,,,,521,20,Woman,Right,
,,,,,,,,,,,,,,,,,521,20,Woman,Right,3,36,0.4,1,0,-,180,0.6365625000034925,['y'],1.3840619000038714,1.08,1580.671007500001,,,,,521,20,Woman,Right,
,,,,,,,,,,,,,,,,,521,20,Woman,Right,3,11,0.4,2,180,0,0,0.3147148999996716,['y'],0.7440760000026785,1.956,1584.3858091000002,,,,,521,20,Woman,Right,
,,,,,,,,,,,,,,,,,521,20,Woman,Right,3,79,0.15,2,180,0,0,0.7971135000043432,['y'],0.5920665000012377,1.834,1588.3865996999957,,,,,521,20,Woman,Right,
,,,,,,,,,,,,,,,,,521,20,Woman,Right,3,28,0.4,1,0,-,180,0.675157700003183,['y'],0.7678354000017862,1.048,1592.635831599997,,,,,521,20,Woman,Right,
,,,,,,,,,,,,,,,,,521,20,Woman,Right,3,76,0.15,1,0,-,180,0.5008171000008588,['y'],0.8159325000015087,1.032,1596.8025865999953,,,,,521,20,Woman,Right,
,,,,,,,,,,,,,,,,,521,20,Woman,Right,3,44,0.15,1,0,-,180,0.7133676000012201,['y'],0.703632299999299,1.0,1601.5192458999954,,,,,521,20,Woman,Right,
,,,,,,,,,,,,,,,,,521,20,Woman,Right,3,27,0.4,2,180,0,0,0.574424899998121,['y'],0.6797434999971301,1.88,1605.1525489999985,,,,,521,20,Woman,Right,
,,,,,,,,,,,,,,,,,521,20,Woman,Right,3,12,0.4,1,0,-,0,0.5907384000020102,['n'],0.6157620000012685,1.43,1609.202545,,,,,521,20,Woman,Right,
,,,,,,,,,,,,,,,,,521,20,Woman,Right,3,69,0.15,2,0,180,180,0.4432191000014427,['y'],0.7039106000011088,1.3359999999999999,1612.903461599999,,,,,521,20,Woman,Right,
,,,,,,,,,,,,,,,,,521,20,Woman,Right,3,60,0.15,1,0,-,180,0.5210499000022537,['y'],0.7597402000028524,1.1139999999999999,1617.2525689999966,,,,,521,20,Woman,Right,
,,,,,,,,,,,,,,,,,521,20,Woman,Right,3,43,0.4,2,180,0,0,0.26811790000647306,['y'],0.6637687000038568,1.794,1620.5693131000007,,,,,521,20,Woman,Right,
,,,,,,,,,,,,,,,,,521,20,Woman,Right,3,30,0.4,1,180,-,180,0.4084718000012799,['n'],1.1038281000001007,1.694,1625.169473599999,,,,,521,20,Woman,Right,
,,,,,,,,,,,,,,,,,521,20,Woman,Right,3,25,0.4,2,0,180,180,0.7239044000016293,['y'],0.7356771000049775,2.0,1630.0366198999982,,,,,521,20,Woman,Right,
,,,,,,,,,,,,,,,,,521,20,Woman,Right,3,68,0.15,1,0,-,180,0.6080166000028839,['y'],0.6396468000020832,1.0,1634.452670599996,,,,,521,20,Woman,Right,
,,,,,,,,,,,,,,,,,521,20,Woman,Right,3,59,0.15,2,180,0,180,1.45555880000029,['n'],1.1120740999976988,1.0,1640.4192349000004,,,,,521,20,Woman,Right,
,,,,,,,,,,,,,,,,,521,20,Woman,Right,3,45,0.15,2,0,180,0,0.7030615000039688,['n'],1.7601285000055213,1.008,1646.1692513000016,,,,,521,20,Woman,Right,
,,,,,,,,,,,,,,,,,521,20,Woman,Right,3,3,1,2,180,0,0,0.27201400000194553,['y'],1.1517334000018309,2.0,1650.736073299995,,,,,521,20,Woman,Right,
,,,,,,,,,,,,,,,,,521,20,Woman,Right,3,23,0.4,2,180,0,0,0.34206880000419915,['y'],0.8234262999976636,1.986,1654.6699902999972,,,,,521,20,Woman,Right,
,,,,,,,,,,,,,,,,,521,20,Woman,Right,3,70,0.15,1,180,-,0,0.5064522999964538,['y'],0.7441647999949055,1.708,1658.5026138999965,,,,,521,20,Woman,Right,
,,,,,,,,,,,,,,,,,521,20,Woman,Right,3,49,0.15,2,0,180,180,0.5376667000018642,['n'],1.8637845999983256,1.0,1663.6700469999996,,,,,521,20,Woman,Right,
,,,,,,,,,,,,,,,,,521,20,Woman,Right,3,53,0.15,2,0,180,0,0.816489000004367,['y'],1.6078512000021874,1.0,1668.8700123000017,,,,,521,20,Woman,Right,
,,,,,,,,,,,,,,,,,521,20,Woman,Right,3,51,0.15,2,180,0,0,0.9493029999939608,['y'],0.9119056000054115,1.01,1674.0529083000001,,,,,521,20,Woman,Right,
,,,,,,,,,,,,,,,,,521,20,Woman,Right,3,6,1,1,180,-,180,0.5849761999998009,['n'],1.3995107000009739,1.6099999999999999,1679.2525827999998,,,,,521,20,Woman,Right,
,,,,,,,,,,,,,,,,,521,20,Woman,Right,3,57,0.15,2,0,180,180,0.6598443999973824,['n'],1.1921979000035208,1.0,1683.752633199998,,,,,521,20,Woman,Right,
,,,,,,,,,,,,,,,,,521,20,Woman,Right,3,7,1,2,180,0,0,0.4178036000012071,['y'],0.9741481999953976,2.0,1688.0692925999974,,,,,521,20,Woman,Right,
,,,,,,,,,,,,,,,,,521,20,Woman,Right,3,74,0.15,1,180,-,0,0.4418929000021308,['y'],1.832015499996487,1.0,1693.7025909000004,,,,,521,20,Woman,Right,
,,,,,,,,,,,,,,,,,521,20,Woman,Right,3,77,0.15,2,0,180,0,0.751366100004816,['n'],0.6717080999951577,1.0,1697.9026474999991,,,,,521,20,Woman,Right,
,,,,,,,,,,,,,,,,,521,20,Woman,Right,3,32,0.4,1,0,-,0,0.4758618000050774,['n'],0.8478909999976167,1.034,1701.8694772000017,,,,,521,20,Woman,Right,
,,,,,,,,,,,,,,,,,521,20,Woman,Right,3,71,0.15,2,180,0,0,0.4104137000031187,['y'],0.6320903000014368,1.676,1705.6700310000015,,,,,521,20,Woman,Right,
,,,,,,,,,,,,,,,,,521,20,Woman,Right,3,67,0.15,2,180,0,0,0.3878208000023733,['n'],0.7279857999965316,1.214,1709.2368567000012,,,,,521,20,Woman,Right,
,,,,,,,,,,,,,,,,,521,20,Woman,Right,3,19,0.4,2,180,0,0,0.3770874999972875,['y'],1.1914214999997057,1.742,1713.3699596000006,,,,,521,20,Woman,Right,
,,,,,,,,,,,,,,,,,521,20,Woman,Right,3,38,0.4,1,180,-,180,0.4310412999984692,['y'],1.5433282000012696,1.062,1718.0859389999969,,,,,521,20,Woman,Right,
,,,,,,,,,,,,,,,,,521,20,Woman,Right,3,72,0.15,1,0,-,180,0.5275657000020146,['n'],0.6479067000036594,1.004,1722.3025922000015,,,,,521,20,Woman,Right,
,,,,,,,,,,,,,,,,,521,20,Woman,Right,3,14,0.4,1,180,-,180,0.5984439000021666,['n'],0.5916518000012729,1.1520000000000001,1726.2028932999965,,,,,521,20,Woman,Right,
,,,,,,,,,,,,,,,,,521,20,Woman,Right,3,39,0.4,2,180,0,0,0.3977223999972921,['y'],0.6639811000059126,1.8780000000000001,1730.1704594999974,,,,,521,20,Woman,Right,
,,,,,,,,,,,,,,,,,521,20,Woman,Right,3,21,0.4,2,0,180,180,0.4683500999963144,['y'],0.687760500004515,1.932,1733.8866587999946,,,,,521,20,Woman,Right,
,,,,,,,,,,,,,,,,,521,20,Woman,Right,3,73,0.15,2,0,180,180,0.579154600003676,['n'],0.6717846000028658,1.0,1737.8359784999993,,,,,521,20,Woman,Right,
,,,,,,,,,,,,,,,,,521,20,Woman,Right,3,29,0.4,2,0,180,180,0.4794857000015327,['y'],0.6068162999945343,1.916,1741.5526820999949,,,,,521,20,Woman,Right,
,,,,,,,,,,,,,,,,,521,20,Woman,Right,3,15,0.4,2,180,0,0,0.36092630000348436,['y'],1.1113335000045481,1.918,1745.7527052000005,,,,,521,20,Woman,Right,
,,,,,,,,,,,,,,,,,521,20,Woman,Right,3,22,0.4,1,180,-,180,0.5368518000032054,['n'],0.6470152999972925,1.65,1749.620093999998,,,,,521,20,Woman,Right,
,,,,,,,,,,,,,,,,,521,20,Woman,Right,3,56,0.15,1,0,-,0,0.8081295000010869,['n'],0.703923200002464,1.21,1753.8364565999946,,,,,521,20,Woman,Right,
,,,,,,,,,,,,,,,,,521,20,Woman,Right,3,34,0.4,1,180,-,180,0.5005091999992146,['y'],0.7279583000054117,1.0,1758.1862079999992,,,,,521,20,Woman,Right,
,,,,,,,,,,,,,,,,,521,20,Woman,Right,3,18,0.4,1,180,-,180,0.6363572000045679,['n'],0.5596802000000025,1.0,1761.8027449,,,,,521,20,Woman,Right,
,,,,,,,,,,,,,,,,,521,20,Woman,Right,3,62,0.15,1,180,-,180,0.4656011999977636,['n'],0.9516566999955103,1.0,1766.0027218999967,,,,,521,20,Woman,Right,
,,,,,,,,,,,,,,,,,521,20,Woman,Right,3,10,0.4,1,180,-,180,1.20485760000156,['n'],0.6156986999994842,1.0,1770.9194177999962,,,,,521,20,Woman,Right,
,,,,,,,,,,,,,,,,,521,20,Woman,Right,3,35,0.4,2,180,0,0,0.47011770000244724,['y'],0.7909309000024223,2.0,1775.102659600001,,,,,521,20,Woman,Right,
,,,,,,,,,,,,,,,,,521,20,Woman,Right,3,41,0.4,2,0,180,180,0.5292464000012842,['y'],0.6556361999973888,1.996,1779.3869957999996,,,,,521,20,Woman,Right,
,,,,,,,,,,,,,,,,,521,20,Woman,Right,3,33,0.4,2,0,180,180,0.6598332000066875,['y'],1.3524532000010367,1.994,1784.0860342000014,,,,,521,20,Woman,Right,
,,,,,,,,,,,,,,,,,521,20,Woman,Right,3,1,1,2,0,180,180,0.5692943999965792,['y'],0.7673862000010558,2.0,1787.936518399998,,,,,521,20,Woman,Right,
,,,,,,,,,,,,,,,,,521,20,Woman,Right,3,17,0.4,2,0,180,180,0.5643679999993765,['y'],0.8963712000040687,2.0,1791.870489199995,,,,,521,20,Woman,Right,
,,,,,,,,,,,,,,,,,521,20,Woman,Right,3,2,1,1,180,-,180,0.7755689999976312,['n'],0.8077649999977439,1.874,1796.3528047,,,,,521,20,Woman,Right,
,,,,,,,,,,,,,,,,,521,20,Woman,Right,3,40,0.4,1,0,-,0,0.43078650000097696,['n'],0.7757076999987476,1.88,1799.9369204999966,,,,,521,20,Woman,Right,
,,,,,,,,,,,,,,,,,521,20,Woman,Right,3,37,0.4,2,0,180,180,0.5994853000011062,['y'],0.6399888999949326,1.778,1803.9195659999968,,,,,521,20,Woman,Right,
,,,,,,,,,,,,,,,,,521,20,Woman,Right,3,52,0.15,1,0,-,0,1.133729699999094,['n'],1.0467053999964264,1.3860000000000001,1808.803725699996,,,,,521,20,Woman,Right,
,,,,,,,,,,,,,,,,,521,20,Woman,Right,3,16,0.4,1,0,-,0,0.6261891000031028,['n'],0.6877879999956349,1.362,1812.9194892000014,,,,,521,20,Woman,Right,
,,,,,,,,,,,,,,,,,521,20,Woman,Right,3,64,0.15,1,0,-,0,0.5178760999988299,['y'],0.9992513000033796,1.154,1817.8193792999955,,,,,521,20,Woman,Right,
,,,,,,,,,,,,,,,,,521,20,Woman,Right,3,54,0.15,1,180,-,0,0.6473626999941189,['n'],0.7516774999967311,1.018,1822.1363442000002,,,,,521,20,Woman,Right,
,,,,,,,,,,,,,,,,,521,20,Woman,Right,3,61,0.15,2,0,180,0,0.5278232999989996,['n'],0.703826899996784,1.002,1826.1860784999953,,,,,521,20,Woman,Right,
,,,,,,,,,,,,,,,,,521,20,Woman,Right,3,5,1,2,0,180,180,0.6577974000028917,['y'],1.376358399997116,1.988,1830.7527702000007,,,,,521,20,Woman,Right,
,,,,,,,,,,,,,,,,,521,20,Woman,Right,3,66,0.15,1,180,-,180,0.6377042000021902,['y'],1.199735000001965,1.226,1837.4027902000016,,,,,521,20,Woman,Right,
,,,,,,,,,,,,,,,,,521,20,Woman,Right,3,63,0.15,2,180,0,180,0.6474855999986175,['y'],0.9917953999974998,1.018,1842.4694556999966,,,,,521,20,Woman,Right,
,,,,,,,,,,,,,,,,,521,20,Woman,Right,3,58,0.15,1,180,-,180,0.4660046999997576,['y'],1.015574099998048,1.0,1846.6194547999985,,,,,521,20,Woman,Right,
,,,,,,,,,,,,,,,,,521,20,Woman,Right,3,0,1,1,0,-,0,0.3897983999995631,['n'],0.6398243000003276,1.73,1850.4527650000018,,,,,521,20,Woman,Right,
,,,,,,,,,,,,,,,,,521,20,Woman,Right,3,50,0.15,1,180,-,180,0.6782703999997466,['n'],0.8556099999987055,1.022,1854.5527330999976,,,,,521,20,Woman,Right,
,,,,,,,,,,,,,,,,,521,20,Woman,Right,3,26,0.4,1,180,-,180,0.736374899999646,['y'],1.1277233000000706,1.0,1859.236148899996,,,,,521,20,Woman,Right,
,,,,,,,,,,,,,,,,,521,20,Woman,Right,3,46,0.15,1,180,-,0,0.3884994999971241,['n'],1.3120676000035019,1.0,1863.6195737999951,,,,,521,20,Woman,Right,
,,,,,,,,,,,,,,,,,521,20,Woman,Right,3,24,0.4,1,0,-,0,0.30331139999907464,['n'],0.6317526999991969,1.5939999999999999,1867.5194416000013,,,,,521,20,Woman,Right,
,,,,,,,,,,,,,,,,,521,20,Woman,Right,3,42,0.4,1,180,-,180,0.7747729999973672,['n'],0.6081037000039942,1.0,1872.1694577999951,,,,,521,20,Woman,Right,
,,,,,,,,,,,,,,,,,521,20,Woman,Right,3,65,0.15,2,0,180,0,0.29524909999599913,['n'],0.8709639000007883,1.004,1876.2360937999983,,,,,521,20,Woman,Right,
,,,,,,,,,,,,,,,,,521,20,Woman,Right,3,9,0.4,2,0,180,180,0.4714834999977029,['y'],0.6231994999980088,1.704,1879.9194491999951,,,,,521,20,Woman,Right,
,,,,,,,,,,,,,,,,,521,20,Woman,Right,3,55,0.15,2,180,0,0,0.7234868000014103,['y'],0.6557377999997698,1.3559999999999999,1884.1694644999952,,,,,521,20,Woman,Right,
,,,,,,,,,,,,,,,,,521,20,Woman,Right,3,48,0.15,1,0,-,0,0.7307778999966104,['n'],1.1756804999968153,1.0,1888.7361280999976,,,,,521,20,Woman,Right,
,,,,,,,,,,,,,,,,,521,20,Woman,Right,4,68,0.15,1,0,-,0,0.49158299999544397,['n'],0.879664899999625,1.0,1895.3030022999956,76.25,65.0,77.5,,521,20,Woman,Right,
,,,,,,,,,,,,,,,,,521,20,Woman,Right,4,15,0.4,2,180,0,0,0.303499900001043,['y'],1.639635300001828,1.79,1900.3194861999946,,,,,521,20,Woman,Right,
,,,,,,,,,,,,,,,,,521,20,Woman,Right,4,43,0.4,2,180,0,0,0.5037045999997645,['y'],0.7602675000016461,1.65,1904.4694260999968,,,,,521,20,Woman,Right,
,,,,,,,,,,,,,,,,,521,20,Woman,Right,4,66,0.15,1,180,-,180,0.49737639999511885,['n'],0.7276236999969115,1.174,1908.4203987,,,,,521,20,Woman,Right,
,,,,,,,,,,,,,,,,,521,20,Woman,Right,4,19,0.4,2,180,0,0,0.38830849999794737,['y'],1.4794801000025473,1.738,1912.6696362000002,,,,,521,20,Woman,Right,
,,,,,,,,,,,,,,,,,521,20,Woman,Right,4,45,0.15,2,0,180,180,0.3695880000013858,['y'],1.4558458000028622,1.146,1917.4029484999992,,,,,521,20,Woman,Right,
,,,,,,,,,,,,,,,,,521,20,Woman,Right,4,64,0.15,1,0,-,180,0.49381300000095507,['n'],0.7517874000041047,1.0,1921.5861136999956,,,,,521,20,Woman,Right,
,,,,,,,,,,,,,,,,,521,20,Woman,Right,4,67,0.15,2,180,0,0,0.6788548999975319,['y'],0.7197826999981771,1.6139999999999999,1925.8361393000014,,,,,521,20,Woman,Right,
,,,,,,,,,,,,,,,,,521,20,Woman,Right,4,39,0.4,2,180,0,0,1.2336734999989858,['y'],0.6441263000015169,1.734,1930.519502199997,,,,,521,20,Woman,Right,
,,,,,,,,,,,,,,,,,521,20,Woman,Right,4,33,0.4,2,0,180,180,0.554903899996134,['y'],1.0874503000013647,1.762,1935.569634200001,,,,,521,20,Woman,Right,
,,,,,,,,,,,,,,,,,521,20,Woman,Right,4,54,0.15,1,180,-,180,0.40954449999844655,['n'],0.6079468000025372,1.272,1939.6028426999983,,,,,521,20,Woman,Right,
,,,,,,,,,,,,,,,,,521,20,Woman,Right,4,40,0.4,1,0,-,0,0.6359073999992688,['n'],1.5035648999983096,1.252,1944.3694892999993,,,,,521,20,Woman,Right,
,,,,,,,,,,,,,,,,,521,20,Woman,Right,4,34,0.4,1,180,-,180,0.514970500000345,['n'],0.5598415999993449,1.246,1948.1862578,,,,,521,20,Woman,Right,
,,,,,,,,,,,,,,,,,521,20,Woman,Right,4,0,1,1,0,-,0,0.3584485000028508,['n'],0.6399724999937462,1.958,1952.0529076999956,,,,,521,20,Woman,Right,
,,,,,,,,,,,,,,,,,521,20,Woman,Right,4,42,0.4,1,180,-,180,0.7386415999935707,['n'],1.239848899997014,1.26,1957.086810199995,,,,,521,20,Woman,Right,
,,,,,,,,,,,,,,,,,521,20,Woman,Right,4,3,1,2,180,0,0,0.47024529999907827,['y'],0.5599451000016415,1.72,1960.9864520999981,,,,,521,20,Woman,Right,
,,,,,,,,,,,,,,,,,521,20,Woman,Right,4,24,0.4,1,0,-,0,1.309758299998066,['n'],0.6552107000024989,1.318,1965.5029616999964,,,,,521,20,Woman,Right,
,,,,,,,,,,,,,,,,,521,20,Woman,Right,4,62,0.15,1,180,-,180,0.42981069999950705,['n'],0.6236188000038965,1.006,1969.3198276999974,,,,,521,20,Woman,Right,
,,,,,,,,,,,,,,,,,521,20,Woman,Right,4,22,0.4,1,180,-,0,0.375561300003028,['y'],0.7037549000015133,1.058,1973.8535914999957,,,,,521,20,Woman,Right,
,,,,,,,,,,,,,,,,,521,20,Woman,Right,4,61,0.15,2,0,180,180,0.7964697000061278,['y'],2.3439092000044184,1.0,1979.4863024000006,,,,,521,20,Woman,Right,
,,,,,,,,,,,,,,,,,521,20,Woman,Right,4,52,0.15,1,0,-,0,0.428706400001829,['y'],0.8718649000002188,1.0,1983.7697364999985,,,,,521,20,Woman,Right,
,,,,,,,,,,,,,,,,,521,20,Woman,Right,4,16,0.4,1,0,-,0,0.40696130000287667,['n'],0.6635562000010395,1.0,1987.5195886000001,,,,,521,20,Woman,Right,
,,,,,,,,,,,,,,,,,521,20,Woman,Right,4,26,0.4,1,180,-,180,0.5892081999991206,['n'],0.8398594000027515,1.0,1992.2036239000008,,,,,521,20,Woman,Right,
,,,,,,,,,,,,,,,,,521,20,Woman,Right,4,5,1,2,0,180,180,0.5253559999982826,['y'],0.5996056000003591,1.696,1996.4197430999993,,,,,521,20,Woman,Right,
,,,,,,,,,,,,,,,,,521,20,Woman,Right,4,79,0.15,2,180,0,180,1.07010490000539,['y'],0.6475493999969331,1.044,2000.9363316999952,,,,,521,20,Woman,Right,
,,,,,,,,,,,,,,,,,521,20,Woman,Right,4,35,0.4,2,180,0,0,0.33811270000296645,['y'],1.3193125999969197,1.79,2005.1695532999947,,,,,521,20,Woman,Right,
,,,,,,,,,,,,,,,,,521,20,Woman,Right,4,1,1,2,0,180,180,0.40012320000096224,['y'],0.5595708000037121,1.796,2008.7198040000003,,,,,521,20,Woman,Right,
,,,,,,,,,,,,,,,,,521,20,Woman,Right,4,55,0.15,2,180,0,0,0.7172751000034623,['y'],0.6398869000040577,1.726,2013.269612600001,,,,,521,20,Woman,Right,
,,,,,,,,,,,,,,,,,521,20,Woman,Right,4,75,0.15,2,180,0,0,0.642476799999713,['n'],1.023888600000646,1.1480000000000001,2017.6362449000007,,,,,521,20,Woman,Right,
,,,,,,,,,,,,,,,,,521,20,Woman,Right,4,60,0.15,1,0,-,0,0.3100182999987737,['n'],0.847804899996845,1.236,2021.3528940999968,,,,,521,20,Woman,Right,
,,,,,,,,,,,,,,,,,521,20,Woman,Right,4,8,0.4,1,0,-,0,0.6132749000025797,['n'],0.6073357999994187,1.6480000000000001,2025.7532980999968,,,,,521,20,Woman,Right,
,,,,,,,,,,,,,,,,,521,20,Woman,Right,4,47,0.15,2,180,0,0,1.1757492999968235,['y'],0.7597090999988723,1.0,2030.8365650999986,,,,,521,20,Woman,Right,
,,,,,,,,,,,,,,,,,521,20,Woman,Right,4,65,0.15,2,0,180,180,0.49808499999926426,['y'],0.6637008999969112,1.012,2034.9362871999983,,,,,521,20,Woman,Right,
,,,,,,,,,,,,,,,,,521,20,Woman,Right,4,73,0.15,2,0,180,180,0.5175764000014169,['y'],0.703720900004555,1.0,2039.1029517999996,,,,,521,20,Woman,Right,
,,,,,,,,,,,,,,,,,521,20,Woman,Right,4,38,0.4,1,180,-,180,1.2701618999999482,['n'],1.2957083000001148,1.012,2044.6362980999984,,,,,521,20,Woman,Right,
,,,,,,,,,,,,,,,,,521,20,Woman,Right,4,30,0.4,1,180,-,180,0.5837365999977919,['n'],0.719497300000512,1.028,2049.4869518999985,,,,,521,20,Woman,Right,
,,,,,,,,,,,,,,,,,521,20,Woman,Right,4,25,0.4,2,0,180,180,0.4899708000011742,['y'],0.7035563999961596,1.566,2053.819874199995,,,,,521,20,Woman,Right,
,,,,,,,,,,,,,,,,,521,20,Woman,Right,4,59,0.15,2,180,0,0,0.4559198999995715,['y'],0.6876975999985007,1.552,2057.619844199995,,,,,521,20,Woman,Right,
,,,,,,,,,,,,,,,,,521,20,Woman,Right,4,77,0.15,2,0,180,180,0.37024989999918034,['n'],0.9680057000005036,1.028,2062.3696844000006,,,,,521,20,Woman,Right,
,,,,,,,,,,,,,,,,,521,20,Woman,Right,4,13,0.4,2,0,180,180,0.6463568000035593,['y'],0.5676521999994293,1.3940000000000001,2065.8698510999966,,,,,521,20,Woman,Right,
,,,,,,,,,,,,,,,,,521,20,Woman,Right,4,58,0.15,1,180,-,180,0.5098970000035479,['y'],0.6158805000013672,1.158,2069.703077099999,,,,,521,20,Woman,Right,
,,,,,,,,,,,,,,,,,521,20,Woman,Right,4,4,1,1,0,-,0,0.47432370000024093,['n'],1.656078100000741,1.736,2075.5863734000013,,,,,521,20,Woman,Right,
,,,,,,,,,,,,,,,,,521,20,Woman,Right,4,71,0.15,2,180,0,0,0.6007169000004069,['y'],1.5758531000028597,1.024,2080.752976399999,,,,,521,20,Woman,Right,
,,,,,,,,,,,,,,,,,521,20,Woman,Right,4,50,0.15,1,180,-,180,1.6533028999983799,['n'],0.7361572000008891,1.0,2086.1197232999984,,,,,521,20,Woman,Right,
,,,,,,,,,,,,,,,,,521,20,Woman,Right,4,48,0.15,1,0,-,0,0.4514370000033523,['n'],0.7196656000014627,1.0,2090.5029140999977,,,,,521,20,Woman,Right,
,,,,,,,,,,,,,,,,,521,20,Woman,Right,4,27,0.4,2,180,0,0,0.448640599999635,['y'],0.6077507000009064,1.762,2093.9529809000014,,,,,521,20,Woman,Right,
,,,,,,,,,,,,,,,,,521,20,Woman,Right,4,12,0.4,1,0,-,0,0.3266676999992342,['n'],0.6313461000027019,1.774,2097.402969499999,,,,,521,20,Woman,Right,
,,,,,,,,,,,,,,,,,521,20,Woman,Right,4,32,0.4,1,0,-,0,0.8844826999993529,['y'],0.6961181000006036,1.0,2102.3864362999957,,,,,521,20,Woman,Right,
,,,,,,,,,,,,,,,,,521,20,Woman,Right,4,56,0.15,1,0,-,0,0.4820818000007421,['n'],0.8559314000012819,1.0,2106.0863335999966,,,,,521,20,Woman,Right,
,,,,,,,,,,,,,,,,,521,20,Woman,Right,4,69,0.15,2,0,180,180,0.8001947000011569,['y'],0.539387999997416,1.626,2109.736395699998,,,,,521,20,Woman,Right,
,,,,,,,,,,,,,,,,,521,20,Woman,Right,4,76,0.15,1,0,-,0,0.3460685999962152,['n'],0.5520974999963073,1.6179999999999999,2113.4363032999972,,,,,521,20,Woman,Right,
,,,,,,,,,,,,,,,,,521,20,Woman,Right,4,14,0.4,1,180,-,0,1.2732810999950743,['y'],0.5432007999988855,1.362,2118.0197033000004,,,,,521,20,Woman,Right,
,,,,,,,,,,,,,,,,,521,20,Woman,Right,4,9,0.4,2,0,180,180,0.3504229999962263,['y'],0.5831804999979795,1.6520000000000001,2121.853130399999,,,,,521,20,Woman,Right,
,,,,,,,,,,,,,,,,,521,20,Woman,Right,4,18,0.4,1,180,-,180,0.863758899999084,['n'],0.9911896999983583,1.242,2126.286817,,,,,521,20,Woman,Right,
,,,,,,,,,,,,,,,,,521,20,Woman,Right,4,51,0.15,2,180,0,0,0.29693029999907594,['n'],0.5515405999976792,1.3940000000000001,2130.269849999997,,,,,521,20,Woman,Right,
,,,,,,,,,,,,,,,,,521,20,Woman,Right,4,23,0.4,2,180,0,0,0.3067042000038782,['y'],1.112121099999058,1.724,2134.236370999999,,,,,521,20,Woman,Right,
,,,,,,,,,,,,,,,,,521,20,Woman,Right,4,28,0.4,1,0,-,0,0.3778766999967047,['n'],0.5361999999950058,1.724,2137.3531902999966,,,,,521,20,Woman,Right,
,,,,,,,,,,,,,,,,,521,20,Woman,Right,4,10,0.4,1,180,-,180,0.5885099000006448,['n'],1.528033399998094,1.078,2141.8698170999996,,,,,521,20,Woman,Right,
,,,,,,,,,,,,,,,,,521,20,Woman,Right,4,21,0.4,2,0,180,180,0.375153599998157,['y'],0.6317456000033417,1.794,2145.302977799998,,,,,521,20,Woman,Right,
,,,,,,,,,,,,,,,,,521,20,Woman,Right,4,31,0.4,2,180,0,0,0.3394871000054991,['y'],0.751859299998614,1.6440000000000001,2149.2198393,,,,,521,20,Woman,Right,
,,,,,,,,,,,,,,,,,521,20,Woman,Right,4,41,0.4,2,0,180,180,0.3851871999941068,['y'],0.927551399996446,1.666,2154.4532531000004,,,,,521,20,Woman,Right,
,,,,,,,,,,,,,,,,,521,20,Woman,Right,4,78,0.15,1,180,-,0,0.37608840000029886,['n'],0.9992014000017662,1.186,2158.1863872999966,,,,,521,20,Woman,Right,
,,,,,,,,,,,,,,,,,521,20,Woman,Right,4,57,0.15,2,0,180,180,0.47872539999661967,['y'],0.5752246999982162,1.314,2161.853239199998,,,,,521,20,Woman,Right,
,,,,,,,,,,,,,,,,,521,20,Woman,Right,4,7,1,2,180,0,0,0.37243900000612484,['y'],0.5596166000032099,1.8519999999999999,2165.1368120999978,,,,,521,20,Woman,Right,
,,,,,,,,,,,,,,,,,521,20,Woman,Right,4,49,0.15,2,0,180,180,0.4088484000021708,['y'],0.9677168999987771,1.014,2169.2864013,,,,,521,20,Woman,Right,
,,,,,,,,,,,,,,,,,521,20,Woman,Right,4,63,0.15,2,180,0,0,0.6603106000038679,['y'],0.7434478000068339,1.79,2173.020036199996,,,,,521,20,Woman,Right,
,,,,,,,,,,,,,,,,,521,20,Woman,Right,4,44,0.15,1,0,-,0,0.3910232000052929,['n'],0.7038243999995757,1.548,2177.4697877,,,,,521,20,Woman,Right,
,,,,,,,,,,,,,,,,,521,20,Woman,Right,4,46,0.15,1,180,-,180,0.6148572000020067,['n'],1.1038715000031516,1.0,2182.5878494999997,,,,,521,20,Woman,Right,
,,,,,,,,,,,,,,,,,521,20,Woman,Right,4,29,0.4,2,0,180,180,1.304018000002543,['y'],0.7437571999980719,1.726,2187.403130300001,,,,,521,20,Woman,Right,
,,,,,,,,,,,,,,,,,521,20,Woman,Right,4,72,0.15,1,0,-,0,0.8416996000014478,['y'],0.6401408000019728,1.0,2191.5863814999975,,,,,521,20,Woman,Right,
,,,,,,,,,,,,,,,,,521,20,Woman,Right,4,74,0.15,1,180,-,180,0.5756118999997852,['n'],1.5918231999967247,1.0,2197.1700024999955,,,,,521,20,Woman,Right,
,,,,,,,,,,,,,,,,,521,20,Woman,Right,4,70,0.15,1,180,-,180,0.5935678000023472,['n'],0.6558100999973249,1.002,2201.3702965999983,,,,,521,20,Woman,Right,
,,,,,,,,,,,,,,,,,521,20,Woman,Right,4,36,0.4,1,0,-,0,0.37732729999697767,['n'],0.935760799999116,1.16,2205.487417299999,,,,,521,20,Woman,Right,
,,,,,,,,,,,,,,,,,521,20,Woman,Right,4,2,1,1,180,-,180,0.34452560000499943,['n'],0.9430926999993972,1.948,2210.6364371999953,,,,,521,20,Woman,Right,
,,,,,,,,,,,,,,,,,521,20,Woman,Right,4,6,1,1,180,-,180,0.8035105000017211,['n'],0.8957873999970616,2.0,2214.8699110000016,,,,,521,20,Woman,Right,
,,,,,,,,,,,,,,,,,521,20,Woman,Right,4,11,0.4,2,180,0,0,0.40577589999884367,['y'],0.7272661000024527,2.0,2218.870036100001,,,,,521,20,Woman,Right,
,,,,,,,,,,,,,,,,,521,20,Woman,Right,4,53,0.15,2,0,180,0,0.7455168999949819,['n'],1.0480042999988655,1.0,2223.3532253999947,,,,,521,20,Woman,Right,
,,,,,,,,,,,,,,,,,521,20,Woman,Right,4,20,0.4,1,0,-,0,0.5882889999993495,['y'],1.175823700003093,1.908,2228.103178199999,,,,,521,20,Woman,Right,
,,,,,,,,,,,,,,,,,521,20,Woman,Right,4,37,0.4,2,0,180,180,0.39227779999782797,['y'],0.7679672000012943,1.854,2232.2864548,,,,,521,20,Woman,Right,
,,,,,,,,,,,,,,,,,521,20,Woman,Right,4,17,0.4,2,0,180,180,0.6893869999985327,['y'],0.6958736000015051,1.95,2236.3364828999984,,,,,521,20,Woman,Right,
,,,,,,,,,,,,,,,,,521,20,Woman,Right,5,43,0.4,2,180,0,0,0.4463045999946189,['y'],0.815714600001229,1.8719999999999999,2243.1707850999956,92.5,82.5,90.0,,521,20,Woman,Right,
,,,,,,,,,,,,,,,,,521,20,Woman,Right,5,73,0.15,2,0,180,180,0.3940075999998953,['y'],0.6322384000013699,1.268,2247.0697798999972,,,,,521,20,Woman,Right,
,,,,,,,,,,,,,,,,,521,20,Woman,Right,5,33,0.4,2,0,180,180,0.3750635000033071,['y'],0.7845111999995424,1.17,2250.5198582999947,,,,,521,20,Woman,Right,
,,,,,,,,,,,,,,,,,521,20,Woman,Right,5,0,1,1,0,-,0,0.3773125000006985,['n'],0.6878940000024159,1.8980000000000001,2253.9366010000012,,,,,521,20,Woman,Right,
,,,,,,,,,,,,,,,,,521,20,Woman,Right,5,19,0.4,2,180,0,0,0.29986920000374084,['y'],0.5915505999946618,1.646,2257.2374851999994,,,,,521,20,Woman,Right,
,,,,,,,,,,,,,,,,,521,20,Woman,Right,5,47,0.15,2,180,0,0,0.3847634999983711,['y'],0.6396064000000479,1.746,2260.5531415000005,,,,,521,20,Woman,Right,
,,,,,,,,,,,,,,,,,521,20,Woman,Right,5,11,0.4,2,180,0,0,0.3713239999997313,['y'],0.6157388999999966,1.76,2263.8364518000017,,,,,521,20,Woman,Right,
,,,,,,,,,,,,,,,,,521,20,Woman,Right,5,17,0.4,2,0,180,180,0.4402304000032018,['y'],0.7357646000018576,1.724,2267.6032195000007,,,,,521,20,Woman,Right,
,,,,,,,,,,,,,,,,,521,20,Woman,Right,5,76,0.15,1,0,-,180,0.6261240000021644,['y'],0.6477536999955191,1.1179999999999999,2272.136588399997,,,,,521,20,Woman,Right,
,,,,,,,,,,,,,,,,,521,20,Woman,Right,5,18,0.4,1,180,-,180,0.5430247999975109,['n'],0.7601215000031516,1.186,2276.469768499999,,,,,521,20,Woman,Right,
,,,,,,,,,,,,,,,,,521,20,Woman,Right,5,56,0.15,1,0,-,180,0.5272030999985873,['n'],2.247962599998573,1.002,2281.920567399997,,,,,521,20,Woman,Right,
,,,,,,,,,,,,,,,,,521,20,Woman,Right,5,24,0.4,1,0,-,0,0.2782521000044653,['n'],2.2718759999988833,1.248,2287.503394499996,,,,,521,20,Woman,Right,
,,,,,,,,,,,,,,,,,521,20,Woman,Right,5,59,0.15,2,180,0,0,0.3003214999989723,['y'],0.6523626999987755,1.624,2291.003292399997,,,,,521,20,Woman,Right,
,,,,,,,,,,,,,,,,,521,20,Woman,Right,5,29,0.4,2,0,180,180,0.4725428000019747,['y'],0.6718542999951751,1.264,2295.120563999997,,,,,521,20,Woman,Right,
,,,,,,,,,,,,,,,,,521,20,Woman,Right,5,34,0.4,1,180,-,180,0.35434559999703197,['n'],0.6876256999967154,1.24,2298.5865178999957,,,,,521,20,Woman,Right,
,,,,,,,,,,,,,,,,,521,20,Woman,Right,5,16,0.4,1,0,-,0,0.1778825000001234,['n'],0.7519433999987086,1.158,2302.1531973999954,,,,,521,20,Woman,Right,
,,,,,,,,,,,,,,,,,521,20,Woman,Right,5,45,0.15,2,0,180,0,0.4255814999996801,['n'],0.6796942000000854,1.1520000000000001,2305.736597999996,,,,,521,20,Woman,Right,
,,,,,,,,,,,,,,,,,521,20,Woman,Right,5,50,0.15,1,180,-,180,0.545632100001967,['n'],0.5282968000028632,1.034,2309.4866370999953,,,,,521,20,Woman,Right,
,,,,,,,,,,,,,,,,,521,20,Woman,Right,5,10,0.4,1,180,-,180,0.4108721000011428,['n'],0.6233664000028512,1.224,2312.9699183999983,,,,,521,20,Woman,Right,
,,,,,,,,,,,,,,,,,521,20,Woman,Right,5,12,0.4,1,0,-,0,0.2969897000002675,['n'],1.3119599999990896,1.6139999999999999,2317.336612699997,,,,,521,20,Woman,Right,
,,,,,,,,,,,,,,,,,521,20,Woman,Right,5,75,0.15,2,180,0,0,0.5166461000044364,['y'],0.5758652999938931,1.6219999999999999,2320.969921899996,,,,,521,20,Woman,Right,
,,,,,,,,,,,,,,,,,521,20,Woman,Right,5,23,0.4,2,180,0,0,0.3246036999989883,['y'],0.600579199999629,1.6219999999999999,2324.153387899998,,,,,521,20,Woman,Right,
,,,,,,,,,,,,,,,,,521,20,Woman,Right,5,49,0.15,2,0,180,180,0.6316479000015534,['y'],0.7114699000012479,1.0,2329.686689199996,,,,,521,20,Woman,Right,
,,,,,,,,,,,,,,,,,521,20,Woman,Right,5,15,0.4,2,180,0,0,0.40796290000434965,['y'],0.887689399998635,1.6059999999999999,2333.3033380999987,,,,,521,20,Woman,Right,
,,,,,,,,,,,,,,,,,521,20,Woman,Right,5,52,0.15,1,0,-,0,0.44834699999773875,['n'],0.8875403999991249,1.608,2336.869854299999,,,,,521,20,Woman,Right,
,,,,,,,,,,,,,,,,,521,20,Woman,Right,5,44,0.15,1,0,-,0,0.5272055999957956,['n'],0.6082676000005449,1.6059999999999999,2340.6032475999964,,,,,521,20,Woman,Right,
,,,,,,,,,,,,,,,,,521,20,Woman,Right,5,38,0.4,1,180,-,180,0.41717520000383956,['n'],1.0320567000017036,1.16,2345.003273999995,,,,,521,20,Woman,Right,
,,,,,,,,,,,,,,,,,521,20,Woman,Right,5,31,0.4,2,180,0,0,0.24877479999850038,['y'],0.9039204000000609,1.764,2349.103340599999,,,,,521,20,Woman,Right,
,,,,,,,,,,,,,,,,,521,20,Woman,Right,5,1,1,2,0,180,180,0.4838619000001927,['y'],0.6231186000004527,1.986,2353.5532896000004,,,,,521,20,Woman,Right,
,,,,,,,,,,,,,,,,,521,20,Woman,Right,5,74,0.15,1,180,-,180,0.6026330000022426,['y'],0.6391793000002508,1.1360000000000001,2357.1700054999965,,,,,521,20,Woman,Right,
,,,,,,,,,,,,,,,,,521,20,Woman,Right,5,78,0.15,1,180,-,0,0.3282401000033133,['y'],0.7281312999984948,1.0,2360.8865307000015,,,,,521,20,Woman,Right,
,,,,,,,,,,,,,,,,,521,20,Woman,Right,5,77,0.15,2,0,180,180,0.4595036999962758,['y'],0.9279489999971702,1.0,2364.769908999995,,,,,521,20,Woman,Right,
,,,,,,,,,,,,,,,,,521,20,Woman,Right,5,3,1,2,180,0,0,0.7310151999990921,['y'],0.6957290000063949,1.826,2368.5865817000013,,,,,521,20,Woman,Right,
,,,,,,,,,,,,,,,,,521,20,Woman,Right,5,9,0.4,2,0,180,180,0.4989114999989397,['y'],0.7431112000049325,1.688,2372.086555499998,,,,,521,20,Woman,Right,
,,,,,,,,,,,,,,,,,521,20,Woman,Right,5,71,0.15,2,180,0,0,0.40691189999779454,['y'],0.6076898999963305,1.754,2375.4205459000004,,,,,521,20,Woman,Right,
,,,,,,,,,,,,,,,,,521,20,Woman,Right,5,37,0.4,2,0,180,180,0.4325662999981432,['y'],0.6155328999957419,1.754,2378.853263099998,,,,,521,20,Woman,Right,
,,,,,,,,,,,,,,,,,521,20,Woman,Right,5,48,0.15,1,0,-,0,0.9308421000023372,['n'],0.4805479999995441,1.26,2384.0534319,,,,,521,20,Woman,Right,
,,,,,,,,,,,,,,,,,521,20,Woman,Right,5,5,1,2,0,180,180,0.3287447999973665,['y'],0.599319299995841,1.996,2388.1532680999953,,,,,521,20,Woman,Right,
,,,,,,,,,,,,,,,,,521,20,Woman,Right,5,70,0.15,1,180,-,180,0.7264482000027783,['n'],0.7198457999984385,1.0,2392.3866215000016,,,,,521,20,Woman,Right,
,,,,,,,,,,,,,,,,,521,20,Woman,Right,5,22,0.4,1,180,-,180,0.35816659999545664,['n'],0.6636231000011321,1.0,2396.036752699998,,,,,521,20,Woman,Right,
,,,,,,,,,,,,,,,,,521,20,Woman,Right,5,72,0.15,1,0,-,0,0.32850309999776073,['y'],0.759896800002025,1.2,2399.6540899999964,,,,,521,20,Woman,Right,
,,,,,,,,,,,,,,,,,521,20,Woman,Right,5,64,0.15,1,0,-,180,0.5544384999957401,['n'],0.7444481999991694,1.1520000000000001,2403.5869565999965,,,,,521,20,Woman,Right,
,,,,,,,,,,,,,,,,,521,20,Woman,Right,5,26,0.4,1,180,-,180,0.6725232999961008,['n'],0.8955268999998225,1.004,2407.8032374999966,,,,,521,20,Woman,Right,
,,,,,,,,,,,,,,,,,521,20,Woman,Right,5,40,0.4,1,0,-,0,0.3501671999983955,['n'],2.087561000000278,1.254,2413.286585099995,,,,,521,20,Woman,Right,
,,,,,,,,,,,,,,,,,521,20,Woman,Right,5,63,0.15,2,180,0,0,0.46540039999672445,['y'],0.6637641999986954,1.6680000000000001,2417.3366499999975,,,,,521,20,Woman,Right,
,,,,,,,,,,,,,,,,,521,20,Woman,Right,5,7,1,2,180,0,0,0.44960700000228826,['y'],0.6316899000012199,1.702,2421.220034099999,,,,,521,20,Woman,Right,
,,,,,,,,,,,,,,,,,521,20,Woman,Right,5,39,0.4,2,180,0,0,0.4927819000004092,['y'],0.5834796999988612,1.966,2424.687314099996,,,,,521,20,Woman,Right,
,,,,,,,,,,,,,,,,,521,20,Woman,Right,5,27,0.4,2,180,0,0,0.37160290000610985,['y'],0.7117647999984911,1.916,2428.837105599996,,,,,521,20,Woman,Right,
,,,,,,,,,,,,,,,,,521,20,Woman,Right,5,14,0.4,1,180,-,180,0.5096015999952215,['n'],0.9675156000012066,1.126,2432.803339799997,,,,,521,20,Woman,Right,
,,,,,,,,,,,,,,,,,521,20,Woman,Right,5,62,0.15,1,180,-,180,0.47745149999536807,['n'],0.9597183000005316,1.0,2437.2033981999994,,,,,521,20,Woman,Right,
,,,,,,,,,,,,,,,,,521,20,Woman,Right,5,35,0.4,2,180,0,0,0.2574659999954747,['y'],0.7357262000004994,1.708,2440.6870844000005,,,,,521,20,Woman,Right,
,,,,,,,,,,,,,,,,,521,20,Woman,Right,5,13,0.4,2,0,180,180,0.4934801999988849,['y'],0.7437754999991739,1.252,2445.4200282999955,,,,,521,20,Woman,Right,
,,,,,,,,,,,,,,,,,521,20,Woman,Right,5,20,0.4,1,0,-,180,0.4303312000047299,['n'],0.7038635999997496,1.0,2449.420013499999,,,,,521,20,Woman,Right,
,,,,,,,,,,,,,,,,,521,20,Woman,Right,5,79,0.15,2,180,0,0,0.41659839999920223,['y'],2.760081899999932,1.0,2455.119929799999,,,,,521,20,Woman,Right,
,,,,,,,,,,,,,,,,,521,20,Woman,Right,5,36,0.4,1,0,-,0,1.8514240000004065,['n'],1.1753409999946598,1.754,2461.5867775000006,,,,,521,20,Woman,Right,
,,,,,,,,,,,,,,,,,521,20,Woman,Right,5,67,0.15,2,180,0,180,0.5835651000015787,['y'],1.2238371999992523,1.004,2466.2540654999975,,,,,521,20,Woman,Right,
,,,,,,,,,,,,,,,,,521,20,Woman,Right,5,60,0.15,1,0,-,0,0.39618460000201594,['n'],0.7759743999995408,1.0,2470.820062300001,,,,,521,20,Woman,Right,
,,,,,,,,,,,,,,,,,521,20,Woman,Right,5,69,0.15,2,0,180,0,0.6794088999959058,['y'],0.647868699998071,1.0,2474.636701299998,,,,,521,20,Woman,Right,
,,,,,,,,,,,,,,,,,521,20,Woman,Right,5,53,0.15,2,0,180,180,0.5886723999938113,['y'],0.6318476000014925,1.026,2478.304301899996,,,,,521,20,Woman,Right,
,,,,,,,,,,,,,,,,,521,20,Woman,Right,5,6,1,1,180,-,180,0.7611726000031922,['n'],1.1038871999990079,1.6560000000000001,2482.7868769999986,,,,,521,20,Woman,Right,
,,,,,,,,,,,,,,,,,521,20,Woman,Right,5,25,0.4,2,0,180,180,1.0124202000006335,['y'],0.6159604999993462,1.6480000000000001,2486.5700728999946,,,,,521,20,Woman,Right,
,,,,,,,,,,,,,,,,,521,20,Woman,Right,5,54,0.15,1,180,-,180,0.6240733000013279,['n'],0.551917400000093,1.002,2490.487107699999,,,,,521,20,Woman,Right,
,,,,,,,,,,,,,,,,,521,20,Woman,Right,5,42,0.4,1,180,-,180,0.5278035000010277,['n'],1.104377800002112,1.6560000000000001,2495.3034692,,,,,521,20,Woman,Right,
,,,,,,,,,,,,,,,,,521,20,Woman,Right,5,4,1,1,0,-,0,0.37427049999678275,['n'],1.1278215999991517,1.8940000000000001,2500.586723399996,,,,,521,20,Woman,Right,
,,,,,,,,,,,,,,,,,521,20,Woman,Right,5,57,0.15,2,0,180,180,0.9411851999975624,['y'],0.6478267999991658,1.028,2505.203465300001,,,,,521,20,Woman,Right,
,,,,,,,,,,,,,,,,,521,20,Woman,Right,5,2,1,1,180,-,180,1.227762900001835,['y'],2.1839246999952593,1.376,2512.253459899999,,,,,521,20,Woman,Right,
,,,,,,,,,,,,,,,,,521,20,Woman,Right,5,41,0.4,2,0,180,180,1.1982538000011118,['y'],0.5037279999960447,1.838,2516.986647699996,,,,,521,20,Woman,Right,
,,,,,,,,,,,,,,,,,521,20,Woman,Right,5,65,0.15,2,0,180,180,0.5361945000040578,['y'],0.8400088999987929,1.08,2521.3704138999965,,,,,521,20,Woman,Right,
,,,,,,,,,,,,,,,,,521,20,Woman,Right,5,55,0.15,2,180,0,0,0.49168810000264784,['y'],2.127479200004018,1.208,2526.853504699997,,,,,521,20,Woman,Right,
,,,,,,,,,,,,,,,,,521,20,Woman,Right,5,46,0.15,1,180,-,180,0.41923819999647094,['n'],0.6955707000015536,1.068,2530.7368610999984,,,,,521,20,Woman,Right,
,,,,,,,,,,,,,,,,,521,20,Woman,Right,5,8,0.4,1,0,-,0,0.5024007000029087,['y'],1.6559859000044526,1.026,2535.620116799997,,,,,521,20,Woman,Right,
,,,,,,,,,,,,,,,,,521,20,Woman,Right,5,61,0.15,2,0,180,180,0.45197100000223145,['y'],0.6237504000018816,1.6640000000000001,2539.2035713000005,,,,,521,20,Woman,Right,
,,,,,,,,,,,,,,,,,521,20,Woman,Right,5,28,0.4,1,0,-,0,0.3215399999971851,['n'],1.0078135000003385,1.786,2542.853412699995,,,,,521,20,Woman,Right,
,,,,,,,,,,,,,,,,,521,20,Woman,Right,5,30,0.4,1,180,-,180,0.44604529999924125,['n'],1.095722999998543,1.046,2546.970212100001,,,,,521,20,Woman,Right,
,,,,,,,,,,,,,,,,,521,20,Woman,Right,5,51,0.15,2,180,0,0,0.33631330000207527,['y'],0.6319487000000663,1.604,2550.654110399999,,,,,521,20,Woman,Right,
,,,,,,,,,,,,,,,,,521,20,Woman,Right,5,66,0.15,1,180,-,180,0.5069885999982944,['n'],0.5585537000006298,1.0,2554.5200742000015,,,,,521,20,Woman,Right,
,,,,,,,,,,,,,,,,,521,20,Woman,Right,5,32,0.4,1,0,-,0,0.37947940000594826,['n'],0.8158412999982829,1.016,2558.586742599997,,,,,521,20,Woman,Right,
,,,,,,,,,,,,,,,,,521,20,Woman,Right,5,21,0.4,2,0,180,180,0.4500638000026811,['y'],0.5597954000040772,1.734,2562.253448299998,,,,,521,20,Woman,Right,
,,,,,,,,,,,,,,,,,521,20,Woman,Right,5,58,0.15,1,180,-,0,0.741891100005887,['n'],0.6078385000000708,1.034,2566.220179799995,,,,,521,20,Woman,Right,
,,,,,,,,,,,,,,,,,521,20,Woman,Right,5,68,0.15,1,0,-,0,0.34471019999909913,['n'],0.9190035999999964,1.078,2570.1878467999995,,,,,521,20,Woman,Right,
,,,,,,,,,,,,,,,,,,,,,,,,,,,,,,,,,88.75,85.0,97.5,2282.8570868000024,,,,,
