p_block,p_section,p_coherence,p_direction1,p_direction2,p_direction_response,p_direction_RT,p_change_response,p_change_RT,p_confidence,p_full_correct,p_without5_correct,p_full_total,p_without5_total,p_full_avg,p_witout5_avg,p_total_time,sub,age,sex,handedness,loop,trial randomization,coherence,condition,direction1,direction2,direction_response,direction_RT,change_response,change_RT,change_confidence,change_confidence_RT,block_direction_avg,block_stable_avg,block_change_avg,total_time,sub,age,sex,handedness,
1,1,1.0,0,-,0,0.6523167000000285,-,-,-,,,,,,,,556,18,Woman,Right,,,,,,,,,,,,,,,,,556,18,Woman,Right,
1,1,1.0,0,-,0,0.028271700000004785,-,-,-,,,,,,,,556,18,Woman,Right,,,,,,,,,,,,,,,,,556,18,Woman,Right,
1,1,1.0,180,-,180,2.4775293000000147,-,-,-,,,,,,,,556,18,Woman,Right,,,,,,,,,,,,,,,,,556,18,Woman,Right,
1,1,1.0,180,-,180,0.01674759999991693,-,-,-,,,,,,,,556,18,Woman,Right,,,,,,,,,,,,,,,,,556,18,Woman,Right,
1,1,1.0,180,-,180,0.3981982999998763,-,-,-,,,,,,,,556,18,Woman,Right,,,,,,,,,,,,,,,,,556,18,Woman,Right,
1,1,1.0,0,-,0,0.02487529999984872,-,-,-,,,,,,,,556,18,Woman,Right,,,,,,,,,,,,,,,,,556,18,Woman,Right,
1,1,1.0,0,-,0,0.10042369999996481,-,-,-,,,,,,,,556,18,Woman,Right,,,,,,,,,,,,,,,,,556,18,Woman,Right,
1,1,1.0,180,-,180,0.016734700000142766,-,-,-,,,,,,,,556,18,Woman,Right,,,,,,,,,,,,,,,,,556,18,Woman,Right,
1,1,1.0,180,-,180,0.0735116000000744,-,-,-,,,,,,,,556,18,Woman,Right,,,,,,,,,,,,,,,,,556,18,Woman,Right,
1,1,1.0,180,-,180,0.016720200000008845,-,-,-,10,10,10,10,1.0,1.0,,556,18,Woman,Right,,,,,,,,,,,,,,,,,556,18,Woman,Right,
2,1,0.15,180,-,0,0.9375729000000774,-,-,-,,,,,,,,556,18,Woman,Right,,,,,,,,,,,,,,,,,556,18,Woman,Right,
2,1,0.4,0,-,180,0.8699988000000758,-,-,-,,,,,,,,556,18,Woman,Right,,,,,,,,,,,,,,,,,556,18,Woman,Right,
2,1,0.15,0,-,0,0.16577729999994517,-,-,-,,,,,,,,556,18,Woman,Right,,,,,,,,,,,,,,,,,556,18,Woman,Right,
2,1,0.15,0,-,0,0.153033300000061,-,-,-,,,,,,,,556,18,Woman,Right,,,,,,,,,,,,,,,,,556,18,Woman,Right,
2,1,0.4,180,-,180,0.017016000000012355,-,-,-,,,,,,,,556,18,Woman,Right,,,,,,,,,,,,,,,,,556,18,Woman,Right,
2,1,0.15,180,-,180,0.05407160000004296,-,-,-,,,,,,,,556,18,Woman,Right,,,,,,,,,,,,,,,,,556,18,Woman,Right,
2,1,0.4,0,-,0,0.11809410000000753,-,-,-,,,,,,,,556,18,Woman,Right,,,,,,,,,,,,,,,,,556,18,Woman,Right,
2,1,0.4,180,-,180,0.6674719999998615,-,-,-,,,,,,,,556,18,Woman,Right,,,,,,,,,,,,,,,,,556,18,Woman,Right,
2,1,0.4,180,-,0,0.017070800000055897,-,-,-,,,,,,,,556,18,Woman,Right,,,,,,,,,,,,,,,,,556,18,Woman,Right,
2,1,0.4,0,-,0,0.09212070000012318,-,-,-,,,,,,,,556,18,Woman,Right,,,,,,,,,,,,,,,,,556,18,Woman,Right,
2,1,0.4,180,-,180,0.016727899999978035,-,-,-,,,,,,,,556,18,Woman,Right,,,,,,,,,,,,,,,,,556,18,Woman,Right,
2,1,0.15,0,-,0,0.016709700000092198,-,-,-,,,,,,,,556,18,Woman,Right,,,,,,,,,,,,,,,,,556,18,Woman,Right,
2,1,0.4,180,-,180,0.016770899999983158,-,-,-,,,,,,,,556,18,Woman,Right,,,,,,,,,,,,,,,,,556,18,Woman,Right,
2,1,0.4,180,-,180,0.07068839999988086,-,-,-,,,,,,,,556,18,Woman,Right,,,,,,,,,,,,,,,,,556,18,Woman,Right,
2,1,0.15,180,-,180,0.016686899999967864,-,-,-,,,,,,,,556,18,Woman,Right,,,,,,,,,,,,,,,,,556,18,Woman,Right,
2,1,0.4,0,-,180,0.05542020000007142,-,-,-,,,,,,,,556,18,Woman,Right,,,,,,,,,,,,,,,,,556,18,Woman,Right,
2,1,0.15,180,-,0,0.016718500000024505,-,-,-,,,,,,,,556,18,Woman,Right,,,,,,,,,,,,,,,,,556,18,Woman,Right,
2,1,0.4,180,-,180,0.296684599999935,-,-,-,,,,,,,,556,18,Woman,Right,,,,,,,,,,,,,,,,,556,18,Woman,Right,
2,1,0.15,0,-,180,0.1513318000002073,-,-,-,,,,,,,,556,18,Woman,Right,,,,,,,,,,,,,,,,,556,18,Woman,Right,
2,1,0.15,0,-,0,0.13933160000010503,-,-,-,7,4,10,5,0.7,0.8,,556,18,Woman,Right,,,,,,,,,,,,,,,,,556,18,Woman,Right,
3,2,1.0,0,180,0,0.01671089999990727,['y'],7.47758070000009,2,,,,,,,,556,18,Woman,Right,,,,,,,,,,,,,,,,,556,18,Woman,Right,
3,2,1.0,0,180,180,1.44946270000014,['y'],4.745079700000133,1.818,,,,,,,,556,18,Woman,Right,,,,,,,,,,,,,,,,,556,18,Woman,Right,
3,2,1.0,0,180,180,1.2385833999996976,['y'],0.29474690000006376,2.0,,,,,,,,556,18,Woman,Right,,,,,,,,,,,,,,,,,556,18,Woman,Right,
3,2,1.0,180,0,0,0.6506564999999682,['y'],0.01761099999976068,1.978,,,,,,,,556,18,Woman,Right,,,,,,,,,,,,,,,,,556,18,Woman,Right,
3,2,1.0,180,0,0,1.4335719999999128,['y'],0.24932910000006814,1.978,,,,,,,,556,18,Woman,Right,,,,,,,,,,,,,,,,,556,18,Woman,Right,
3,2,1.0,0,180,180,0.549896400000307,['y'],0.30615820000002714,1.976,,,,,,,,556,18,Woman,Right,,,,,,,,,,,,,,,,,556,18,Woman,Right,
3,2,1.0,180,0,0,0.613872899999933,['y'],0.46362090000002354,1.976,,,,,,,,556,18,Woman,Right,,,,,,,,,,,,,,,,,556,18,Woman,Right,
3,2,1.0,180,0,0,0.5752237000001514,['y'],0.33901779999996506,1.976,,,,,,,,556,18,Woman,Right,,,,,,,,,,,,,,,,,556,18,Woman,Right,
3,2,1.0,0,180,180,0.3790433000003759,['y'],0.5034279999999853,1.964,,,,,,,,556,18,Woman,Right,,,,,,,,,,,,,,,,,556,18,Woman,Right,
3,2,1.0,180,0,0,0.5718301000001702,['y'],0.3509038000001965,1.964,9,9,10,10,0.9,0.9,,556,18,Woman,Right,,,,,,,,,,,,,,,,,556,18,Woman,Right,
4,2,0.15,180,0,180,2.7498592000001736,['n'],0.9948381999997764,1.004,,,,,,,,556,18,Woman,Right,,,,,,,,,,,,,,,,,556,18,Woman,Right,
4,2,0.15,0,180,0,1.512087099999917,['y'],1.1734624999999141,1.788,,,,,,,,556,18,Woman,Right,,,,,,,,,,,,,,,,,556,18,Woman,Right,
4,2,0.4,0,180,180,1.1485505999999077,['y'],0.23988490000010643,1.782,,,,,,,,556,18,Woman,Right,,,,,,,,,,,,,,,,,556,18,Woman,Right,
4,2,0.4,180,0,0,0.38109839999970063,['y'],0.31208680000008826,1.782,,,,,,,,556,18,Woman,Right,,,,,,,,,,,,,,,,,556,18,Woman,Right,
4,2,0.15,0,180,0,0.5588840000000346,['n'],0.29043519999959244,1.296,,,,,,,,556,18,Woman,Right,,,,,,,,,,,,,,,,,556,18,Woman,Right,
4,2,0.15,180,0,0,1.123879599999782,['n'],0.6895537000000331,1.3780000000000001,,,,,,,,556,18,Woman,Right,,,,,,,,,,,,,,,,,556,18,Woman,Right,
4,2,0.4,180,0,0,0.48652579999998125,['y'],0.22901240000010148,1.734,,,,,,,,556,18,Woman,Right,,,,,,,,,,,,,,,,,556,18,Woman,Right,
4,2,0.15,0,180,0,0.44183150000026217,['y'],0.2027775000001384,1.802,,,,,,,,556,18,Woman,Right,,,,,,,,,,,,,,,,,556,18,Woman,Right,
4,2,0.4,180,0,0,0.9783161000000291,['y'],0.07017240000004676,1.67,,,,,,,,556,18,Woman,Right,,,,,,,,,,,,,,,,,556,18,Woman,Right,
4,2,0.15,180,0,0,0.6281076000000212,['y'],0.23684240000011414,1.67,6,4,10,4,0.6,1.0,,556,18,Woman,Right,,,,,,,,,,,,,,,,,556,18,Woman,Right,
5,3,0.4,180,0,0,0.46261279999998806,['y'],0.2779733000002125,1.694,,,,,,,,556,18,Woman,Right,,,,,,,,,,,,,,,,,556,18,Woman,Right,
5,3,0.15,180,0,0,0.5146048999999948,['y'],0.28832580000016605,1.962,,,,,,,,556,18,Woman,Right,,,,,,,,,,,,,,,,,556,18,Woman,Right,
5,3,0.4,0,180,180,0.6910185000001547,['y'],0.17812030000004597,1.962,,,,,,,,556,18,Woman,Right,,,,,,,,,,,,,,,,,556,18,Woman,Right,
5,3,0.4,0,180,0,0.5668832999999722,['y'],0.2338094000001547,1.802,,,,,,,,556,18,Woman,Right,,,,,,,,,,,,,,,,,556,18,Woman,Right,
5,3,0.4,0,-,0,1.0837163999999575,['y'],0.40952169999991384,1.384,,,,,,,,556,18,Woman,Right,,,,,,,,,,,,,,,,,556,18,Woman,Right,
5,3,0.15,180,0,0,1.783596100000068,['y'],0.3255748000001404,1.698,,,,,,,,556,18,Woman,Right,,,,,,,,,,,,,,,,,556,18,Woman,Right,
5,3,0.4,180,0,180,0.4946101999998973,['n'],0.8603801999997813,1.014,,,,,,,,556,18,Woman,Right,,,,,,,,,,,,,,,,,556,18,Woman,Right,
5,3,1.0,180,0,0,0.4583816999997907,['y'],0.29788749999988795,1.67,,,,,,,,556,18,Woman,Right,,,,,,,,,,,,,,,,,556,18,Woman,Right,
5,3,0.4,180,0,0,0.5699690999999802,['n'],0.5727867999999035,1.678,,,,,,,,556,18,Woman,Right,,,,,,,,,,,,,,,,,556,18,Woman,Right,
5,3,1.0,0,180,180,0.4321982000001299,['y'],0.23347919999969236,1.678,,,,,,,,556,18,Woman,Right,,,,,,,,,,,,,,,,,556,18,Woman,Right,
5,3,0.4,180,-,0,3.6609714999999596,['n'],0.2612954000001082,1.802,,,,,,,,556,18,Woman,Right,,,,,,,,,,,,,,,,,556,18,Woman,Right,
5,3,0.15,0,180,180,0.6230387000000519,['y'],0.31208539999988716,1.982,,,,,,,,556,18,Woman,Right,,,,,,,,,,,,,,,,,556,18,Woman,Right,
5,3,0.15,0,180,0,0.5902642000000924,['n'],0.5926509999999325,1.02,,,,,,,,556,18,Woman,Right,,,,,,,,,,,,,,,,,556,18,Woman,Right,
5,3,0.15,0,180,180,0.5343299999999545,['y'],0.2181553000000349,2.0,,,,,,,,556,18,Woman,Right,,,,,,,,,,,,,,,,,556,18,Woman,Right,
5,3,0.15,0,180,0,0.5756019000000379,['y'],0.2353096000001642,1.724,,,,,,,,556,18,Woman,Right,,,,,,,,,,,,,,,,,556,18,Woman,Right,
5,3,1.0,0,-,180,0.7489024000001336,['n'],0.28097939999997834,1.746,,,,,,,,556,18,Woman,Right,,,,,,,,,,,,,,,,,556,18,Woman,Right,
5,3,0.15,180,0,0,0.5168094999999084,['n'],0.31468119999999544,1.746,,,,,,,,556,18,Woman,Right,,,,,,,,,,,,,,,,,556,18,Woman,Right,
5,3,0.15,180,-,180,0.6972095000000991,['n'],0.45614400000022215,2.0,,,,,,,,556,18,Woman,Right,,,,,,,,,,,,,,,,,556,18,Woman,Right,
5,3,0.15,180,0,0,0.7126452000002246,['n'],0.3183294999998907,1.994,,,,,,,,556,18,Woman,Right,,,,,,,,,,,,,,,,,556,18,Woman,Right,
5,3,1.0,0,180,180,1.2000056000001678,['y'],0.34408480000001873,1.994,,,,,,,,556,18,Woman,Right,,,,,,,,,,,,,,,,,556,18,Woman,Right,
5,3,1.0,180,-,180,1.3841625999998541,['n'],0.2667418999999427,1.994,,,,,,,,556,18,Woman,Right,,,,,,,,,,,,,,,,,556,18,Woman,Right,
5,3,0.4,180,0,0,0.6452684999999292,['y'],0.44655439999996815,1.994,,,,,,,,556,18,Woman,Right,,,,,,,,,,,,,,,,,556,18,Woman,Right,
5,3,0.15,0,-,0,0.0794728999999279,['n'],1.1901629999997567,1.988,,,,,,,,556,18,Woman,Right,,,,,,,,,,,,,,,,,556,18,Woman,Right,
5,3,0.15,0,-,0,1.4273418000002493,['n'],0.14082790000020395,1.988,,,,,,,,556,18,Woman,Right,,,,,,,,,,,,,,,,,556,18,Woman,Right,
5,3,0.4,180,-,180,0.4053569999996398,['y'],0.11868919999960781,1.65,,,,,,,,556,18,Woman,Right,,,,,,,,,,,,,,,,,556,18,Woman,Right,
5,3,0.4,0,180,180,1.4667420000000675,['y'],0.26674629999979516,1.77,,,,,,,,556,18,Woman,Right,,,,,,,,,,,,,,,,,556,18,Woman,Right,
5,3,1.0,180,0,0,0.3903456999996706,['y'],0.28913439999996626,1.75,,,,,,,,556,18,Woman,Right,,,,,,,,,,,,,,,,,556,18,Woman,Right,
5,3,0.4,0,180,180,0.48744600000009086,['y'],0.15873599999986254,1.96,,,,,,,,556,18,Woman,Right,,,,,,,,,,,,,,,,,556,18,Woman,Right,
5,3,0.15,180,-,180,0.9195337999999538,['y'],0.30942759999970804,1.99,,,,,,,,556,18,Woman,Right,,,,,,,,,,,,,,,,,556,18,Woman,Right,
5,3,0.15,0,-,0,0.46343609999985347,['y'],0.2873874000001706,2.0,10,6,10,6,1.0,1.0,,556,18,Woman,Right,,,,,,,,,,,,,,,,,556,18,Woman,Right,
,,,,,,,,,,,,,,,,4.100000296602957e-06,556,18,Woman,Right,,,,,,,,,,,,,,,,,556,18,Woman,Right,
,,,,,,,,,,,,,,,,,556,18,Woman,Right,0,8,0.4,1,0,-,0,0.5101907999996911,['y'],1.4228619000000435,1.992,415.79907120000007,,,,,556,18,Woman,Right,
,,,,,,,,,,,,,,,,,556,18,Woman,Right,0,53,0.15,2,0,180,0,0.8614978999999039,['y'],1.0948186999999052,1.698,420.7990021999999,,,,,556,18,Woman,Right,
,,,,,,,,,,,,,,,,,556,18,Woman,Right,0,12,0.4,1,0,-,0,1.6973250000000917,['y'],1.215063199999804,1.3679999999999999,426.3825627000001,,,,,556,18,Woman,Right,
,,,,,,,,,,,,,,,,,556,18,Woman,Right,0,78,0.15,1,180,-,0,0.6273943999999574,['y'],1.950913700000001,1.674,432.08239779999985,,,,,556,18,Woman,Right,
,,,,,,,,,,,,,,,,,556,18,Woman,Right,0,45,0.15,2,0,180,0,0.9999336999999286,['n'],2.5910440999996354,1.674,438.8655745000001,,,,,556,18,Woman,Right,
,,,,,,,,,,,,,,,,,556,18,Woman,Right,0,50,0.15,1,180,-,0,0.6539562999996633,['n'],0.9439156000003095,1.328,444.29892500000005,,,,,556,18,Woman,Right,
,,,,,,,,,,,,,,,,,556,18,Woman,Right,0,68,0.15,1,0,-,0,0.7386685000001307,['y'],1.3749424999996336,1.68,450.2822394,,,,,556,18,Woman,Right,
,,,,,,,,,,,,,,,,,556,18,Woman,Right,0,42,0.4,1,180,-,180,0.7426765999998679,['y'],0.8469531000000643,1.68,455.58218669999997,,,,,556,18,Woman,Right,
,,,,,,,,,,,,,,,,,556,18,Woman,Right,0,31,0.4,2,180,0,0,0.9199837999999545,['y'],1.7349497000000156,1.68,461.7823889000001,,,,,556,18,Woman,Right,
,,,,,,,,,,,,,,,,,556,18,Woman,Right,0,52,0.15,1,0,-,0,0.9060148999997182,['y'],1.3510242000002108,1.68,467.43218690000003,,,,,556,18,Woman,Right,
,,,,,,,,,,,,,,,,,556,18,Woman,Right,0,9,0.4,2,0,180,0,0.4956695999999283,['n'],1.4071502000001601,1.0,472.9988510999997,,,,,556,18,Woman,Right,
,,,,,,,,,,,,,,,,,556,18,Woman,Right,0,34,0.4,1,180,-,0,1.1172445000001971,['y'],1.8070793000001686,1.94,479.3654808000001,,,,,556,18,Woman,Right,
,,,,,,,,,,,,,,,,,556,18,Woman,Right,0,6,1,1,180,-,180,1.2088980999997148,['n'],1.6226897999999892,1.84,485.1821488999999,,,,,556,18,Woman,Right,
,,,,,,,,,,,,,,,,,556,18,Woman,Right,0,60,0.15,1,0,-,0,0.8358678999998119,['y'],1.2710524999997688,1.752,490.1321813999998,,,,,556,18,Woman,Right,
,,,,,,,,,,,,,,,,,556,18,Woman,Right,0,65,0.15,2,0,180,180,0.7153069000000869,['y'],1.1426298000001225,1.752,494.5487847999998,,,,,556,18,Woman,Right,
,,,,,,,,,,,,,,,,,556,18,Woman,Right,0,72,0.15,1,0,-,0,1.3516822000001412,['y'],0.8312230999999883,1.678,499.44877640000004,,,,,556,18,Woman,Right,
,,,,,,,,,,,,,,,,,556,18,Woman,Right,0,46,0.15,1,180,-,180,0.8538730999998734,['y'],0.7908508999998958,1.6480000000000001,503.81541659999993,,,,,556,18,Woman,Right,
,,,,,,,,,,,,,,,,,556,18,Woman,Right,0,61,0.15,2,0,180,0,0.8623725000002196,['y'],1.2869355000002543,1.6480000000000001,508.98202119999996,,,,,556,18,Woman,Right,
,,,,,,,,,,,,,,,,,556,18,Woman,Right,0,67,0.15,2,180,0,0,1.6633954000003541,['y'],0.5752200000001721,1.3639999999999999,513.7654017999998,,,,,556,18,Woman,Right,
,,,,,,,,,,,,,,,,,556,18,Woman,Right,0,48,0.15,1,0,-,0,1.2602833000000828,['y'],0.7109175999999024,1.3780000000000001,518.648733,,,,,556,18,Woman,Right,
,,,,,,,,,,,,,,,,,556,18,Woman,Right,0,54,0.15,1,180,-,180,1.0005877000003238,['y'],0.6553930000000037,1.388,523.4986983999997,,,,,556,18,Woman,Right,
,,,,,,,,,,,,,,,,,556,18,Woman,Right,0,13,0.4,2,0,180,0,0.7033759999999347,['y'],1.166903700000148,1.5819999999999999,529.0153906999999,,,,,556,18,Woman,Right,
,,,,,,,,,,,,,,,,,556,18,Woman,Right,0,73,0.15,2,0,180,0,0.9969502000003558,['y'],2.4479088000002776,1.5819999999999999,538.2486543,,,,,556,18,Woman,Right,
,,,,,,,,,,,,,,,,,556,18,Woman,Right,0,75,0.15,2,180,0,180,0.4571436999999605,['y'],1.2150886000003993,1.5819999999999999,543.1652156,,,,,556,18,Woman,Right,
,,,,,,,,,,,,,,,,,556,18,Woman,Right,0,4,1,1,0,-,0,0.4564711999996689,['n'],1.687063599999874,2.0,548.3153056000001,,,,,556,18,Woman,Right,
,,,,,,,,,,,,,,,,,556,18,Woman,Right,0,38,0.4,1,180,-,180,0.3392847999998594,['y'],1.3829627999998593,1.0,554.8985739,,,,,556,18,Woman,Right,
,,,,,,,,,,,,,,,,,556,18,Woman,Right,0,41,0.4,2,0,180,0,0.016897900000003574,['y'],3.710591200000181,1.786,561.7484583,,,,,556,18,Woman,Right,
,,,,,,,,,,,,,,,,,556,18,Woman,Right,0,16,0.4,1,0,-,180,1.3271386999999777,['n'],3.4628931000002012,1.786,569.2985937999997,,,,,556,18,Woman,Right,
,,,,,,,,,,,,,,,,,556,18,Woman,Right,0,21,0.4,2,0,180,180,0.8907162000000426,['y'],3.534764399999858,2.0,577.7484552000001,,,,,556,18,Woman,Right,
,,,,,,,,,,,,,,,,,556,18,Woman,Right,0,17,0.4,2,0,180,180,0.4205181999996057,['y'],0.7512901999998576,1.842,581.7484565,,,,,556,18,Woman,Right,
,,,,,,,,,,,,,,,,,556,18,Woman,Right,0,14,0.4,1,180,-,0,1.1852945000000545,['y'],1.254897599999822,1.922,586.7318347999999,,,,,556,18,Woman,Right,
,,,,,,,,,,,,,,,,,556,18,Woman,Right,0,32,0.4,1,0,-,180,0.6405291999999463,['y'],0.8550208999999995,1.814,590.9986045,,,,,556,18,Woman,Right,
,,,,,,,,,,,,,,,,,556,18,Woman,Right,0,33,0.4,2,0,180,180,0.46122490000016114,['y'],0.814793500000178,1.84,594.9818104000001,,,,,556,18,Woman,Right,
,,,,,,,,,,,,,,,,,556,18,Woman,Right,0,15,0.4,2,180,0,0,0.5493205999996462,['y'],0.6228135000001203,1.734,598.6484642,,,,,556,18,Woman,Right,
,,,,,,,,,,,,,,,,,556,18,Woman,Right,0,71,0.15,2,180,0,0,0.7913846999999805,['y'],0.8629963999997017,1.3900000000000001,602.7816322999997,,,,,556,18,Woman,Right,
,,,,,,,,,,,,,,,,,556,18,Woman,Right,0,1,1,2,0,180,180,0.5052559000000656,['y'],0.7429382999998779,1.99,606.7983623999999,,,,,556,18,Woman,Right,
,,,,,,,,,,,,,,,,,556,18,Woman,Right,0,36,0.4,1,0,-,0,1.0939275000000634,['y'],1.2548156000002564,1.62,612.1817312999997,,,,,556,18,Woman,Right,
,,,,,,,,,,,,,,,,,556,18,Woman,Right,0,27,0.4,2,180,0,0,0.4278414000000339,['y'],1.2148606000000655,1.826,617.2817557999997,,,,,556,18,Woman,Right,
,,,,,,,,,,,,,,,,,556,18,Woman,Right,0,55,0.15,2,180,0,0,0.500116899999739,['y'],0.9899961999999505,1.69,621.7983328,,,,,556,18,Woman,Right,
,,,,,,,,,,,,,,,,,556,18,Woman,Right,0,11,0.4,2,180,0,180,0.9650775000000067,['y'],1.134938300000158,1.418,626.8149927,,,,,556,18,Woman,Right,
,,,,,,,,,,,,,,,,,556,18,Woman,Right,0,28,0.4,1,0,-,180,0.33702709999988656,['y'],0.6869077000001198,1.684,630.2150297999997,,,,,556,18,Woman,Right,
,,,,,,,,,,,,,,,,,556,18,Woman,Right,0,64,0.15,1,0,-,180,0.5652218999998695,['y'],1.094944299999952,1.71,634.6316170999999,,,,,556,18,Woman,Right,
,,,,,,,,,,,,,,,,,556,18,Woman,Right,0,25,0.4,2,0,180,180,0.31681420000040816,['y'],0.9380215999999564,1.6480000000000001,638.4815327000001,,,,,556,18,Woman,Right,
,,,,,,,,,,,,,,,,,556,18,Woman,Right,0,43,0.4,2,180,0,0,0.8915771000001769,['y'],0.8388185000003432,1.946,643.4649755999999,,,,,556,18,Woman,Right,
,,,,,,,,,,,,,,,,,556,18,Woman,Right,0,47,0.15,2,180,0,0,0.8478178999998818,['y'],0.8153348000000733,1.946,647.7318465999997,,,,,556,18,Woman,Right,
,,,,,,,,,,,,,,,,,556,18,Woman,Right,0,56,0.15,1,0,-,180,1.2650456000001213,['y'],0.8309638000000632,1.624,652.8483032999998,,,,,556,18,Woman,Right,
,,,,,,,,,,,,,,,,,556,18,Woman,Right,0,23,0.4,2,180,0,0,0.6131654000000708,['y'],0.7029268999999658,1.758,656.6816082999999,,,,,556,18,Woman,Right,
,,,,,,,,,,,,,,,,,556,18,Woman,Right,0,79,0.15,2,180,0,180,0.39645699999982753,['y'],0.7109538999998222,1.738,660.3815614999999,,,,,556,18,Woman,Right,
,,,,,,,,,,,,,,,,,556,18,Woman,Right,0,20,0.4,1,0,-,180,0.5310379999996258,['y'],0.6949422000002414,1.738,663.9317372,,,,,556,18,Woman,Right,
,,,,,,,,,,,,,,,,,556,18,Woman,Right,0,57,0.15,2,0,180,180,0.36170799999990777,['y'],0.6870220999999219,1.854,667.6816033,,,,,556,18,Woman,Right,
,,,,,,,,,,,,,,,,,556,18,Woman,Right,0,29,0.4,2,0,180,0,0.46970610000016677,['y'],0.5514450000000579,1.738,671.2648571,,,,,556,18,Woman,Right,
,,,,,,,,,,,,,,,,,556,18,Woman,Right,0,70,0.15,1,180,-,0,0.6373105999996369,['y'],0.5271068000001833,1.572,675.3814997,,,,,556,18,Woman,Right,
,,,,,,,,,,,,,,,,,556,18,Woman,Right,0,44,0.15,1,0,-,180,0.687727200000154,['y'],0.9028654000003371,1.24,679.8648214,,,,,556,18,Woman,Right,
,,,,,,,,,,,,,,,,,556,18,Woman,Right,0,63,0.15,2,180,0,0,0.8818241999997554,['y'],0.6468652999997175,1.2,684.1814617999999,,,,,556,18,Woman,Right,
,,,,,,,,,,,,,,,,,556,18,Woman,Right,0,37,0.4,2,0,180,0,0.7758198999999877,['y'],0.6149165000001631,1.584,688.3814259000001,,,,,556,18,Woman,Right,
,,,,,,,,,,,,,,,,,556,18,Woman,Right,0,26,0.4,1,180,-,0,0.6271598000002996,['y'],1.2308600999999726,1.418,692.914949,,,,,556,18,Woman,Right,
,,,,,,,,,,,,,,,,,556,18,Woman,Right,0,3,1,2,180,0,0,0.6186751000000186,['y'],3.4627340000001823,1.892,699.8814677,,,,,556,18,Woman,Right,
,,,,,,,,,,,,,,,,,556,18,Woman,Right,0,18,0.4,1,180,-,0,0.5716806000000361,['y'],0.9753185999998095,1.422,703.9982261,,,,,556,18,Woman,Right,
,,,,,,,,,,,,,,,,,556,18,Woman,Right,0,66,0.15,1,180,-,0,0.5517336999996587,['y'],0.7189315000000533,1.596,707.9814944999998,,,,,556,18,Woman,Right,
,,,,,,,,,,,,,,,,,556,18,Woman,Right,0,77,0.15,2,0,180,0,0.6090671000001748,['y'],0.6309106999997312,1.366,712.1813932999999,,,,,556,18,Woman,Right,
,,,,,,,,,,,,,,,,,556,18,Woman,Right,0,0,1,1,0,-,180,0.9828702999998313,['y'],0.7427929000000404,1.974,716.9148145999998,,,,,556,18,Woman,Right,
,,,,,,,,,,,,,,,,,556,18,Woman,Right,0,30,0.4,1,180,-,180,1.7563083000000006,['y'],0.9429964999999356,1.038,723.0147987999999,,,,,556,18,Woman,Right,
,,,,,,,,,,,,,,,,,556,18,Woman,Right,0,69,0.15,2,0,180,0,0.4137510000000475,['y'],0.726846999999907,1.552,726.9813162,,,,,556,18,Woman,Right,
,,,,,,,,,,,,,,,,,556,18,Woman,Right,0,62,0.15,1,180,-,0,0.4843258999999307,['y'],0.5508895000002667,1.5899999999999999,730.7313954000001,,,,,556,18,Woman,Right,
,,,,,,,,,,,,,,,,,556,18,Woman,Right,0,10,0.4,1,180,-,180,0.41302930000028937,['y'],0.7829294999996819,1.4060000000000001,734.7312944,,,,,556,18,Woman,Right,
,,,,,,,,,,,,,,,,,556,18,Woman,Right,0,22,0.4,1,180,-,0,0.5623293000003287,['y'],0.983404900000096,1.734,739.7979682,,,,,556,18,Woman,Right,
,,,,,,,,,,,,,,,,,556,18,Woman,Right,0,5,1,2,0,180,180,0.6410550000000512,['y'],1.2792945999999574,1.996,745.7812243999997,,,,,556,18,Woman,Right,
,,,,,,,,,,,,,,,,,556,18,Woman,Right,0,2,1,1,180,-,180,1.3636408999996092,['n'],1.543040099999871,1.996,751.7645895,,,,,556,18,Woman,Right,
,,,,,,,,,,,,,,,,,556,18,Woman,Right,0,59,0.15,2,180,0,0,0.7769659999999021,['n'],1.1590321999997286,1.996,756.8478774,,,,,556,18,Woman,Right,
,,,,,,,,,,,,,,,,,556,18,Woman,Right,0,49,0.15,2,0,180,0,0.6062415000001238,['n'],1.0390166000001955,1.996,760.9147548999999,,,,,556,18,Woman,Right,
,,,,,,,,,,,,,,,,,556,18,Woman,Right,0,51,0.15,2,180,0,180,0.6192728999999417,['n'],0.6307025000000976,2.0,765.9644751000001,,,,,556,18,Woman,Right,
,,,,,,,,,,,,,,,,,556,18,Woman,Right,0,74,0.15,1,180,-,180,1.1539112000000387,['y'],1.1507021000002169,1.996,771.1311940999999,,,,,556,18,Woman,Right,
,,,,,,,,,,,,,,,,,556,18,Woman,Right,0,58,0.15,1,180,-,180,0.5668900999999096,['n'],0.8070938000000751,1.996,776.0144513,,,,,556,18,Woman,Right,
,,,,,,,,,,,,,,,,,556,18,Woman,Right,0,39,0.4,2,180,0,180,0.6815560000000005,['n'],0.7429531000002498,1.996,779.8144994999998,,,,,556,18,Woman,Right,
,,,,,,,,,,,,,,,,,556,18,Woman,Right,0,19,0.4,2,180,0,0,1.2069136000000071,['y'],2.158991899999819,1.3860000000000001,787.1643656000001,,,,,556,18,Woman,Right,
,,,,,,,,,,,,,,,,,556,18,Woman,Right,0,7,1,2,180,0,0,1.6921734000002289,['y'],1.287108200000148,1.746,793.7810899000001,,,,,556,18,Woman,Right,
,,,,,,,,,,,,,,,,,556,18,Woman,Right,0,40,0.4,1,0,-,0,0.5882621000000654,['y'],0.7189671999999518,1.746,798.2976926000001,,,,,556,18,Woman,Right,
,,,,,,,,,,,,,,,,,556,18,Woman,Right,0,76,0.15,1,0,-,180,0.48348889999988387,['y'],1.5910437999996248,1.45,803.4144516000001,,,,,556,18,Woman,Right,
,,,,,,,,,,,,,,,,,556,18,Woman,Right,0,24,0.4,1,0,-,0,0.7803224999997838,['y'],1.4467446999997264,1.568,808.5310261999998,,,,,556,18,Woman,Right,
,,,,,,,,,,,,,,,,,556,18,Woman,Right,0,35,0.4,2,180,0,0,0.5782092999997985,['y'],0.9509302000001298,1.81,812.7642563999998,,,,,556,18,Woman,Right,
,,,,,,,,,,,,,,,,,556,18,Woman,Right,1,36,0.4,1,0,-,0,1.044104900000093,['y'],1.255045599999903,1.81,838.1475554999997,55.0,15.0,85.0,,556,18,Woman,Right,
,,,,,,,,,,,,,,,,,556,18,Woman,Right,1,9,0.4,2,0,180,180,0.585525299999972,['y'],1.1509507000000667,1.4100000000000001,843.0976326999998,,,,,556,18,Woman,Right,
,,,,,,,,,,,,,,,,,556,18,Woman,Right,1,3,1,2,180,0,0,0.5202002000000903,['y'],0.9189087999998264,1.986,848.3977571,,,,,556,18,Woman,Right,
,,,,,,,,,,,,,,,,,556,18,Woman,Right,1,50,0.15,1,180,-,0,0.6322483000003558,['y'],0.7668511000001672,1.554,852.1309029999998,,,,,556,18,Woman,Right,
,,,,,,,,,,,,,,,,,556,18,Woman,Right,1,30,0.4,1,180,-,0,0.4250795000002654,['y'],0.7267757999998139,1.642,855.9141516999998,,,,,556,18,Woman,Right,
,,,,,,,,,,,,,,,,,556,18,Woman,Right,1,52,0.15,1,0,-,0,3.716813199999706,['y'],1.9989991999996164,1.642,864.1308789,,,,,556,18,Woman,Right,
,,,,,,,,,,,,,,,,,556,18,Woman,Right,1,6,1,1,180,-,0,0.477489500000047,['n'],1.5752663999996912,1.758,869.1473909000001,,,,,556,18,Woman,Right,
,,,,,,,,,,,,,,,,,556,18,Woman,Right,1,13,0.4,2,0,180,180,0.651459000000159,['y'],0.9188896000000568,1.684,873.4307675999999,,,,,556,18,Woman,Right,
,,,,,,,,,,,,,,,,,556,18,Woman,Right,1,22,0.4,1,180,-,0,0.6497653999999784,['n'],1.3805481999997937,1.792,879.0809715999999,,,,,556,18,Woman,Right,
,,,,,,,,,,,,,,,,,556,18,Woman,Right,1,62,0.15,1,180,-,180,0.8527346000000762,['n'],0.9510583000001134,1.792,883.2974393999998,,,,,556,18,Woman,Right,
,,,,,,,,,,,,,,,,,556,18,Woman,Right,1,61,0.15,2,0,180,0,0.6929526999997506,['n'],0.574902800000018,1.792,887.5807583000001,,,,,556,18,Woman,Right,
,,,,,,,,,,,,,,,,,556,18,Woman,Right,1,66,0.15,1,180,-,180,0.60278739999967,['n'],0.6629159999997682,1.792,887.5807583000001,,,,,556,18,Woman,Right,
,,,,,,,,,,,,,,,,,556,18,Woman,Right,1,69,0.15,2,0,180,0,0.4528069000002688,['n'],0.5750231000001804,1.792,895.5975678999998,,,,,556,18,Woman,Right,
,,,,,,,,,,,,,,,,,556,18,Woman,Right,1,35,0.4,2,180,0,180,0.6227650999999241,['n'],0.47892589999992197,1.792,899.7973833000001,,,,,556,18,Woman,Right,
,,,,,,,,,,,,,,,,,556,18,Woman,Right,1,7,1,2,180,0,0,0.6307799000001069,['y'],1.718744499999957,2.0,905.1807175999998,,,,,556,18,Woman,Right,
,,,,,,,,,,,,,,,,,556,18,Woman,Right,1,46,0.15,1,180,-,180,1.4168985000001157,['y'],0.6548597999999402,1.81,909.9973976000001,,,,,556,18,Woman,Right,
,,,,,,,,,,,,,,,,,556,18,Woman,Right,1,57,0.15,2,0,180,0,0.548130300000139,['y'],0.4229064000001017,1.778,913.6307812999999,,,,,556,18,Woman,Right,
,,,,,,,,,,,,,,,,,556,18,Woman,Right,1,0,1,1,0,-,0,0.5113728000001174,['n'],1.6308862999999292,1.95,919.4806653999999,,,,,556,18,Woman,Right,
,,,,,,,,,,,,,,,,,556,18,Woman,Right,1,28,0.4,1,0,-,0,0.8916057999999794,['n'],0.5188131999998404,1.932,923.3973209999999,,,,,556,18,Woman,Right,
,,,,,,,,,,,,,,,,,556,18,Woman,Right,1,76,0.15,1,0,-,0,1.831258600000183,['y'],0.47096129999999903,1.85,928.4806092999997,,,,,556,18,Woman,Right,
,,,,,,,,,,,,,,,,,556,18,Woman,Right,1,34,0.4,1,180,-,180,0.7466997999999876,['y'],0.6631729000000632,1.362,933.4639797,,,,,556,18,Woman,Right,
,,,,,,,,,,,,,,,,,556,18,Woman,Right,1,11,0.4,2,180,0,0,0.6667170000000624,['n'],0.8869337000000996,1.986,938.163884,,,,,556,18,Woman,Right,
,,,,,,,,,,,,,,,,,556,18,Woman,Right,1,49,0.15,2,0,180,180,1.144720100000086,['y'],1.2229287000000113,1.8559999999999999,943.6805694999998,,,,,556,18,Woman,Right,
,,,,,,,,,,,,,,,,,556,18,Woman,Right,1,63,0.15,2,180,0,0,0.7253493999996863,['y'],0.7670737999997073,1.8559999999999999,947.5140348999998,,,,,556,18,Woman,Right,
,,,,,,,,,,,,,,,,,556,18,Woman,Right,1,77,0.15,2,0,180,180,2.1546865000000253,['y'],0.815058599999702,1.8559999999999999,953.4138361999999,,,,,556,18,Woman,Right,
,,,,,,,,,,,,,,,,,556,18,Woman,Right,1,5,1,2,0,180,180,0.7485442000001967,['y'],0.9509696000000076,1.706,957.8972171,,,,,556,18,Woman,Right,
,,,,,,,,,,,,,,,,,556,18,Woman,Right,1,45,0.15,2,0,180,0,0.8040179999998145,['y'],1.0624190999997154,1.97,962.1472178999998,,,,,556,18,Woman,Right,
,,,,,,,,,,,,,,,,,556,18,Woman,Right,1,70,0.15,1,180,-,180,1.7600388000000748,['y'],0.8790386000000581,1.6139999999999999,968.0638759999997,,,,,556,18,Woman,Right,
,,,,,,,,,,,,,,,,,556,18,Woman,Right,1,44,0.15,1,0,-,0,0.6607762000003277,['y'],0.6308414999998604,1.736,972.2138288000001,,,,,556,18,Woman,Right,
,,,,,,,,,,,,,,,,,556,18,Woman,Right,1,59,0.15,2,180,0,0,0.3539608999999473,['y'],0.6710916999995789,1.812,976.0304734000001,,,,,556,18,Woman,Right,
,,,,,,,,,,,,,,,,,556,18,Woman,Right,1,67,0.15,2,180,0,180,0.24107690000028015,['y'],1.1830332999998063,1.812,979.7806792000001,,,,,556,18,Woman,Right,
,,,,,,,,,,,,,,,,,556,18,Woman,Right,1,78,0.15,1,180,-,0,0.5344506999999794,['y'],0.6789942000000337,1.6280000000000001,984.6637443999998,,,,,556,18,Woman,Right,
,,,,,,,,,,,,,,,,,556,18,Woman,Right,1,4,1,1,0,-,180,2.1660187000002225,['y'],1.8549149000000398,1.6280000000000001,991.9637067999997,,,,,556,18,Woman,Right,
,,,,,,,,,,,,,,,,,556,18,Woman,Right,1,58,0.15,1,180,-,0,0.52123150000034,['y'],0.7189536999999291,1.806,996.5139599999998,,,,,556,18,Woman,Right,
,,,,,,,,,,,,,,,,,556,18,Woman,Right,1,74,0.15,1,180,-,0,0.8594090000001415,['y'],1.0309296000000359,1.56,1001.7303567999998,,,,,556,18,Woman,Right,
,,,,,,,,,,,,,,,,,556,18,Woman,Right,1,27,0.4,2,180,0,0,0.5161278999999013,['y'],0.5988492999999835,1.752,1005.1139039,,,,,556,18,Woman,Right,
,,,,,,,,,,,,,,,,,556,18,Woman,Right,1,40,0.4,1,0,-,180,1.1766966999998658,['y'],0.8550202999999783,1.418,1010.0302778999999,,,,,556,18,Woman,Right,
,,,,,,,,,,,,,,,,,556,18,Woman,Right,1,31,0.4,2,180,0,0,0.7539154000000963,['y'],0.7269085999996605,1.818,1013.8969247,,,,,556,18,Woman,Right,
,,,,,,,,,,,,,,,,,556,18,Woman,Right,1,54,0.15,1,180,-,0,1.4061455999999453,['y'],0.6788375999999516,1.792,1018.5136484,,,,,556,18,Woman,Right,
,,,,,,,,,,,,,,,,,556,18,Woman,Right,1,19,0.4,2,180,0,0,0.9172988999998779,['y'],0.7429673000001458,1.71,1022.697005,,,,,556,18,Woman,Right,
,,,,,,,,,,,,,,,,,556,18,Woman,Right,1,33,0.4,2,0,180,180,0.6401163000000452,['y'],0.5507783000002746,1.6280000000000001,1026.9136018,,,,,556,18,Woman,Right,
,,,,,,,,,,,,,,,,,556,18,Woman,Right,1,42,0.4,1,180,-,0,0.497453299999961,['y'],0.654801199999838,1.8940000000000001,1030.6638825999999,,,,,556,18,Woman,Right,
,,,,,,,,,,,,,,,,,556,18,Woman,Right,1,17,0.4,2,0,180,180,1.675239799999872,['y'],0.5350733999998738,1.706,1036.0635693999998,,,,,556,18,Woman,Right,
,,,,,,,,,,,,,,,,,556,18,Woman,Right,1,38,0.4,1,180,-,0,0.5156498000001193,['y'],0.45484110000006694,1.63,1039.9969305999998,,,,,556,18,Woman,Right,
,,,,,,,,,,,,,,,,,556,18,Woman,Right,1,79,0.15,2,180,0,0,0.807670700000017,['y'],0.6865307000002758,1.63,1039.9969305999998,,,,,556,18,Woman,Right,
,,,,,,,,,,,,,,,,,556,18,Woman,Right,1,48,0.15,1,0,-,0,0.6219180999996752,['y'],0.5743400999999722,1.5899999999999999,1048.7635105,,,,,556,18,Woman,Right,
,,,,,,,,,,,,,,,,,556,18,Woman,Right,1,64,0.15,1,0,-,0,0.5493717999997898,['y'],0.5027534000000742,1.604,1052.6968635999997,,,,,556,18,Woman,Right,
,,,,,,,,,,,,,,,,,556,18,Woman,Right,1,16,0.4,1,0,-,0,0.46746540000003733,['y'],0.7427566000001207,1.328,1059.5134835999997,,,,,556,18,Woman,Right,
,,,,,,,,,,,,,,,,,556,18,Woman,Right,1,18,0.4,1,180,-,180,1.3622419000002992,['y'],1.3027336000000105,1.262,1065.6301021999998,,,,,556,18,Woman,Right,
,,,,,,,,,,,,,,,,,556,18,Woman,Right,1,68,0.15,1,0,-,0,0.46552410000003874,['y'],0.6307648000001791,1.658,1071.5634848,,,,,556,18,Woman,Right,
,,,,,,,,,,,,,,,,,556,18,Woman,Right,1,20,0.4,1,0,-,0,0.5859879999998157,['y'],0.27882439999984854,1.408,1076.3467808,,,,,556,18,Woman,Right,
,,,,,,,,,,,,,,,,,556,18,Woman,Right,1,72,0.15,1,0,-,0,0.3442337999999836,['y'],0.5027205999999751,1.404,1081.1134014,,,,,556,18,Woman,Right,
,,,,,,,,,,,,,,,,,556,18,Woman,Right,1,32,0.4,1,0,-,0,0.5300100999997994,['y'],2.4308077000000594,1.404,1081.1134014,,,,,556,18,Woman,Right,
,,,,,,,,,,,,,,,,,556,18,Woman,Right,1,41,0.4,2,0,180,0,0.5700329000001148,['y'],0.902766100000008,1.56,1092.0800378999998,,,,,556,18,Woman,Right,
,,,,,,,,,,,,,,,,,556,18,Woman,Right,1,39,0.4,2,180,0,0,0.8542161000000306,['y'],0.7188108000000284,1.542,1097.1299306,,,,,556,18,Woman,Right,
,,,,,,,,,,,,,,,,,556,18,Woman,Right,1,15,0.4,2,180,0,0,0.700206199999684,['y'],0.6239434000003712,1.554,1101.4300217999998,,,,,556,18,Woman,Right,
,,,,,,,,,,,,,,,,,556,18,Woman,Right,1,12,0.4,1,0,-,0,0.44608019999986936,['y'],0.9348070999999436,1.548,1106.1133578,,,,,556,18,Woman,Right,
,,,,,,,,,,,,,,,,,556,18,Woman,Right,1,29,0.4,2,0,180,180,0.6835963000003176,['y'],0.9333321999997679,2.0,1110.4800391999997,,,,,556,18,Woman,Right,
,,,,,,,,,,,,,,,,,556,18,Woman,Right,1,8,0.4,1,0,-,180,0.8212456999999631,['y'],0.6628543000001628,1.568,1114.7632804,,,,,556,18,Woman,Right,
,,,,,,,,,,,,,,,,,556,18,Woman,Right,1,10,0.4,1,180,-,0,0.738560199999938,['y'],1.3588594000002558,1.568,1114.7632804,,,,,556,18,Woman,Right,
,,,,,,,,,,,,,,,,,556,18,Woman,Right,1,37,0.4,2,0,180,180,1.030308899999909,['y'],0.7750270000001365,1.5899999999999999,1124.1132754,,,,,556,18,Woman,Right,
,,,,,,,,,,,,,,,,,556,18,Woman,Right,1,25,0.4,2,0,180,180,0.621893,['y'],1.2149310999998306,1.772,1128.3466389999999,,,,,556,18,Woman,Right,
,,,,,,,,,,,,,,,,,556,18,Woman,Right,1,14,0.4,1,180,-,0,0.5288170999997419,['y'],1.518696699999964,1.666,1133.2632270999998,,,,,556,18,Woman,Right,
,,,,,,,,,,,,,,,,,556,18,Woman,Right,1,47,0.15,2,180,0,180,1.2866149999999834,['y'],0.510791700000027,1.366,1137.5799122999997,,,,,556,18,Woman,Right,
,,,,,,,,,,,,,,,,,556,18,Woman,Right,1,43,0.4,2,180,0,180,0.5779023000000052,['y'],0.3908251999996537,1.4100000000000001,1141.1465737999997,,,,,556,18,Woman,Right,
,,,,,,,,,,,,,,,,,556,18,Woman,Right,1,65,0.15,2,0,180,0,0.5803499999997257,['n'],0.32716849999997066,1.312,1144.9134273,,,,,556,18,Woman,Right,
,,,,,,,,,,,,,,,,,556,18,Woman,Right,1,23,0.4,2,180,0,0,0.6072785999999724,['y'],0.9027735999998185,1.312,1144.9134273,,,,,556,18,Woman,Right,
,,,,,,,,,,,,,,,,,556,18,Woman,Right,1,60,0.15,1,0,-,180,0.675785999999789,['y'],1.0951193000000785,1.3719999999999999,1155.2132167,,,,,556,18,Woman,Right,
,,,,,,,,,,,,,,,,,556,18,Woman,Right,1,75,0.15,2,180,0,0,0.404482100000223,['n'],1.3029873000000407,1.014,1160.7966306999997,,,,,556,18,Woman,Right,
,,,,,,,,,,,,,,,,,556,18,Woman,Right,1,1,1,2,0,180,180,0.6279394000002867,['y'],1.1588442000002033,1.974,1165.4131524,,,,,556,18,Woman,Right,
,,,,,,,,,,,,,,,,,556,18,Woman,Right,1,51,0.15,2,180,0,0,1.536472799999956,['y'],1.1429792999997517,1.302,1171.0131719,,,,,556,18,Woman,Right,
,,,,,,,,,,,,,,,,,556,18,Woman,Right,1,26,0.4,1,180,-,180,0.33659510000006776,['y'],1.470681599999807,1.768,1175.9797807999998,,,,,556,18,Woman,Right,
,,,,,,,,,,,,,,,,,556,18,Woman,Right,1,24,0.4,1,0,-,180,0.6674450000000434,['y'],1.4720963999998276,1.672,1181.2131184999998,,,,,556,18,Woman,Right,
,,,,,,,,,,,,,,,,,556,18,Woman,Right,1,56,0.15,1,0,-,0,0.623949100000118,['y'],0.5108242000001155,1.3479999999999999,1185.7130242999997,,,,,556,18,Woman,Right,
,,,,,,,,,,,,,,,,,556,18,Woman,Right,1,73,0.15,2,0,180,0,0.6372254999996585,['y'],0.3988666000000194,1.8479999999999999,1189.3797488999999,,,,,556,18,Woman,Right,
,,,,,,,,,,,,,,,,,556,18,Woman,Right,1,2,1,1,180,-,180,0.37901400000009744,['n'],0.7183127999996941,2.0,1193.5131308999999,,,,,556,18,Woman,Right,
,,,,,,,,,,,,,,,,,556,18,Woman,Right,1,53,0.15,2,0,180,180,0.9601032000000487,['y'],1.0949172999999064,1.308,1198.4464296,,,,,556,18,Woman,Right,
,,,,,,,,,,,,,,,,,556,18,Woman,Right,1,71,0.15,2,180,0,180,0.6886948999999731,['y'],1.446162799999911,1.722,1204.3630002,,,,,556,18,Woman,Right,
,,,,,,,,,,,,,,,,,556,18,Woman,Right,1,21,0.4,2,0,180,180,0.585855199999969,['y'],0.9188423000000512,1.738,1208.9296718,,,,,556,18,Woman,Right,
,,,,,,,,,,,,,,,,,556,18,Woman,Right,1,55,0.15,2,180,0,180,0.8250100999998722,['y'],0.5108258999998725,1.346,1213.2463580999997,,,,,556,18,Woman,Right,
,,,,,,,,,,,,,,,,,556,18,Woman,Right,2,32,0.4,1,0,-,180,0.6568839999999909,['y'],0.8868483999999626,1.2,1220.6462471999998,62.5,17.5,85.0,,556,18,Woman,Right,
,,,,,,,,,,,,,,,,,556,18,Woman,Right,2,69,0.15,2,0,180,0,0.4597549000000072,['y'],0.9190367000001061,1.346,1225.0629525999998,,,,,556,18,Woman,Right,
,,,,,,,,,,,,,,,,,556,18,Woman,Right,2,53,0.15,2,0,180,180,0.5078653000000486,['n'],0.7908434999999372,1.658,1229.8629185999998,,,,,556,18,Woman,Right,
,,,,,,,,,,,,,,,,,556,18,Woman,Right,2,23,0.4,2,180,0,0,0.7332041999998182,['y'],0.6948450999998386,1.376,1234.1795582,,,,,556,18,Woman,Right,
,,,,,,,,,,,,,,,,,556,18,Woman,Right,2,15,0.4,2,180,0,0,0.6158565999999155,['y'],0.758893100000023,1.568,1238.3128874,,,,,556,18,Woman,Right,
,,,,,,,,,,,,,,,,,556,18,Woman,Right,2,34,0.4,1,180,-,180,0.6983111000004101,['y'],1.1749211000001196,1.592,1243.0961942999998,,,,,556,18,Woman,Right,
,,,,,,,,,,,,,,,,,556,18,Woman,Right,2,10,0.4,1,180,-,0,0.7255351999997401,['y'],0.52676399999973,1.654,1246.6795376999999,,,,,556,18,Woman,Right,
,,,,,,,,,,,,,,,,,556,18,Woman,Right,2,40,0.4,1,0,-,0,0.6678720999998404,['y'],0.7748578999999154,1.634,1250.7628562999998,,,,,556,18,Woman,Right,
,,,,,,,,,,,,,,,,,556,18,Woman,Right,2,38,0.4,1,180,-,180,0.6346217999998771,['n'],0.9427108999998381,1.58,1254.9462377999998,,,,,556,18,Woman,Right,
,,,,,,,,,,,,,,,,,556,18,Woman,Right,2,56,0.15,1,0,-,0,0.5928364999999758,['n'],0.48689680000006774,1.5939999999999999,1258.6461519,,,,,556,18,Woman,Right,
,,,,,,,,,,,,,,,,,556,18,Woman,Right,2,36,0.4,1,0,-,180,0.6197685000001911,['y'],0.846921399999701,1.3860000000000001,1263.2960921,,,,,556,18,Woman,Right,
,,,,,,,,,,,,,,,,,556,18,Woman,Right,2,74,0.15,1,180,-,0,0.6790968000000248,['y'],1.214904700000261,1.392,1268.1462357,,,,,556,18,Woman,Right,
,,,,,,,,,,,,,,,,,556,18,Woman,Right,2,35,0.4,2,180,0,0,0.8170688000000155,['y'],0.7350083999999697,1.6139999999999999,1272.1795621,,,,,556,18,Woman,Right,
,,,,,,,,,,,,,,,,,556,18,Woman,Right,2,57,0.15,2,0,180,0,0.9678374000000076,['y'],0.3908808000001045,1.5739999999999998,1276.1960750999997,,,,,556,18,Woman,Right,
,,,,,,,,,,,,,,,,,556,18,Woman,Right,2,44,0.15,1,0,-,180,2.1557259000001068,['y'],3.286873800000194,1.768,1284.5129069999998,,,,,556,18,Woman,Right,
,,,,,,,,,,,,,,,,,556,18,Woman,Right,2,12,0.4,1,0,-,180,0.6824625000003834,['y'],0.45520699999997305,1.3780000000000001,1288.2960871,,,,,556,18,Woman,Right,
,,,,,,,,,,,,,,,,,556,18,Woman,Right,2,14,0.4,1,180,-,180,0.6450918999998976,['y'],0.8947674999999435,1.85,1293.3293374,,,,,556,18,Woman,Right,
,,,,,,,,,,,,,,,,,556,18,Woman,Right,2,77,0.15,2,0,180,0,0.3630818999999974,['y'],0.33475829999997586,1.6019999999999999,1296.7459823999998,,,,,556,18,Woman,Right,
,,,,,,,,,,,,,,,,,556,18,Woman,Right,2,25,0.4,2,0,180,180,0.6189848999997594,['y'],0.6790673000000425,1.802,1301.3293097,,,,,556,18,Woman,Right,
,,,,,,,,,,,,,,,,,556,18,Woman,Right,2,18,0.4,1,180,-,180,0.5363071000001582,['y'],0.5030501000001095,1.75,1304.9793633999998,,,,,556,18,Woman,Right,
,,,,,,,,,,,,,,,,,556,18,Woman,Right,2,65,0.15,2,0,180,180,1.3430026000000908,['y'],0.3268163999996432,1.8479999999999999,1309.2793339,,,,,556,18,Woman,Right,
,,,,,,,,,,,,,,,,,556,18,Woman,Right,2,59,0.15,2,180,0,180,1.533540500000072,['y'],0.9988941000001432,1.6059999999999999,1314.3460507,,,,,556,18,Woman,Right,
,,,,,,,,,,,,,,,,,556,18,Woman,Right,2,67,0.15,2,180,0,0,0.2639321999999993,['y'],0.3826958999998169,1.6179999999999999,1318.8962375,,,,,556,18,Woman,Right,
,,,,,,,,,,,,,,,,,556,18,Woman,Right,2,28,0.4,1,0,-,180,0.42906029999994644,['y'],0.4392275999998674,1.794,1322.3626276,,,,,556,18,Woman,Right,
,,,,,,,,,,,,,,,,,556,18,Woman,Right,2,11,0.4,2,180,0,0,0.7759163999999146,['y'],1.3826818000002277,1.948,1327.4958708999998,,,,,556,18,Woman,Right,
,,,,,,,,,,,,,,,,,556,18,Woman,Right,2,54,0.15,1,180,-,0,1.669326700000056,['y'],0.07049200000028577,1.71,1332.1458217999998,,,,,556,18,Woman,Right,
,,,,,,,,,,,,,,,,,556,18,Woman,Right,2,63,0.15,2,180,0,180,1.2870248999997784,['y'],0.7672956999999769,1.77,1338.2625540999998,,,,,556,18,Woman,Right,
,,,,,,,,,,,,,,,,,556,18,Woman,Right,2,3,1,2,180,0,0,1.1357213999999658,['y'],0.7988768000000164,1.95,1343.1125868999998,,,,,556,18,Woman,Right,
,,,,,,,,,,,,,,,,,556,18,Woman,Right,2,29,0.4,2,0,180,180,0.6279654999998456,['y'],0.49534459999995306,2.0,1346.6291690999997,,,,,556,18,Woman,Right,
,,,,,,,,,,,,,,,,,556,18,Woman,Right,2,0,1,1,0,-,0,0.30303649999996196,['n'],0.6869222000000264,2.0,1350.4958493999998,,,,,556,18,Woman,Right,
,,,,,,,,,,,,,,,,,556,18,Woman,Right,2,62,0.15,1,180,-,180,0.5409679999997934,['y'],0.4227806999997483,1.6640000000000001,1354.5624856,,,,,556,18,Woman,Right,
,,,,,,,,,,,,,,,,,556,18,Woman,Right,2,20,0.4,1,0,-,0,0.3636383000002752,['n'],0.9673496999998861,2.0,1358.7957874999997,,,,,556,18,Woman,Right,
,,,,,,,,,,,,,,,,,556,18,Woman,Right,2,47,0.15,2,180,0,0,0.7584980000001451,['n'],0.39069560000007186,1.816,1362.7792024999999,,,,,556,18,Woman,Right,
,,,,,,,,,,,,,,,,,556,18,Woman,Right,2,31,0.4,2,180,0,180,0.4269964999998592,['y'],0.3508978999998362,1.6480000000000001,1366.6124968999998,,,,,556,18,Woman,Right,
,,,,,,,,,,,,,,,,,556,18,Woman,Right,2,6,1,1,180,-,180,2.0882481999997253,['n'],1.9188610999999582,1.87,1373.4960301,,,,,556,18,Woman,Right,
,,,,,,,,,,,,,,,,,556,18,Woman,Right,2,2,1,1,180,-,180,1.3255530999999792,['y'],0.35888569999997344,1.8719999999999999,1377.8957357,,,,,556,18,Woman,Right,
,,,,,,,,,,,,,,,,,556,18,Woman,Right,2,76,0.15,1,0,-,0,0.33225850000007995,['y'],1.3990404000001035,1.896,1383.0457830999999,,,,,556,18,Woman,Right,
,,,,,,,,,,,,,,,,,556,18,Woman,Right,2,78,0.15,1,180,-,180,0.5188521999998557,['n'],0.631022899999607,1.896,1386.6290762999997,,,,,556,18,Woman,Right,
,,,,,,,,,,,,,,,,,556,18,Woman,Right,2,19,0.4,2,180,0,180,0.17518010000003414,['y'],0.3750301000000036,1.746,1390.3626037999998,,,,,556,18,Woman,Right,
,,,,,,,,,,,,,,,,,556,18,Woman,Right,2,7,1,2,180,0,0,0.8745087000002059,['y'],1.150667699999758,1.748,1394.6456697999997,,,,,556,18,Woman,Right,
,,,,,,,,,,,,,,,,,556,18,Woman,Right,2,8,0.4,1,0,-,0,0.1897265999996307,['n'],0.5587516999999025,1.754,1397.9456869,,,,,556,18,Woman,Right,
,,,,,,,,,,,,,,,,,556,18,Woman,Right,2,13,0.4,2,0,180,180,1.5502863000001526,['y'],0.2935019999999895,1.754,1403.0456362999998,,,,,556,18,Woman,Right,
,,,,,,,,,,,,,,,,,556,18,Woman,Right,2,71,0.15,2,180,0,180,0.5521265000002131,['y'],0.4149641999997584,1.674,1406.8289872999999,,,,,556,18,Woman,Right,
,,,,,,,,,,,,,,,,,556,18,Woman,Right,2,48,0.15,1,0,-,0,0.43348820000028354,['n'],0.8677824999999757,1.8679999999999999,1410.8956534,,,,,556,18,Woman,Right,
,,,,,,,,,,,,,,,,,556,18,Woman,Right,2,70,0.15,1,180,-,0,0.4655974000002061,['n'],1.1033956999999646,1.838,1414.7789984,,,,,556,18,Woman,Right,
,,,,,,,,,,,,,,,,,556,18,Woman,Right,2,43,0.4,2,180,0,180,0.4711771000002045,['n'],1.0787405000000945,1.836,1419.0122424,,,,,556,18,Woman,Right,
,,,,,,,,,,,,,,,,,556,18,Woman,Right,2,16,0.4,1,0,-,0,0.23272590000033233,['n'],1.1508346000000529,1.836,1423.3122497,,,,,556,18,Woman,Right,
,,,,,,,,,,,,,,,,,556,18,Woman,Right,2,21,0.4,2,0,180,0,0.15147909999996045,['n'],1.0790256000000227,1.974,1428.045618,,,,,556,18,Woman,Right,
,,,,,,,,,,,,,,,,,556,18,Woman,Right,2,9,0.4,2,0,180,180,0.016459599999961938,['n'],4.2218416999999135,1.43,1435.0955906999998,,,,,556,18,Woman,Right,
,,,,,,,,,,,,,,,,,556,18,Woman,Right,2,51,0.15,2,180,0,0,0.43402130000004036,['n'],1.8631603999997424,1.946,1440.228944,,,,,556,18,Woman,Right,
,,,,,,,,,,,,,,,,,556,18,Woman,Right,2,64,0.15,1,0,-,0,0.038109199999780685,['n'],1.158987100000104,1.928,1444.1288627,,,,,556,18,Woman,Right,
,,,,,,,,,,,,,,,,,556,18,Woman,Right,2,37,0.4,2,0,180,0,0.19322970000030182,['n'],1.3030174000000443,1.944,1448.6455674,,,,,556,18,Woman,Right,
,,,,,,,,,,,,,,,,,556,18,Woman,Right,2,46,0.15,1,180,-,0,0.016687799999999697,['n'],1.0390904999999293,2.0,1452.4455162999998,,,,,556,18,Woman,Right,
,,,,,,,,,,,,,,,,,556,18,Woman,Right,2,1,1,2,0,180,0,0.3766138000000865,['n'],1.0392674999998235,2.0,1456.4454947,,,,,556,18,Woman,Right,
,,,,,,,,,,,,,,,,,556,18,Woman,Right,2,22,0.4,1,180,-,0,0.16474440000001778,['n'],0.8070020999998633,2.0,1460.6788250999998,,,,,556,18,Woman,Right,
,,,,,,,,,,,,,,,,,556,18,Woman,Right,2,72,0.15,1,0,-,0,0.41874189999998634,['n'],1.575058800000079,2.0,1466.2454905,,,,,556,18,Woman,Right,
,,,,,,,,,,,,,,,,,556,18,Woman,Right,2,41,0.4,2,0,180,0,0.29426779999994324,['n'],3.086798099999669,2.0,1466.2454905,,,,,556,18,Woman,Right,
,,,,,,,,,,,,,,,,,556,18,Woman,Right,2,55,0.15,2,180,0,0,1.0893518000002587,['n'],2.4711374999997133,1.5,1477.4232349,,,,,556,18,Woman,Right,
,,,,,,,,,,,,,,,,,556,18,Woman,Right,2,58,0.15,1,180,-,0,0.9002353000000767,['n'],1.0101816999999755,1.948,1482.5454331,,,,,556,18,Woman,Right,
,,,,,,,,,,,,,,,,,556,18,Woman,Right,2,68,0.15,1,0,-,0,1.0086532000000261,['n'],0.7910694000001968,1.948,1486.7787350999997,,,,,556,18,Woman,Right,
,,,,,,,,,,,,,,,,,556,18,Woman,Right,2,75,0.15,2,180,0,180,1.1753945999998905,['n'],1.423283099999935,1.968,1492.4953792000001,,,,,556,18,Woman,Right,
,,,,,,,,,,,,,,,,,556,18,Woman,Right,2,39,0.4,2,180,0,0,3.751553000000058,['n'],4.99877749999996,1.646,1504.2286492999997,,,,,556,18,Woman,Right,
,,,,,,,,,,,,,,,,,556,18,Woman,Right,2,33,0.4,2,0,180,0,0.6333303999999771,['n'],1.6711020999996435,1.666,1509.0619502999998,,,,,556,18,Woman,Right,
,,,,,,,,,,,,,,,,,556,18,Woman,Right,2,79,0.15,2,180,0,0,0.6828103000002557,['n'],0.5589461999998093,1.862,1513.6120419999997,,,,,556,18,Woman,Right,
,,,,,,,,,,,,,,,,,556,18,Woman,Right,2,52,0.15,1,0,-,0,1.5967455999998492,['y'],2.326922800000375,1.4100000000000001,1520.7619697,,,,,556,18,Woman,Right,
,,,,,,,,,,,,,,,,,556,18,Woman,Right,2,30,0.4,1,180,-,0,0.779301999999916,['n'],2.1830148000003646,1.978,1526.7952686999997,,,,,556,18,Woman,Right,
,,,,,,,,,,,,,,,,,556,18,Woman,Right,2,4,1,1,0,-,0,0.3288452000001598,['n'],1.0711632999996255,1.972,1531.0119501999998,,,,,556,18,Woman,Right,
,,,,,,,,,,,,,,,,,556,18,Woman,Right,2,27,0.4,2,180,0,0,1.38014209999983,['n'],0.9431941000002553,1.972,1535.6953985,,,,,556,18,Woman,Right,
,,,,,,,,,,,,,,,,,556,18,Woman,Right,2,49,0.15,2,0,180,0,0.5379145000001699,['n'],0.8550853000001553,1.972,1539.9284134,,,,,556,18,Woman,Right,
,,,,,,,,,,,,,,,,,556,18,Woman,Right,2,66,0.15,1,180,-,0,0.6646703000001253,['n'],1.1910141000003023,1.972,1544.59523,,,,,556,18,Woman,Right,
,,,,,,,,,,,,,,,,,556,18,Woman,Right,2,73,0.15,2,0,180,0,0.4933532000000014,['n'],1.263028100000156,1.972,1549.128522,,,,,556,18,Woman,Right,
,,,,,,,,,,,,,,,,,556,18,Woman,Right,2,61,0.15,2,0,180,0,1.610595099999955,['n'],1.7833712999999989,1.982,1555.2119213,,,,,556,18,Woman,Right,
,,,,,,,,,,,,,,,,,556,18,Woman,Right,2,24,0.4,1,0,-,0,0.10462310000002617,['n'],1.5430062999998881,1.982,1559.8951540999997,,,,,556,18,Woman,Right,
,,,,,,,,,,,,,,,,,556,18,Woman,Right,2,42,0.4,1,180,-,0,0.7166732999999113,['n'],0.862970199999836,1.982,1564.2117509,,,,,556,18,Woman,Right,
,,,,,,,,,,,,,,,,,556,18,Woman,Right,2,5,1,2,0,180,0,2.754591800000071,['y'],1.022957800000313,1.764,1570.9783932,,,,,556,18,Woman,Right,
,,,,,,,,,,,,,,,,,556,18,Woman,Right,2,45,0.15,2,0,180,0,1.1233535000001211,['n'],1.1990584000000126,1.87,1575.9784463,,,,,556,18,Woman,Right,
,,,,,,,,,,,,,,,,,556,18,Woman,Right,2,17,0.4,2,0,180,180,1.4835527000000184,['y'],0.880159399999684,1.8639999999999999,1580.7783740999998,,,,,556,18,Woman,Right,
,,,,,,,,,,,,,,,,,556,18,Woman,Right,2,50,0.15,1,180,-,0,1.1010579000003418,['n'],1.2546479000002364,1.842,1586.8449741,,,,,556,18,Woman,Right,
,,,,,,,,,,,,,,,,,556,18,Woman,Right,2,26,0.4,1,180,-,0,1.319346200000382,['n'],3.1509022000000186,1.842,1594.1115749,,,,,556,18,Woman,Right,
,,,,,,,,,,,,,,,,,556,18,Woman,Right,2,60,0.15,1,0,-,180,0.5726620999998886,['n'],2.7991157999999814,1.1179999999999999,1601.0950208,,,,,556,18,Woman,Right,
,,,,,,,,,,,,,,,,,556,18,Woman,Right,3,4,1,1,0,-,0,0.5099030000001221,['n'],1.623034700000062,1.8940000000000001,1610.6450334,52.5,60.0,52.5,,556,18,Woman,Right,
,,,,,,,,,,,,,,,,,556,18,Woman,Right,3,38,0.4,1,180,-,0,0.7023227999998198,['y'],0.767012600000271,1.8940000000000001,1614.5284764999997,,,,,556,18,Woman,Right,
,,,,,,,,,,,,,,,,,556,18,Woman,Right,3,73,0.15,2,0,180,180,1.2283046999996259,['y'],0.6466356000000815,1.8479999999999999,1619.3616377999997,,,,,556,18,Woman,Right,
,,,,,,,,,,,,,,,,,556,18,Woman,Right,3,15,0.4,2,180,0,0,0.5304873000000043,['n'],0.4551611000001685,1.8479999999999999,1622.7282676999998,,,,,556,18,Woman,Right,
,,,,,,,,,,,,,,,,,556,18,Woman,Right,3,60,0.15,1,0,-,180,0.44324460000007093,['y'],0.839003799999773,1.8479999999999999,1626.8115644999998,,,,,556,18,Woman,Right,
,,,,,,,,,,,,,,,,,556,18,Woman,Right,3,71,0.15,2,180,0,180,0.36993799999982,['y'],2.151014799999757,1.196,1632.5615709999997,,,,,556,18,Woman,Right,
,,,,,,,,,,,,,,,,,556,18,Woman,Right,3,77,0.15,2,0,180,180,0.47330990000000384,['y'],0.9348691000000144,1.736,1636.4616063999997,,,,,556,18,Woman,Right,
,,,,,,,,,,,,,,,,,556,18,Woman,Right,3,16,0.4,1,0,-,0,0.6334646999998768,['n'],1.0281443999997464,1.736,1636.4616063999997,,,,,556,18,Woman,Right,
,,,,,,,,,,,,,,,,,556,18,Woman,Right,3,21,0.4,2,0,180,180,0.6232649000003221,['y'],1.1269925999999941,1.736,1644.4115134999997,,,,,556,18,Woman,Right,
,,,,,,,,,,,,,,,,,556,18,Woman,Right,3,67,0.15,2,180,0,0,0.7132252000001245,['y'],0.8553340000003118,1.736,1648.6448904,,,,,556,18,Woman,Right,
,,,,,,,,,,,,,,,,,556,18,Woman,Right,3,79,0.15,2,180,0,0,1.058755299999575,['y'],0.7431715999996413,1.78,1653.1948143999998,,,,,556,18,Woman,Right,
,,,,,,,,,,,,,,,,,556,18,Woman,Right,3,8,0.4,1,0,-,180,0.5759198999999171,['y'],0.631014900000082,1.762,1656.8615166999998,,,,,556,18,Woman,Right,
,,,,,,,,,,,,,,,,,556,18,Woman,Right,3,24,0.4,1,0,-,0,0.7023172999997769,['y'],1.878525399999944,1.762,1661.7780905999998,,,,,556,18,Woman,Right,
,,,,,,,,,,,,,,,,,556,18,Woman,Right,3,72,0.15,1,0,-,0,0.6879715999998552,['y'],0.7428023999996185,1.874,1665.8447664,,,,,556,18,Woman,Right,
,,,,,,,,,,,,,,,,,556,18,Woman,Right,3,74,0.15,1,180,-,0,0.6078758999997262,['y'],0.7109384000000318,1.184,1669.7280802999999,,,,,556,18,Woman,Right,
,,,,,,,,,,,,,,,,,556,18,Woman,Right,3,45,0.15,2,0,180,0,0.5807935999996516,['y'],0.7427090999999564,1.354,1673.5280494999997,,,,,556,18,Woman,Right,
,,,,,,,,,,,,,,,,,556,18,Woman,Right,3,47,0.15,2,180,0,0,0.43395920000011756,['y'],0.5828258999999889,1.562,1677.1946841,,,,,556,18,Woman,Right,
,,,,,,,,,,,,,,,,,556,18,Woman,Right,3,75,0.15,2,180,0,0,0.35053530000004685,['y'],0.7429730999997446,1.554,1680.8447366,,,,,556,18,Woman,Right,
,,,,,,,,,,,,,,,,,556,18,Woman,Right,3,22,0.4,1,180,-,0,0.45389720000002853,['y'],0.47888700000021345,1.9,1684.194692,,,,,556,18,Woman,Right,
,,,,,,,,,,,,,,,,,556,18,Woman,Right,3,1,1,2,0,180,180,0.8565622999999505,['y'],0.5349455000000489,1.6640000000000001,1687.8280202,,,,,556,18,Woman,Right,
,,,,,,,,,,,,,,,,,556,18,Woman,Right,3,40,0.4,1,0,-,180,0.9667702999995527,['y'],0.5427641000001131,1.692,1691.8612914,,,,,556,18,Woman,Right,
,,,,,,,,,,,,,,,,,556,18,Woman,Right,3,66,0.15,1,180,-,180,0.818435799999861,['y'],1.1990544000000227,1.172,1696.328008,,,,,556,18,Woman,Right,
,,,,,,,,,,,,,,,,,556,18,Woman,Right,3,62,0.15,1,180,-,0,0.4191412999998647,['y'],0.6950899999997091,1.564,1700.2779966999997,,,,,556,18,Woman,Right,
,,,,,,,,,,,,,,,,,556,18,Woman,Right,3,11,0.4,2,180,0,0,0.30790739999974903,['y'],0.9992901000000529,1.568,1703.9445544999999,,,,,556,18,Woman,Right,
,,,,,,,,,,,,,,,,,556,18,Woman,Right,3,19,0.4,2,180,0,180,0.823232199999893,['y'],0.5749372999998741,1.566,1709.0611914,,,,,556,18,Woman,Right,
,,,,,,,,,,,,,,,,,556,18,Woman,Right,3,49,0.15,2,0,180,0,0.44947080000019923,['y'],0.966793399999915,1.698,1713.2279389,,,,,556,18,Woman,Right,
,,,,,,,,,,,,,,,,,556,18,Woman,Right,3,34,0.4,1,180,-,0,0.46174269999983153,['y'],0.4468280000000959,1.944,1716.6612569999998,,,,,556,18,Woman,Right,
,,,,,,,,,,,,,,,,,556,18,Woman,Right,3,41,0.4,2,0,180,180,0.44668830000000526,['y'],0.6787733000001026,1.824,1719.9945739999998,,,,,556,18,Woman,Right,
,,,,,,,,,,,,,,,,,556,18,Woman,Right,3,31,0.4,2,180,0,0,0.375776599999881,['y'],0.46288910000021133,1.6099999999999999,1723.1613314,,,,,556,18,Woman,Right,
,,,,,,,,,,,,,,,,,556,18,Woman,Right,3,43,0.4,2,180,0,180,0.6352937999999995,['y'],0.46286749999990207,1.662,1726.6445162,,,,,556,18,Woman,Right,
,,,,,,,,,,,,,,,,,556,18,Woman,Right,3,20,0.4,1,0,-,0,0.5271009000002778,['y'],0.39899060000016107,1.6440000000000001,1729.8112077,,,,,556,18,Woman,Right,
,,,,,,,,,,,,,,,,,556,18,Woman,Right,3,6,1,1,180,-,180,0.6168290999999044,['n'],1.5426409000001513,1.752,1734.9279023999998,,,,,556,18,Woman,Right,
,,,,,,,,,,,,,,,,,556,18,Woman,Right,3,56,0.15,1,0,-,0,0.6513041999996858,['y'],0.646747900000264,1.6,1739.3945985,,,,,556,18,Woman,Right,
,,,,,,,,,,,,,,,,,556,18,Woman,Right,3,35,0.4,2,180,0,0,0.7253636999998889,['y'],0.7428012000000308,1.996,1743.4278021,,,,,556,18,Woman,Right,
,,,,,,,,,,,,,,,,,556,18,Woman,Right,3,33,0.4,2,0,180,180,0.7811494000002313,['y'],0.6792481999996198,1.986,1747.3111675999999,,,,,556,18,Woman,Right,
,,,,,,,,,,,,,,,,,556,18,Woman,Right,3,17,0.4,2,0,180,180,0.49025929999970685,['y'],0.5906218000000081,1.968,1751.2944914,,,,,556,18,Woman,Right,
,,,,,,,,,,,,,,,,,556,18,Woman,Right,3,59,0.15,2,180,0,180,0.541113299999779,['y'],0.4229639000000134,1.82,1754.5277901,,,,,556,18,Woman,Right,
,,,,,,,,,,,,,,,,,556,18,Woman,Right,3,13,0.4,2,0,180,0,0.8096942999995917,['y'],0.8469458999998096,1.962,1758.4610908,,,,,556,18,Woman,Right,
,,,,,,,,,,,,,,,,,556,18,Woman,Right,3,12,0.4,1,0,-,180,0.4168300999999701,['y'],0.34793420000005426,1.896,1761.6278112,,,,,556,18,Woman,Right,
,,,,,,,,,,,,,,,,,556,18,Woman,Right,3,57,0.15,2,0,180,180,0.9823685000001205,['y'],0.41503640000019004,1.998,1765.411138,,,,,556,18,Woman,Right,
,,,,,,,,,,,,,,,,,556,18,Woman,Right,3,51,0.15,2,180,0,0,0.6394369999998162,['y'],0.4865746999998919,1.3940000000000001,1768.961288,,,,,556,18,Woman,Right,
,,,,,,,,,,,,,,,,,556,18,Woman,Right,3,37,0.4,2,0,180,180,0.40909759999976814,['y'],0.622884900000372,1.834,1772.2943213999997,,,,,556,18,Woman,Right,
,,,,,,,,,,,,,,,,,556,18,Woman,Right,3,0,1,1,0,-,0,0.3790742000001046,['n'],0.39891839999972944,1.912,1777.2943974999998,,,,,556,18,Woman,Right,
,,,,,,,,,,,,,,,,,556,18,Woman,Right,3,27,0.4,2,180,0,0,0.49319229999991876,['y'],0.8309158000001844,1.936,1780.8776568999997,,,,,556,18,Woman,Right,
,,,,,,,,,,,,,,,,,556,18,Woman,Right,3,48,0.15,1,0,-,180,1.0378264999999374,['n'],0.7030585000002247,1.988,1785.3443250999999,,,,,556,18,Woman,Right,
,,,,,,,,,,,,,,,,,556,18,Woman,Right,3,44,0.15,1,0,-,180,1.1359148999999888,['y'],1.014911299999767,1.804,1789.7443899,,,,,556,18,Woman,Right,
,,,,,,,,,,,,,,,,,556,18,Woman,Right,3,29,0.4,2,0,180,180,0.38584129999981087,['y'],0.8149456999999529,1.708,1793.3943636999998,,,,,556,18,Woman,Right,
,,,,,,,,,,,,,,,,,556,18,Woman,Right,3,63,0.15,2,180,0,0,0.8243365999996968,['y'],0.25495890000001964,1.774,1799.7275298,,,,,556,18,Woman,Right,
,,,,,,,,,,,,,,,,,556,18,Woman,Right,3,52,0.15,1,0,-,0,0.3861573000003773,['y'],0.5107562000002872,1.732,1802.9109270999998,,,,,556,18,Woman,Right,
,,,,,,,,,,,,,,,,,556,18,Woman,Right,3,78,0.15,1,180,-,0,0.37318709999999555,['n'],0.2948919999998907,1.732,1805.8609830999999,,,,,556,18,Woman,Right,
,,,,,,,,,,,,,,,,,556,18,Woman,Right,3,18,0.4,1,180,-,180,0.37700340000037613,['y'],0.319418599999608,1.732,1809.3276673,,,,,556,18,Woman,Right,
,,,,,,,,,,,,,,,,,556,18,Woman,Right,3,65,0.15,2,0,180,0,0.6508423000000221,['n'],0.34296760000006543,1.35,1813.6609528999998,,,,,556,18,Woman,Right,
,,,,,,,,,,,,,,,,,556,18,Woman,Right,3,46,0.15,1,180,-,180,0.43182290000004286,['y'],0.6470927000000302,1.79,1817.6443114999997,,,,,556,18,Woman,Right,
,,,,,,,,,,,,,,,,,556,18,Woman,Right,3,69,0.15,2,0,180,0,0.566891299999952,['y'],0.5644492000001264,1.748,1821.0776538999999,,,,,556,18,Woman,Right,
,,,,,,,,,,,,,,,,,556,18,Woman,Right,3,64,0.15,1,0,-,180,1.0557275999999547,['y'],1.0149913000000197,1.748,1827.0775945999999,,,,,556,18,Woman,Right,
,,,,,,,,,,,,,,,,,556,18,Woman,Right,3,30,0.4,1,180,-,0,0.4323074999997516,['y'],0.6470225000002756,1.748,1830.9442700999998,,,,,556,18,Woman,Right,
,,,,,,,,,,,,,,,,,556,18,Woman,Right,3,28,0.4,1,0,-,0,0.5770732000000862,['n'],0.830916100000195,1.862,1836.2275784999997,,,,,556,18,Woman,Right,
,,,,,,,,,,,,,,,,,556,18,Woman,Right,3,25,0.4,2,0,180,180,0.34900519999973767,['y'],0.5669444000000112,1.576,1839.6775573,,,,,556,18,Woman,Right,
,,,,,,,,,,,,,,,,,556,18,Woman,Right,3,50,0.15,1,180,-,180,0.4759390000003805,['n'],0.29475509999974747,1.4140000000000001,1843.0275105,,,,,556,18,Woman,Right,
,,,,,,,,,,,,,,,,,556,18,Woman,Right,3,2,1,1,180,-,180,0.2717373000000407,['n'],1.0708948000001328,1.8639999999999999,1847.4774416,,,,,556,18,Woman,Right,
,,,,,,,,,,,,,,,,,556,18,Woman,Right,3,76,0.15,1,0,-,0,0.8702959000002011,['y'],0.6389960000001338,1.744,1851.4108339,,,,,556,18,Woman,Right,
,,,,,,,,,,,,,,,,,556,18,Woman,Right,3,58,0.15,1,180,-,0,0.7828700000000026,['y'],1.1910219000001234,1.928,1855.7274681,,,,,556,18,Woman,Right,
,,,,,,,,,,,,,,,,,556,18,Woman,Right,3,68,0.15,1,0,-,0,1.8157047999998213,['y'],0.7350105999998959,1.804,1860.6607976999999,,,,,556,18,Woman,Right,
,,,,,,,,,,,,,,,,,556,18,Woman,Right,3,14,0.4,1,180,-,0,1.0623084999997445,['y'],0.5509926999998243,1.804,1864.494166,,,,,556,18,Woman,Right,
,,,,,,,,,,,,,,,,,556,18,Woman,Right,3,26,0.4,1,180,-,180,0.44615650000014284,['y'],0.5512113999998292,1.994,1868.2943090999997,,,,,556,18,Woman,Right,
,,,,,,,,,,,,,,,,,556,18,Woman,Right,3,32,0.4,1,0,-,180,0.6446885000000293,['y'],0.294956799999909,1.768,1871.4440037,,,,,556,18,Woman,Right,
,,,,,,,,,,,,,,,,,556,18,Woman,Right,3,9,0.4,2,0,180,180,0.7508013000001483,['y'],1.3589390999995885,1.858,1876.1273793999999,,,,,556,18,Woman,Right,
,,,,,,,,,,,,,,,,,556,18,Woman,Right,3,5,1,2,0,180,180,0.38406339999983174,['y'],0.3989881000002242,1.97,1879.4941094,,,,,556,18,Woman,Right,
,,,,,,,,,,,,,,,,,556,18,Woman,Right,3,23,0.4,2,180,0,0,0.532026500000029,['y'],0.5186533000000964,1.962,1882.9773501999998,,,,,556,18,Woman,Right,
,,,,,,,,,,,,,,,,,556,18,Woman,Right,3,55,0.15,2,180,0,180,0.44959800000015093,['y'],0.23100650000014866,1.662,1886.4273862,,,,,556,18,Woman,Right,
,,,,,,,,,,,,,,,,,556,18,Woman,Right,3,54,0.15,1,180,-,0,1.0876938000001246,['y'],0.29490450000002966,1.662,1890.9273134999999,,,,,556,18,Woman,Right,
,,,,,,,,,,,,,,,,,556,18,Woman,Right,3,36,0.4,1,0,-,180,0.7722904000002018,['y'],0.558964300000298,1.988,1894.5606622999999,,,,,556,18,Woman,Right,
,,,,,,,,,,,,,,,,,556,18,Woman,Right,3,10,0.4,1,180,-,0,0.5376741000000038,['y'],0.9349583999996867,1.976,1898.4273629999998,,,,,556,18,Woman,Right,
,,,,,,,,,,,,,,,,,556,18,Woman,Right,3,42,0.4,1,180,-,0,0.5681649999996807,['y'],0.3749655999999959,1.954,1901.5439757,,,,,556,18,Woman,Right,
,,,,,,,,,,,,,,,,,556,18,Woman,Right,3,61,0.15,2,0,180,0,0.9543836000002557,['y'],0.45473740000034013,1.948,1905.1439643999997,,,,,556,18,Woman,Right,
,,,,,,,,,,,,,,,,,556,18,Woman,Right,3,70,0.15,1,180,-,0,0.48963540000022476,['y'],0.3510728000001109,1.958,1908.2106427999997,,,,,556,18,Woman,Right,
,,,,,,,,,,,,,,,,,556,18,Woman,Right,3,39,0.4,2,180,0,0,0.8576226000000133,['y'],0.21493670000018028,1.964,1911.4105907999997,,,,,556,18,Woman,Right,
,,,,,,,,,,,,,,,,,556,18,Woman,Right,3,7,1,2,180,0,0,0.3996446000001015,['y'],0.1908480000001873,1.986,1914.3104527,,,,,556,18,Woman,Right,
,,,,,,,,,,,,,,,,,556,18,Woman,Right,3,3,1,2,180,0,0,0.4023909999996249,['y'],0.2227640999999494,1.958,1917.1772618,,,,,556,18,Woman,Right,
,,,,,,,,,,,,,,,,,556,18,Woman,Right,3,53,0.15,2,0,180,180,0.6405475999999908,['y'],1.863195899999937,1.944,1922.3108174,,,,,556,18,Woman,Right,
,,,,,,,,,,,,,,,,,556,18,Woman,Right,4,10,0.4,1,180,-,0,0.34825640000008207,['y'],0.27097479999974894,1.786,1929.2606194,58.75,22.5,95.0,,556,18,Woman,Right,
,,,,,,,,,,,,,,,,,556,18,Woman,Right,4,13,0.4,2,0,180,180,0.4305920000001606,['y'],0.5589208000001236,1.922,1932.5772349,,,,,556,18,Woman,Right,
,,,,,,,,,,,,,,,,,556,18,Woman,Right,4,31,0.4,2,180,0,0,0.4800172999998722,['y'],0.5030127999998513,1.778,1935.7438818,,,,,556,18,Woman,Right,
,,,,,,,,,,,,,,,,,556,18,Woman,Right,4,18,0.4,1,180,-,0,0.721531799999866,['y'],1.1189691999998104,1.928,1940.2104771999998,,,,,556,18,Woman,Right,
,,,,,,,,,,,,,,,,,556,18,Woman,Right,4,3,1,2,180,0,0,0.4942455999998856,['y'],0.6229846000001089,2.0,1943.8938561999998,,,,,556,18,Woman,Right,
,,,,,,,,,,,,,,,,,556,18,Woman,Right,4,39,0.4,2,180,0,0,0.8767448999997214,['y'],0.4069960999995601,2.0,1947.4604583,,,,,556,18,Woman,Right,
,,,,,,,,,,,,,,,,,556,18,Woman,Right,4,46,0.15,1,180,-,180,1.3981353999997737,['n'],1.526996699999927,1.8940000000000001,1952.6771190999998,,,,,556,18,Woman,Right,
,,,,,,,,,,,,,,,,,556,18,Woman,Right,4,36,0.4,1,0,-,180,1.6553759000003083,['y'],0.5269032000001062,1.9020000000000001,1957.7438266,,,,,556,18,Woman,Right,
,,,,,,,,,,,,,,,,,556,18,Woman,Right,4,75,0.15,2,180,0,0,1.0958479999999327,['y'],0.9917958999999428,1.896,1962.1437935,,,,,556,18,Woman,Right,
,,,,,,,,,,,,,,,,,556,18,Woman,Right,4,72,0.15,1,0,-,180,0.3715260999997554,['y'],1.3909398999999212,1.896,1966.2270576,,,,,556,18,Woman,Right,
,,,,,,,,,,,,,,,,,556,18,Woman,Right,4,49,0.15,2,0,180,180,1.3597709999999097,['y'],0.7267383999997037,1.416,1971.1437541999999,,,,,556,18,Woman,Right,
,,,,,,,,,,,,,,,,,556,18,Woman,Right,4,50,0.15,1,180,-,0,0.4327591000001121,['y'],1.3270979999997508,1.6600000000000001,1975.3770752,,,,,556,18,Woman,Right,
,,,,,,,,,,,,,,,,,556,18,Woman,Right,4,41,0.4,2,0,180,180,0.5862053000000742,['y'],0.3428644999999051,1.5899999999999999,1979.1270055999998,,,,,556,18,Woman,Right,
,,,,,,,,,,,,,,,,,556,18,Woman,Right,4,42,0.4,1,180,-,0,0.5749429000002237,['y'],0.5268786000001455,1.792,1982.7437442,,,,,556,18,Woman,Right,
,,,,,,,,,,,,,,,,,556,18,Woman,Right,4,32,0.4,1,0,-,0,0.4334387999997489,['y'],0.34232399999973495,1.702,1985.9938392,,,,,556,18,Woman,Right,
,,,,,,,,,,,,,,,,,556,18,Woman,Right,4,40,0.4,1,0,-,180,0.3442393999998785,['y'],0.3827840000003562,1.702,1985.9938392,,,,,556,18,Woman,Right,
,,,,,,,,,,,,,,,,,556,18,Woman,Right,4,61,0.15,2,0,180,0,0.7400414999997338,['y'],0.6950834999997824,1.234,1992.9936165,,,,,556,18,Woman,Right,
,,,,,,,,,,,,,,,,,556,18,Woman,Right,4,79,0.15,2,180,0,180,0.5996008000001893,['n'],0.8229264000001422,1.256,1999.1436070999998,,,,,556,18,Woman,Right,
,,,,,,,,,,,,,,,,,556,18,Woman,Right,4,17,0.4,2,0,180,180,1.0628572000000531,['y'],0.6949034999997821,1.6680000000000001,2004.4103015,,,,,556,18,Woman,Right,
,,,,,,,,,,,,,,,,,556,18,Woman,Right,4,16,0.4,1,0,-,0,1.0487879000002067,['n'],0.5422877000000881,1.968,2008.7103094,,,,,556,18,Woman,Right,
,,,,,,,,,,,,,,,,,556,18,Woman,Right,4,9,0.4,2,0,180,180,1.033600799999931,['y'],0.34294960000033825,1.858,2012.876843,,,,,556,18,Woman,Right,
,,,,,,,,,,,,,,,,,556,18,Woman,Right,4,38,0.4,1,180,-,0,0.6109155999997711,['y'],0.806900399999904,1.788,2016.926965,,,,,556,18,Woman,Right,
,,,,,,,,,,,,,,,,,556,18,Woman,Right,4,74,0.15,1,180,-,180,0.534061599999859,['y'],0.663036099999772,1.8860000000000001,2020.6269788999998,,,,,556,18,Woman,Right,
,,,,,,,,,,,,,,,,,556,18,Woman,Right,4,14,0.4,1,180,-,0,0.6462498999999298,['y'],1.5828989999999976,1.4020000000000001,2025.7602489,,,,,556,18,Woman,Right,
,,,,,,,,,,,,,,,,,556,18,Woman,Right,4,55,0.15,2,180,0,0,0.553744800000004,['y'],0.15056340000001,1.6280000000000001,2029.1936078999997,,,,,556,18,Woman,Right,
,,,,,,,,,,,,,,,,,556,18,Woman,Right,4,66,0.15,1,180,-,0,1.5592470000001413,['y'],0.9744440999998005,1.1560000000000001,2034.4268416,,,,,556,18,Woman,Right,
,,,,,,,,,,,,,,,,,556,18,Woman,Right,4,23,0.4,2,180,0,0,1.223549599999842,['y'],1.0228535999999622,1.0939999999999999,2039.3768608,,,,,556,18,Woman,Right,
,,,,,,,,,,,,,,,,,556,18,Woman,Right,4,64,0.15,1,0,-,0,0.49220119999972667,['y'],1.3188360999997712,1.294,2043.9434388999998,,,,,556,18,Woman,Right,
,,,,,,,,,,,,,,,,,556,18,Woman,Right,4,20,0.4,1,0,-,180,1.1730389000003925,['y'],0.7425819000000047,1.264,2048.3768071,,,,,556,18,Woman,Right,
,,,,,,,,,,,,,,,,,556,18,Woman,Right,4,52,0.15,1,0,-,0,0.3588500999999269,['y'],0.5268439000001308,1.3599999999999999,2051.8101336,,,,,556,18,Woman,Right,
,,,,,,,,,,,,,,,,,556,18,Woman,Right,4,56,0.15,1,0,-,0,0.5928290000001653,['y'],1.5909268999998858,1.154,2056.2600632,,,,,556,18,Woman,Right,
,,,,,,,,,,,,,,,,,556,18,Woman,Right,4,30,0.4,1,180,-,0,0.7172897999998895,['y'],1.5415699000000131,1.33,2061.0932958999997,,,,,556,18,Woman,Right,
,,,,,,,,,,,,,,,,,556,18,Woman,Right,4,26,0.4,1,180,-,180,0.6994518999999855,['y'],0.7508858000001055,1.6179999999999999,2064.7266865999995,,,,,556,18,Woman,Right,
,,,,,,,,,,,,,,,,,556,18,Woman,Right,4,6,1,1,180,-,180,1.3236087999994197,['y'],1.4707955000003494,1.916,2070.6767546999995,,,,,556,18,Woman,Right,
,,,,,,,,,,,,,,,,,556,18,Woman,Right,4,21,0.4,2,0,180,0,0.6382441999994626,['n'],0.9507242999998198,1.982,2075.0266729,,,,,556,18,Woman,Right,
,,,,,,,,,,,,,,,,,556,18,Woman,Right,4,45,0.15,2,0,180,0,0.2307731999999305,['n'],0.16683970000030968,2.0,2077.8933709999997,,,,,556,18,Woman,Right,
,,,,,,,,,,,,,,,,,556,18,Woman,Right,4,44,0.15,1,0,-,0,0.0440361999999368,['n'],0.2390016999997897,2.0,2080.5766989999997,,,,,556,18,Woman,Right,
,,,,,,,,,,,,,,,,,556,18,Woman,Right,4,29,0.4,2,0,180,0,0.08362130000023171,['n'],0.22937680000086402,1.974,2083.6266775999998,,,,,556,18,Woman,Right,
,,,,,,,,,,,,,,,,,556,18,Woman,Right,4,25,0.4,2,0,180,0,0.07621999999992113,['n'],1.7508119000003717,2.0,2088.0767731,,,,,556,18,Woman,Right,
,,,,,,,,,,,,,,,,,556,18,Woman,Right,4,68,0.15,1,0,-,0,0.034773899999891,['n'],0.6308810000000449,2.0,2091.5933117,,,,,556,18,Woman,Right,
,,,,,,,,,,,,,,,,,556,18,Woman,Right,4,67,0.15,2,180,0,0,0.06199910000032105,['n'],1.2229818999994677,2.0,2095.4433544,,,,,556,18,Woman,Right,
,,,,,,,,,,,,,,,,,556,18,Woman,Right,4,37,0.4,2,0,180,0,0.1420819000004485,['n'],0.7749114000007467,1.996,2099.4099721,,,,,556,18,Woman,Right,
,,,,,,,,,,,,,,,,,556,18,Woman,Right,4,19,0.4,2,180,0,0,0.9015167000006841,['n'],0.2948494000002029,1.982,2102.9099914000003,,,,,556,18,Woman,Right,
,,,,,,,,,,,,,,,,,556,18,Woman,Right,4,53,0.15,2,0,180,0,0.01662520000081713,['n'],1.062296800000695,1.984,2106.3266270999998,,,,,556,18,Woman,Right,
,,,,,,,,,,,,,,,,,556,18,Woman,Right,4,2,1,1,180,-,0,1.633236399999987,['n'],0.22290479999992385,1.996,2113.6599381,,,,,556,18,Woman,Right,
,,,,,,,,,,,,,,,,,556,18,Woman,Right,4,69,0.15,2,0,180,0,0.01676210000005085,['n'],0.7910272999997687,1.996,2117.4266064999997,,,,,556,18,Woman,Right,
,,,,,,,,,,,,,,,,,556,18,Woman,Right,4,58,0.15,1,180,-,0,0.6499469000000317,['n'],1.7034217000000353,1.996,2122.2432321,,,,,556,18,Woman,Right,
,,,,,,,,,,,,,,,,,556,18,Woman,Right,4,27,0.4,2,180,0,0,0.5192581999999675,['n'],0.7504982999998902,1.996,2125.7097788999995,,,,,556,18,Woman,Right,
,,,,,,,,,,,,,,,,,556,18,Woman,Right,4,1,1,2,0,180,0,0.3446187999998074,['n'],0.47903299999961746,1.996,2129.5265833,,,,,556,18,Woman,Right,
,,,,,,,,,,,,,,,,,556,18,Woman,Right,4,59,0.15,2,180,0,0,1.3433567000001858,['n'],0.9113419999994221,1.996,2134.8098570999996,,,,,556,18,Woman,Right,
,,,,,,,,,,,,,,,,,556,18,Woman,Right,4,57,0.15,2,0,180,0,0.7433372000004965,['n'],0.8469800000002579,1.996,2138.6931472,,,,,556,18,Woman,Right,
,,,,,,,,,,,,,,,,,556,18,Woman,Right,4,28,0.4,1,0,-,0,0.5070523000003959,['n'],0.7270140000000538,1.996,2143.1264338999995,,,,,556,18,Woman,Right,
,,,,,,,,,,,,,,,,,556,18,Woman,Right,4,77,0.15,2,0,180,0,0.6255068000000392,['n'],0.4547963000004529,1.996,2147.5263898,,,,,556,18,Woman,Right,
,,,,,,,,,,,,,,,,,556,18,Woman,Right,4,0,1,1,0,-,0,0.15842639999937091,['n'],0.975510100000065,1.996,2151.2765372,,,,,556,18,Woman,Right,
,,,,,,,,,,,,,,,,,556,18,Woman,Right,4,34,0.4,1,180,-,0,0.4439516000002186,['n'],0.8390371999994386,1.996,2155.0097327999997,,,,,556,18,Woman,Right,
,,,,,,,,,,,,,,,,,556,18,Woman,Right,4,35,0.4,2,180,0,0,0.5659490999996706,['n'],0.5589367000002312,1.996,2159.4763429,,,,,556,18,Woman,Right,
,,,,,,,,,,,,,,,,,556,18,Woman,Right,4,5,1,2,0,180,180,0.746696800000791,['y'],2.6790742000002865,1.564,2166.2763910999997,,,,,556,18,Woman,Right,
,,,,,,,,,,,,,,,,,556,18,Woman,Right,4,51,0.15,2,180,0,0,0.8105808000000252,['n'],1.239092900000287,2.0,2171.5096713,,,,,556,18,Woman,Right,
,,,,,,,,,,,,,,,,,556,18,Woman,Right,4,78,0.15,1,180,-,0,0.592225899999903,['n'],0.8868223999998008,2.0,2176.1763601,,,,,556,18,Woman,Right,
,,,,,,,,,,,,,,,,,556,18,Woman,Right,4,12,0.4,1,0,-,180,0.4705386000005092,['n'],2.30288980000023,1.028,2182.0763003999996,,,,,556,18,Woman,Right,
,,,,,,,,,,,,,,,,,556,18,Woman,Right,4,62,0.15,1,180,-,0,0.100427899999886,['n'],0.919289999999819,2.0,2186.8596390999996,,,,,556,18,Woman,Right,
,,,,,,,,,,,,,,,,,556,18,Woman,Right,4,33,0.4,2,0,180,180,0.9115416000004188,['y'],1.8946771000000808,1.71,2192.8096637000003,,,,,556,18,Woman,Right,
,,,,,,,,,,,,,,,,,556,18,Woman,Right,4,73,0.15,2,0,180,0,0.5383701999999175,['n'],1.3265677999997934,1.8980000000000001,2201.3263206999995,,,,,556,18,Woman,Right,
,,,,,,,,,,,,,,,,,556,18,Woman,Right,4,43,0.4,2,180,0,0,1.7407018000003518,['y'],0.5748506999998426,1.818,2206.3263604999997,,,,,556,18,Woman,Right,
,,,,,,,,,,,,,,,,,556,18,Woman,Right,4,60,0.15,1,0,-,0,0.832925100000466,['n'],2.9506462999997893,1.646,2212.8928303999996,,,,,556,18,Woman,Right,
,,,,,,,,,,,,,,,,,556,18,Woman,Right,4,8,0.4,1,0,-,0,0.3711263000004692,['n'],0.6794014000006428,1.612,2216.9928856,,,,,556,18,Woman,Right,
,,,,,,,,,,,,,,,,,556,18,Woman,Right,4,24,0.4,1,0,-,0,0.42064339999978984,['n'],0.2789469999997891,1.608,2221.4762224,,,,,556,18,Woman,Right,
,,,,,,,,,,,,,,,,,556,18,Woman,Right,4,22,0.4,1,180,-,180,2.9578043999999863,['y'],1.0390563999999358,1.4,2228.5428331,,,,,556,18,Woman,Right,
,,,,,,,,,,,,,,,,,556,18,Woman,Right,4,7,1,2,180,0,0,1.9525904000001901,['y'],0.8393339000003834,1.662,2234.0595158,,,,,556,18,Woman,Right,
,,,,,,,,,,,,,,,,,556,18,Woman,Right,4,70,0.15,1,180,-,0,0.5792636999995011,['n'],0.6709119999995892,1.744,2237.9761379999995,,,,,556,18,Woman,Right,
,,,,,,,,,,,,,,,,,556,18,Woman,Right,4,71,0.15,2,180,0,0,1.2490938000000824,['y'],0.9594172999995862,1.8679999999999999,2242.6594573999996,,,,,556,18,Woman,Right,
,,,,,,,,,,,,,,,,,556,18,Woman,Right,4,47,0.15,2,180,0,180,0.3852734000001874,['y'],0.590624200000093,1.912,2246.5094041999996,,,,,556,18,Woman,Right,
,,,,,,,,,,,,,,,,,556,18,Woman,Right,4,63,0.15,2,180,0,0,1.1937350999996852,['n'],1.2150013999998919,1.91,2251.6763248,,,,,556,18,Woman,Right,
,,,,,,,,,,,,,,,,,556,18,Woman,Right,4,48,0.15,1,0,-,0,0.19998619999932998,['n'],0.9588773000004949,1.9,2255.4594064999997,,,,,556,18,Woman,Right,
,,,,,,,,,,,,,,,,,556,18,Woman,Right,4,11,0.4,2,180,0,0,1.441194600000017,['y'],0.503440600000431,1.9,2259.7094405000003,,,,,556,18,Woman,Right,
,,,,,,,,,,,,,,,,,556,18,Woman,Right,4,76,0.15,1,0,-,0,0.15113530000053288,['n'],1.4950190999998085,1.9,2263.8593939999996,,,,,556,18,Woman,Right,
,,,,,,,,,,,,,,,,,556,18,Woman,Right,4,15,0.4,2,180,0,0,0.1475864999993064,['n'],0.7990663000000495,1.9,2263.8593939999996,,,,,556,18,Woman,Right,
,,,,,,,,,,,,,,,,,556,18,Woman,Right,4,54,0.15,1,180,-,0,1.2069775999998456,['n'],0.22302850000050967,1.5,2270.3234193000003,,,,,556,18,Woman,Right,
,,,,,,,,,,,,,,,,,556,18,Woman,Right,4,4,1,1,0,-,0,0.7516746999999668,['n'],0.22296040000037465,1.9,2274.5427290000002,,,,,556,18,Woman,Right,
,,,,,,,,,,,,,,,,,556,18,Woman,Right,4,65,0.15,2,0,180,180,0.6811084000000847,['y'],2.2310397999999623,1.26,2279.9094069,,,,,556,18,Woman,Right,
,,,,,,,,,,,,,,,,,556,18,Woman,Right,5,12,0.4,1,0,-,0,0.3401034999997137,['n'],0.3507693000001382,1.9,2286.2259782999995,57.5,50.0,50.0,,556,18,Woman,Right,
,,,,,,,,,,,,,,,,,556,18,Woman,Right,5,65,0.15,2,0,180,0,0.02642039999955159,['n'],0.4389694999999847,1.9,2289.2593039999997,,,,,556,18,Woman,Right,
,,,,,,,,,,,,,,,,,556,18,Woman,Right,5,14,0.4,1,180,-,0,1.1878176000000167,['n'],1.310971900000368,1.908,2294.0427096,,,,,556,18,Woman,Right,
,,,,,,,,,,,,,,,,,556,18,Woman,Right,5,17,0.4,2,0,180,0,1.3831872000000658,['y'],0.49510339999960706,1.76,2298.4262217,,,,,556,18,Woman,Right,
,,,,,,,,,,,,,,,,,556,18,Woman,Right,5,8,0.4,1,0,-,0,0.3769287999994049,['n'],0.5589349000001675,1.942,2301.8759029999997,,,,,556,18,Woman,Right,
,,,,,,,,,,,,,,,,,556,18,Woman,Right,5,70,0.15,1,180,-,0,0.4117690000002767,['n'],0.19098940000003495,1.972,2304.892636,,,,,556,18,Woman,Right,
,,,,,,,,,,,,,,,,,556,18,Woman,Right,5,42,0.4,1,180,-,0,0.8593526999993628,['n'],0.2148642000001928,1.974,2308.4427469999996,,,,,556,18,Woman,Right,
,,,,,,,,,,,,,,,,,556,18,Woman,Right,5,10,0.4,1,180,-,0,0.939124499999707,['n'],1.062863500000276,1.782,2312.7592102000003,,,,,556,18,Woman,Right,
,,,,,,,,,,,,,,,,,556,18,Woman,Right,5,32,0.4,1,0,-,0,0.6611444999998639,['n'],0.7910906999995859,1.672,2317.1927399,,,,,556,18,Woman,Right,
,,,,,,,,,,,,,,,,,556,18,Woman,Right,5,49,0.15,2,0,180,0,0.6925472000002628,['n'],1.2227966999998898,1.646,2321.4594187,,,,,556,18,Woman,Right,
,,,,,,,,,,,,,,,,,556,18,Woman,Right,5,28,0.4,1,0,-,0,0.5668398999996498,['n'],0.9565517999999429,1.5899999999999999,2325.2758535999997,,,,,556,18,Woman,Right,
,,,,,,,,,,,,,,,,,556,18,Woman,Right,5,51,0.15,2,180,0,0,0.4045078999997713,['n'],0.8548085000002175,1.604,2328.8092131999997,,,,,556,18,Woman,Right,
,,,,,,,,,,,,,,,,,556,18,Woman,Right,5,19,0.4,2,180,0,180,0.507906599999842,['n'],1.0149234999998953,1.596,2332.8427021,,,,,556,18,Woman,Right,
,,,,,,,,,,,,,,,,,556,18,Woman,Right,5,57,0.15,2,0,180,0,0.6169965999997657,['n'],0.8228011000001061,1.596,2332.8427021,,,,,556,18,Woman,Right,
,,,,,,,,,,,,,,,,,556,18,Woman,Right,5,6,1,1,180,-,180,0.7344116999993275,['n'],1.07099720000042,1.5899999999999999,2340.3258378999994,,,,,556,18,Woman,Right,
,,,,,,,,,,,,,,,,,556,18,Woman,Right,5,46,0.15,1,180,-,0,0.8903511999997136,['n'],1.2070927999993728,1.674,2345.6425386999995,,,,,556,18,Woman,Right,
,,,,,,,,,,,,,,,,,556,18,Woman,Right,5,13,0.4,2,0,180,0,0.5796534999999494,['n'],0.4391078999997262,1.804,2349.1257499999997,,,,,556,18,Woman,Right,
,,,,,,,,,,,,,,,,,556,18,Woman,Right,5,0,1,1,0,-,0,0.6156537999995635,['n'],1.774971199999527,1.984,2354.1091149999997,,,,,556,18,Woman,Right,
,,,,,,,,,,,,,,,,,556,18,Woman,Right,5,23,0.4,2,180,0,180,1.8976940999991712,['y'],2.0553991000006135,1.262,2361.0591191,,,,,556,18,Woman,Right,
,,,,,,,,,,,,,,,,,556,18,Woman,Right,5,47,0.15,2,180,0,0,0.4125108000007458,['n'],1.8546343000007255,1.792,2366.0757550000003,,,,,556,18,Woman,Right,
,,,,,,,,,,,,,,,,,556,18,Woman,Right,5,67,0.15,2,180,0,0,0.4281066000003193,['n'],0.646988099999362,1.9020000000000001,2369.6757402999997,,,,,556,18,Woman,Right,
,,,,,,,,,,,,,,,,,556,18,Woman,Right,5,35,0.4,2,180,0,0,0.6582907000001796,['n'],1.5190629999997327,1.6099999999999999,2374.1756926000003,,,,,556,18,Woman,Right,
,,,,,,,,,,,,,,,,,556,18,Woman,Right,5,16,0.4,1,0,-,0,1.0544944000002943,['y'],0.43828880000000936,1.63,2378.5424061,,,,,556,18,Woman,Right,
,,,,,,,,,,,,,,,,,556,18,Woman,Right,5,34,0.4,1,180,-,0,0.15375070000027335,['n'],0.41495820000000094,1.5739999999999998,2381.7255812,,,,,556,18,Woman,Right,
,,,,,,,,,,,,,,,,,556,18,Woman,Right,5,3,1,2,180,0,0,1.4656600999996954,['y'],0.3190625999995973,1.9020000000000001,2386.7256193999997,,,,,556,18,Woman,Right,
,,,,,,,,,,,,,,,,,556,18,Woman,Right,5,18,0.4,1,180,-,0,1.7931085000000166,['y'],0.5427563999992344,1.706,2391.6423289,,,,,556,18,Woman,Right,
,,,,,,,,,,,,,,,,,556,18,Woman,Right,5,37,0.4,2,0,180,0,0.5903571999997439,['y'],1.6629665000000386,1.05,2396.6590060000003,,,,,556,18,Woman,Right,
,,,,,,,,,,,,,,,,,556,18,Woman,Right,5,33,0.4,2,0,180,180,1.7093059000007997,['y'],0.7669538000000102,1.69,2401.5755967,,,,,556,18,Woman,Right,
,,,,,,,,,,,,,,,,,556,18,Woman,Right,5,22,0.4,1,180,-,0,0.5355789999994158,['y'],0.3270349000003989,1.694,2404.6755843999995,,,,,556,18,Woman,Right,
,,,,,,,,,,,,,,,,,556,18,Woman,Right,5,41,0.4,2,0,180,0,1.0524263999996037,['y'],0.3028138999998191,1.624,2408.7088559,,,,,556,18,Woman,Right,
,,,,,,,,,,,,,,,,,556,18,Woman,Right,5,55,0.15,2,180,0,0,0.44340360000023793,['y'],0.2550068000000465,1.6059999999999999,2411.6755823999997,,,,,556,18,Woman,Right,
,,,,,,,,,,,,,,,,,556,18,Woman,Right,5,75,0.15,2,180,0,0,0.837652899999739,['y'],0.2388967999995657,1.6059999999999999,2411.6755823999997,,,,,556,18,Woman,Right,
,,,,,,,,,,,,,,,,,556,18,Woman,Right,5,40,0.4,1,0,-,0,0.8592377999993914,['y'],0.23094980000041687,1.5,2418.2832101,,,,,556,18,Woman,Right,
,,,,,,,,,,,,,,,,,556,18,Woman,Right,5,68,0.15,1,0,-,0,0.6152934000001551,['y'],0.3746747000004689,1.624,2422.7921728999995,,,,,556,18,Woman,Right,
,,,,,,,,,,,,,,,,,556,18,Woman,Right,5,9,0.4,2,0,180,0,0.645701999999801,['y'],0.7268451999998433,1.396,2427.5588780000003,,,,,556,18,Woman,Right,
,,,,,,,,,,,,,,,,,556,18,Woman,Right,5,69,0.15,2,0,180,0,0.6715523000002577,['y'],0.42291930000010325,1.6560000000000001,2431.1088840999996,,,,,556,18,Woman,Right,
,,,,,,,,,,,,,,,,,556,18,Woman,Right,5,74,0.15,1,180,-,0,0.5003643000000011,['y'],0.35881240000071557,1.772,2434.3921065,,,,,556,18,Woman,Right,
,,,,,,,,,,,,,,,,,556,18,Woman,Right,5,26,0.4,1,180,-,180,0.561723400000119,['y'],0.23876709999967716,1.358,2438.1254618,,,,,556,18,Woman,Right,
,,,,,,,,,,,,,,,,,556,18,Woman,Right,5,76,0.15,1,0,-,0,0.4342741999998907,['y'],0.4390622999999323,1.366,2442.2088198999995,,,,,556,18,Woman,Right,
,,,,,,,,,,,,,,,,,556,18,Woman,Right,5,77,0.15,2,0,180,0,0.47495230000004085,['y'],0.335044100000232,1.564,2446.5087191,,,,,556,18,Woman,Right,
,,,,,,,,,,,,,,,,,556,18,Woman,Right,5,5,1,2,0,180,180,2.4419210999994903,['y'],2.3106047000001126,1.8559999999999999,2454.3586963000002,,,,,556,18,Woman,Right,
,,,,,,,,,,,,,,,,,556,18,Woman,Right,5,1,1,2,0,180,180,0.551411200000075,['y'],0.30242180000004737,1.6,2457.9587381999995,,,,,556,18,Woman,Right,
,,,,,,,,,,,,,,,,,556,18,Woman,Right,5,4,1,1,0,-,0,0.6075949000005494,['y'],0.23019469999962894,1.612,2461.1587868,,,,,556,18,Woman,Right,
,,,,,,,,,,,,,,,,,556,18,Woman,Right,5,25,0.4,2,0,180,180,1.0944738999996844,['y'],0.470652500000142,1.8679999999999999,2465.8590987000002,,,,,556,18,Woman,Right,
,,,,,,,,,,,,,,,,,556,18,Woman,Right,5,56,0.15,1,0,-,0,0.6574728999994477,['y'],0.1990750000004482,1.43,2469.3087819999996,,,,,556,18,Woman,Right,
,,,,,,,,,,,,,,,,,556,18,Woman,Right,5,78,0.15,1,180,-,0,0.5123111000002609,['y'],0.27086030000009487,1.93,2472.8587442000003,,,,,556,18,Woman,Right,
,,,,,,,,,,,,,,,,,556,18,Woman,Right,5,11,0.4,2,180,0,0,0.6263160999997126,['y'],0.686945200000082,1.686,2476.9920473999996,,,,,556,18,Woman,Right,
,,,,,,,,,,,,,,,,,556,18,Woman,Right,5,52,0.15,1,0,-,0,0.43349080000007234,['y'],0.2141711000003852,1.6,2480.4086923,,,,,556,18,Woman,Right,
,,,,,,,,,,,,,,,,,556,18,Woman,Right,5,38,0.4,1,180,-,0,0.9656972000002497,['n'],1.5594129000000976,1.374,2486.2752788000003,,,,,556,18,Woman,Right,
,,,,,,,,,,,,,,,,,556,18,Woman,Right,5,24,0.4,1,0,-,180,0.9236896000002162,['y'],0.5988698999999542,1.818,2490.808644,,,,,556,18,Woman,Right,
,,,,,,,,,,,,,,,,,556,18,Woman,Right,5,59,0.15,2,180,0,0,0.6376442999999199,['y'],0.8708257000007507,1.72,2494.7085985999997,,,,,556,18,Woman,Right,
,,,,,,,,,,,,,,,,,556,18,Woman,Right,5,29,0.4,2,0,180,180,0.6709760999992795,['y'],0.31875729999956093,1.766,2498.3419447,,,,,556,18,Woman,Right,
,,,,,,,,,,,,,,,,,556,18,Woman,Right,5,61,0.15,2,0,180,0,1.0650251999995817,['n'],1.17472269999962,1.764,2503.3585667,,,,,556,18,Woman,Right,
,,,,,,,,,,,,,,,,,556,18,Woman,Right,5,58,0.15,1,180,-,180,0.7926224000002549,['y'],0.5106448999995337,1.6320000000000001,2507.5252447,,,,,556,18,Woman,Right,
,,,,,,,,,,,,,,,,,556,18,Woman,Right,5,31,0.4,2,180,0,180,0.6563570999996955,['y'],0.41486110000005283,1.918,2511.1919353999997,,,,,556,18,Woman,Right,
,,,,,,,,,,,,,,,,,556,18,Woman,Right,5,30,0.4,1,180,-,0,1.5325118999999177,['n'],0.3025617000002967,1.338,2515.5252391,,,,,556,18,Woman,Right,
,,,,,,,,,,,,,,,,,556,18,Woman,Right,5,44,0.15,1,0,-,180,0.5778195000002597,['y'],0.3666480000001684,1.3980000000000001,2519.1918597999997,,,,,556,18,Woman,Right,
,,,,,,,,,,,,,,,,,556,18,Woman,Right,5,2,1,1,180,-,180,0.8117530999998053,['y'],1.078671399999621,1.93,2524.3418429,,,,,556,18,Woman,Right,
,,,,,,,,,,,,,,,,,556,18,Woman,Right,5,63,0.15,2,180,0,180,1.1148969999994733,['n'],0.4468810999997004,1.6219999999999999,2528.3918295,,,,,556,18,Woman,Right,
,,,,,,,,,,,,,,,,,556,18,Woman,Right,5,60,0.15,1,0,-,180,1.6571921000004295,['y'],0.5029071999997541,1.608,2533.0418349999995,,,,,556,18,Woman,Right,
,,,,,,,,,,,,,,,,,556,18,Woman,Right,5,54,0.15,1,180,-,0,0.8231243999998696,['y'],1.254706100000476,1.608,2533.0418349999995,,,,,556,18,Woman,Right,
,,,,,,,,,,,,,,,,,556,18,Woman,Right,5,62,0.15,1,180,-,0,0.48643059999994875,['y'],0.4706124999993335,1.604,2541.1917637,,,,,556,18,Woman,Right,
,,,,,,,,,,,,,,,,,556,18,Woman,Right,5,21,0.4,2,0,180,180,1.8609630000000834,['n'],0.2951978999999483,1.5939999999999999,2546.1084743999995,,,,,556,18,Woman,Right,
,,,,,,,,,,,,,,,,,556,18,Woman,Right,5,36,0.4,1,0,-,0,1.6059218999998848,['y'],0.6309182999993936,1.57,2552.3417783,,,,,556,18,Woman,Right,
,,,,,,,,,,,,,,,,,556,18,Woman,Right,5,66,0.15,1,180,-,0,1.5823103000002448,['y'],0.958879299999353,1.674,2557.9917945,,,,,556,18,Woman,Right,
,,,,,,,,,,,,,,,,,556,18,Woman,Right,5,45,0.15,2,0,180,0,0.627013899999838,['y'],1.0308107999999265,1.6320000000000001,2562.2417764999996,,,,,556,18,Woman,Right,
,,,,,,,,,,,,,,,,,556,18,Woman,Right,5,43,0.4,2,180,0,0,1.1168072999998913,['y'],0.9508744000004299,1.8439999999999999,2566.5082387999996,,,,,556,18,Woman,Right,
,,,,,,,,,,,,,,,,,556,18,Woman,Right,5,39,0.4,2,180,0,180,1.8909919000006994,['y'],1.8548585999997158,1.176,2572.5584217,,,,,556,18,Woman,Right,
,,,,,,,,,,,,,,,,,556,18,Woman,Right,5,48,0.15,1,0,-,0,0.5442224999997052,['y'],0.8069355999996333,1.28,2576.3750576999996,,,,,556,18,Woman,Right,
,,,,,,,,,,,,,,,,,556,18,Woman,Right,5,7,1,2,180,0,0,0.6789495999992141,['y'],0.8151495000001887,2.0,2580.2250658999997,,,,,556,18,Woman,Right,
,,,,,,,,,,,,,,,,,556,18,Woman,Right,5,72,0.15,1,0,-,0,1.6073703000001842,['y'],0.7271235999996861,2.0,2580.2250658999997,,,,,556,18,Woman,Right,
,,,,,,,,,,,,,,,,,556,18,Woman,Right,5,50,0.15,1,180,-,180,0.7543071999998574,['y'],0.35070790000008856,1.6520000000000001,2588.0749241,,,,,556,18,Woman,Right,
,,,,,,,,,,,,,,,,,556,18,Woman,Right,5,53,0.15,2,0,180,0,1.4129095999996935,['y'],1.3348908999996638,1.764,2593.258255,,,,,556,18,Woman,Right,
,,,,,,,,,,,,,,,,,556,18,Woman,Right,5,71,0.15,2,180,0,180,0.4995275000001129,['y'],0.24688359999981913,1.63,2596.4249529000003,,,,,556,18,Woman,Right,
,,,,,,,,,,,,,,,,,556,18,Woman,Right,5,73,0.15,2,0,180,0,0.7833604999996169,['y'],0.2889701000003697,1.572,2599.8416491000003,,,,,556,18,Woman,Right,
,,,,,,,,,,,,,,,,,556,18,Woman,Right,5,79,0.15,2,180,0,0,0.8034907999999632,['y'],1.814973600000485,1.68,2604.9082855,,,,,556,18,Woman,Right,
,,,,,,,,,,,,,,,,,556,18,Woman,Right,5,27,0.4,2,180,0,0,0.4761862999994264,['y'],0.6628693000002386,1.806,2608.2082766,,,,,556,18,Woman,Right,
,,,,,,,,,,,,,,,,,556,18,Woman,Right,5,15,0.4,2,180,0,0,0.5600260999999591,['y'],0.26300179999998363,1.6680000000000001,2611.2248883999996,,,,,556,18,Woman,Right,
,,,,,,,,,,,,,,,,,556,18,Woman,Right,5,20,0.4,1,0,-,180,0.47619440000016766,['y'],0.6147406999998566,1.742,2614.4749655,,,,,556,18,Woman,Right,
,,,,,,,,,,,,,,,,,556,18,Woman,Right,5,64,0.15,1,0,-,0,1.6966228000001138,['y'],0.41479680000065855,1.28,2619.22493,,,,,556,18,Woman,Right,
,,,,,,,,,,,,,,,,,,,,,,,,,,,,,,,,,51.25,35.0,70.0,2211.24587,,,,,
