p_block,p_section,p_coherence,p_direction1,p_direction2,p_direction_response,p_direction_RT,p_change_response,p_change_RT,p_confidence,p_full_correct,p_without5_correct,p_full_total,p_without5_total,p_full_avg,p_witout5_avg,p_total_time,sub,age,sex,handedness,loop,trial randomization,coherence,condition,direction1,direction2,direction_response,direction_RT,change_response,change_RT,change_confidence,change_confidence_RT,block_direction_avg,block_stable_avg,block_change_avg,total_time,sub,age,sex,handedness,
1,1,1.0,0,-,0,0.4456452000013087,-,-,-,,,,,,,,501,19,Woman,Right,,,,,,,,,,,,,,,,,501,19,Woman,Right,
1,1,1.0,0,-,0,1.8781210999986797,-,-,-,,,,,,,,501,19,Woman,Right,,,,,,,,,,,,,,,,,501,19,Woman,Right,
1,1,1.0,180,-,180,0.3341083000013896,-,-,-,,,,,,,,501,19,Woman,Right,,,,,,,,,,,,,,,,,501,19,Woman,Right,
1,1,1.0,0,-,0,0.30610490000253776,-,-,-,,,,,,,,501,19,Woman,Right,,,,,,,,,,,,,,,,,501,19,Woman,Right,
1,1,1.0,180,-,180,0.31585199999972247,-,-,-,,,,,,,,501,19,Woman,Right,,,,,,,,,,,,,,,,,501,19,Woman,Right,
1,1,1.0,180,-,180,0.01678389999869978,-,-,-,,,,,,,,501,19,Woman,Right,,,,,,,,,,,,,,,,,501,19,Woman,Right,
1,1,1.0,180,-,180,0.502891100000852,-,-,-,,,,,,,,501,19,Woman,Right,,,,,,,,,,,,,,,,,501,19,Woman,Right,
1,1,1.0,0,-,0,0.5884487000002991,-,-,-,,,,,,,,501,19,Woman,Right,,,,,,,,,,,,,,,,,501,19,Woman,Right,
1,1,1.0,0,-,0,0.2480673999998544,-,-,-,,,,,,,,501,19,Woman,Right,,,,,,,,,,,,,,,,,501,19,Woman,Right,
1,1,1.0,180,-,180,0.4558885999977065,-,-,-,10,10,10,10,1.0,1.0,,501,19,Woman,Right,,,,,,,,,,,,,,,,,501,19,Woman,Right,
2,1,0.15,180,-,0,0.809405500000139,-,-,-,,,,,,,,501,19,Woman,Right,,,,,,,,,,,,,,,,,501,19,Woman,Right,
2,1,0.4,0,-,0,0.37078989999645273,-,-,-,,,,,,,,501,19,Woman,Right,,,,,,,,,,,,,,,,,501,19,Woman,Right,
2,1,0.4,180,-,180,0.48669109999900684,-,-,-,,,,,,,,501,19,Woman,Right,,,,,,,,,,,,,,,,,501,19,Woman,Right,
2,1,0.15,180,-,180,0.6366693999989366,-,-,-,,,,,,,,501,19,Woman,Right,,,,,,,,,,,,,,,,,501,19,Woman,Right,
2,1,0.4,0,-,0,0.31738819999736734,-,-,-,,,,,,,,501,19,Woman,Right,,,,,,,,,,,,,,,,,501,19,Woman,Right,
2,1,0.4,180,-,180,0.3869892999973672,-,-,-,,,,,,,,501,19,Woman,Right,,,,,,,,,,,,,,,,,501,19,Woman,Right,
2,1,0.15,0,-,0,0.28586599999835016,-,-,-,,,,,,,,501,19,Woman,Right,,,,,,,,,,,,,,,,,501,19,Woman,Right,
2,1,0.15,0,-,0,0.292470600001252,-,-,-,,,,,,,,501,19,Woman,Right,,,,,,,,,,,,,,,,,501,19,Woman,Right,
2,1,0.15,180,-,180,0.2917048999988765,-,-,-,,,,,,,,501,19,Woman,Right,,,,,,,,,,,,,,,,,501,19,Woman,Right,
2,1,0.15,180,-,180,0.3703705000007176,-,-,-,9,4,10,4,0.9,1.0,,501,19,Woman,Right,,,,,,,,,,,,,,,,,501,19,Woman,Right,
3,2,1.0,180,0,0,1.2336942000001727,['y'],2.184677200002625,1.992,,,,,,,,501,19,Woman,Right,,,,,,,,,,,,,,,,,501,19,Woman,Right,
3,2,1.0,0,180,180,0.7525096999997913,['y'],0.28330759999880684,1.966,,,,,,,,501,19,Woman,Right,,,,,,,,,,,,,,,,,501,19,Woman,Right,
3,2,1.0,0,180,180,0.6538259999979346,['y'],0.5333638000010978,1.966,,,,,,,,501,19,Woman,Right,,,,,,,,,,,,,,,,,501,19,Woman,Right,
3,2,1.0,0,180,180,0.6690473999988171,['y'],1.3473325999984809,1.978,,,,,,,,501,19,Woman,Right,,,,,,,,,,,,,,,,,501,19,Woman,Right,
3,2,1.0,180,0,0,0.5673172000024351,['y'],0.46690289999969536,1.97,,,,,,,,501,19,Woman,Right,,,,,,,,,,,,,,,,,501,19,Woman,Right,
3,2,1.0,0,180,180,0.7102737999994133,['y'],0.37218880000000354,1.974,,,,,,,,501,19,Woman,Right,,,,,,,,,,,,,,,,,501,19,Woman,Right,
3,2,1.0,180,0,0,0.4332479000004241,['y'],0.8493575000029523,1.95,,,,,,,,501,19,Woman,Right,,,,,,,,,,,,,,,,,501,19,Woman,Right,
3,2,1.0,0,180,180,0.6077250000016647,['y'],0.801296600002388,1.962,,,,,,,,501,19,Woman,Right,,,,,,,,,,,,,,,,,501,19,Woman,Right,
3,2,1.0,180,0,0,0.3165818000015861,['y'],0.2669402999999875,1.962,,,,,,,,501,19,Woman,Right,,,,,,,,,,,,,,,,,501,19,Woman,Right,
3,2,1.0,0,180,180,0.39662529999986873,['y'],0.28007390000129817,1.962,10,10,10,10,1.0,1.0,,501,19,Woman,Right,,,,,,,,,,,,,,,,,501,19,Woman,Right,
4,2,0.4,0,180,180,0.9658041000002413,['y'],0.6984563000005437,1.92,,,,,,,,501,19,Woman,Right,,,,,,,,,,,,,,,,,501,19,Woman,Right,
4,2,0.15,180,0,0,1.2758196000031603,['y'],0.7867757999993046,1.612,,,,,,,,501,19,Woman,Right,,,,,,,,,,,,,,,,,501,19,Woman,Right,
4,2,0.4,0,180,180,0.6839356999989832,['y'],0.33093409999855794,1.698,,,,,,,,501,19,Woman,Right,,,,,,,,,,,,,,,,,501,19,Woman,Right,
4,2,0.4,0,180,180,0.49983029999930295,['y'],0.5775222999982361,1.6560000000000001,,,,,,,,501,19,Woman,Right,,,,,,,,,,,,,,,,,501,19,Woman,Right,
4,2,0.4,0,180,180,0.3505565999985265,['y'],0.28261229999770876,1.926,,,,,,,,501,19,Woman,Right,,,,,,,,,,,,,,,,,501,19,Woman,Right,
4,2,0.4,0,180,180,0.43482679999942775,['y'],0.29065540000010515,1.914,,,,,,,,501,19,Woman,Right,,,,,,,,,,,,,,,,,501,19,Woman,Right,
4,2,0.15,0,180,180,0.42685569999957806,['y'],0.2768666000010853,1.93,,,,,,,,501,19,Woman,Right,,,,,,,,,,,,,,,,,501,19,Woman,Right,
4,2,0.4,0,180,180,0.32691630000044825,['y'],0.21253259999866714,1.776,,,,,,,,501,19,Woman,Right,,,,,,,,,,,,,,,,,501,19,Woman,Right,
4,2,0.4,0,180,180,0.5198010000021895,['y'],0.7010361000029661,1.818,,,,,,,,501,19,Woman,Right,,,,,,,,,,,,,,,,,501,19,Woman,Right,
4,2,0.4,0,180,180,0.33141780000005383,['y'],0.7598699999980454,1.8599999999999999,10,8,10,8,1.0,1.0,,501,19,Woman,Right,,,,,,,,,,,,,,,,,501,19,Woman,Right,
5,3,1.0,0,180,180,0.5453525000011723,['y'],1.6702617999981157,1.962,,,,,,,,501,19,Woman,Right,,,,,,,,,,,,,,,,,501,19,Woman,Right,
5,3,0.4,0,-,0,1.816708700000163,['n'],0.3038479999995616,1.708,,,,,,,,501,19,Woman,Right,,,,,,,,,,,,,,,,,501,19,Woman,Right,
5,3,0.4,180,0,0,0.5422308000015619,['y'],0.2664422999987437,1.892,,,,,,,,501,19,Woman,Right,,,,,,,,,,,,,,,,,501,19,Woman,Right,
5,3,1.0,180,0,0,0.6041035999987798,['y'],0.22269389999928535,1.9020000000000001,,,,,,,,501,19,Woman,Right,,,,,,,,,,,,,,,,,501,19,Woman,Right,
5,3,0.15,180,0,180,0.5585256999984267,['n'],1.2425479000012274,1.212,,,,,,,,501,19,Woman,Right,,,,,,,,,,,,,,,,,501,19,Woman,Right,
5,3,0.15,0,180,180,0.970329200001288,['y'],0.302163099997415,1.58,,,,,,,,501,19,Woman,Right,,,,,,,,,,,,,,,,,501,19,Woman,Right,
5,3,1.0,0,-,0,0.7103888000019651,['n'],0.23676849999901606,1.7,,,,,,,,501,19,Woman,Right,,,,,,,,,,,,,,,,,501,19,Woman,Right,
5,3,1.0,0,-,0,0.983071700000437,['n'],0.2337958999996772,1.706,,,,,,,,501,19,Woman,Right,,,,,,,,,,,,,,,,,501,19,Woman,Right,
5,3,1.0,0,180,180,0.39498160000221105,['y'],0.23037470000053872,1.718,,,,,,,,501,19,Woman,Right,,,,,,,,,,,,,,,,,501,19,Woman,Right,
5,3,0.4,180,0,0,0.43709820000003674,['y'],0.24685390000013285,1.718,9,8,10,8,0.9,1.0,,501,19,Woman,Right,,,,,,,,,,,,,,,,,501,19,Woman,Right,
,,,,,,,,,,,,,,,,3.899996954714879e-06,501,19,Woman,Right,,,,,,,,,,,,,,,,,501,19,Woman,Right,
,,,,,,,,,,,,,,,,,501,19,Woman,Right,0,65,0.15,2,0,180,0,0.5034726999983832,['n'],2.6471855999989202,1.328,280.21697309999945,,,,,501,19,Woman,Right,
,,,,,,,,,,,,,,,,,501,19,Woman,Right,0,74,0.15,1,180,-,180,0.7353447000023152,['n'],1.0306445999995049,1.44,285.91611360000024,,,,,501,19,Woman,Right,
,,,,,,,,,,,,,,,,,501,19,Woman,Right,0,6,1,1,180,-,180,0.9279475000003004,['n'],1.318834000001516,1.808,292.1328347000017,,,,,501,19,Woman,Right,
,,,,,,,,,,,,,,,,,501,19,Woman,Right,0,75,0.15,2,180,0,180,0.7630007000007026,['n'],0.8710782000016479,1.688,296.73351320000074,,,,,501,19,Woman,Right,
,,,,,,,,,,,,,,,,,501,19,Woman,Right,0,54,0.15,1,180,-,0,0.33402039999782573,['y'],3.127558999996836,1.616,304.33218639999905,,,,,501,19,Woman,Right,
,,,,,,,,,,,,,,,,,501,19,Woman,Right,0,41,0.4,2,0,180,180,0.7831468000003952,['y'],1.4998501999980363,1.616,310.4153886999993,,,,,501,19,Woman,Right,
,,,,,,,,,,,,,,,,,501,19,Woman,Right,0,20,0.4,1,0,-,0,0.5453565999996499,['n'],0.9353246999999101,1.688,315.74903189999895,,,,,501,19,Woman,Right,
,,,,,,,,,,,,,,,,,501,19,Woman,Right,0,45,0.15,2,0,180,180,0.5580442000027688,['n'],1.2308248000008462,1.572,321.082270400002,,,,,501,19,Woman,Right,
,,,,,,,,,,,,,,,,,501,19,Woman,Right,0,57,0.15,2,0,180,180,0.530394500001421,['n'],1.6788586000002397,1.646,326.3836190000002,,,,,501,19,Woman,Right,
,,,,,,,,,,,,,,,,,501,19,Woman,Right,0,27,0.4,2,180,0,0,0.3963051999999152,['y'],0.8315235000009125,1.842,330.7997080999994,,,,,501,19,Woman,Right,
,,,,,,,,,,,,,,,,,501,19,Woman,Right,0,72,0.15,1,0,-,180,1.0324427000014111,['n'],0.9653336000010313,1.3900000000000001,336.66516870000123,,,,,501,19,Woman,Right,
,,,,,,,,,,,,,,,,,501,19,Woman,Right,0,10,0.4,1,180,-,180,0.5640578999991703,['n'],1.1912383999988378,1.5739999999999998,341.39916240000093,,,,,501,19,Woman,Right,
,,,,,,,,,,,,,,,,,501,19,Woman,Right,0,76,0.15,1,0,-,0,3.0660524999984773,['n'],1.5321231999987504,1.62,349.0155851999989,,,,,501,19,Woman,Right,
,,,,,,,,,,,,,,,,,501,19,Woman,Right,0,61,0.15,2,0,180,0,0.4498535000020638,['y'],0.8228699999999662,1.5739999999999998,353.61613209999996,,,,,501,19,Woman,Right,
,,,,,,,,,,,,,,,,,501,19,Woman,Right,0,16,0.4,1,0,-,180,0.9357985999995435,['n'],0.9036216999993485,1.678,358.1992386999991,,,,,501,19,Woman,Right,
,,,,,,,,,,,,,,,,,501,19,Woman,Right,0,4,1,1,0,-,0,0.4875119000025734,['n'],0.8707620999994106,1.85,362.3649671000021,,,,,501,19,Woman,Right,
,,,,,,,,,,,,,,,,,501,19,Woman,Right,0,32,0.4,1,0,-,180,2.0337486999997054,['n'],0.9431930999999167,1.5899999999999999,369.09913380000216,,,,,501,19,Woman,Right,
,,,,,,,,,,,,,,,,,501,19,Woman,Right,0,14,0.4,1,180,-,180,0.34200309999869205,['n'],0.8149349999985134,1.6520000000000001,373.1496446000019,,,,,501,19,Woman,Right,
,,,,,,,,,,,,,,,,,501,19,Woman,Right,0,31,0.4,2,180,0,0,0.6495866000004753,['y'],1.0038925999979256,1.562,378.18285359999936,,,,,501,19,Woman,Right,
,,,,,,,,,,,,,,,,,501,19,Woman,Right,0,59,0.15,2,180,0,0,0.5142077999989851,['y'],0.7037907000012638,1.698,382.13273520000075,,,,,501,19,Woman,Right,
,,,,,,,,,,,,,,,,,501,19,Woman,Right,0,21,0.4,2,0,180,180,0.4482639999987441,['y'],0.5917466999999306,1.688,387.78257529999973,,,,,501,19,Woman,Right,
,,,,,,,,,,,,,,,,,501,19,Woman,Right,0,62,0.15,1,180,-,180,1.088110600001528,['n'],0.855684599999222,1.738,394.6327256000004,,,,,501,19,Woman,Right,
,,,,,,,,,,,,,,,,,501,19,Woman,Right,0,29,0.4,2,0,180,180,0.6603122999986226,['n'],1.7597869000019273,1.7,400.19812230000025,,,,,501,19,Woman,Right,
,,,,,,,,,,,,,,,,,501,19,Woman,Right,0,9,0.4,2,0,180,180,0.3835368000000017,['y'],0.6557480999981635,1.6320000000000001,404.5153090999993,,,,,501,19,Woman,Right,
,,,,,,,,,,,,,,,,,501,19,Woman,Right,0,47,0.15,2,180,0,0,0.6215023000004294,['y'],1.271818199998961,1.728,409.24823900000047,,,,,501,19,Woman,Right,
,,,,,,,,,,,,,,,,,501,19,Woman,Right,0,64,0.15,1,0,-,0,0.4049122999967949,['y'],0.9036895999997796,1.3820000000000001,416.51574510000137,,,,,501,19,Woman,Right,
,,,,,,,,,,,,,,,,,501,19,Woman,Right,0,34,0.4,1,180,-,180,0.6716040999999677,['n'],0.7752961999976833,1.666,422.59926690000066,,,,,501,19,Woman,Right,
,,,,,,,,,,,,,,,,,501,19,Woman,Right,0,18,0.4,1,180,-,180,0.7057520000016666,['n'],1.079076599999098,1.576,428.6826316000006,,,,,501,19,Woman,Right,
,,,,,,,,,,,,,,,,,501,19,Woman,Right,0,0,1,1,0,-,0,0.5479574999990291,['n'],1.0079430999976466,1.728,433.8161617000005,,,,,501,19,Woman,Right,
,,,,,,,,,,,,,,,,,501,19,Woman,Right,0,13,0.4,2,0,180,180,0.4502376999989792,['y'],0.677471200000582,1.686,438.0985146999992,,,,,501,19,Woman,Right,
,,,,,,,,,,,,,,,,,501,19,Woman,Right,0,1,1,2,0,180,180,0.4837657999996736,['y'],1.5272952999985137,1.984,443.01577420000103,,,,,501,19,Woman,Right,
,,,,,,,,,,,,,,,,,501,19,Woman,Right,0,36,0.4,1,0,-,180,0.8327409000012267,['n'],4.587689100000716,1.588,452.56461990000025,,,,,501,19,Woman,Right,
,,,,,,,,,,,,,,,,,501,19,Woman,Right,0,67,0.15,2,180,0,180,1.443137400001433,['n'],1.2712568000024476,1.6640000000000001,457.86513470000136,,,,,501,19,Woman,Right,
,,,,,,,,,,,,,,,,,501,19,Woman,Right,0,11,0.4,2,180,0,0,0.4771030999982031,['y'],0.6958913999987999,1.78,462.365095000001,,,,,501,19,Woman,Right,
,,,,,,,,,,,,,,,,,501,19,Woman,Right,0,26,0.4,1,180,-,180,0.7953414000003249,['n'],0.8561251000028278,1.8519999999999999,467.0478704999987,,,,,501,19,Woman,Right,
,,,,,,,,,,,,,,,,,501,19,Woman,Right,0,68,0.15,1,0,-,0,2.4871354999995674,['n'],1.9591728000013973,1.5819999999999999,475.2660790000009,,,,,501,19,Woman,Right,
,,,,,,,,,,,,,,,,,501,19,Woman,Right,0,42,0.4,1,180,-,180,0.5761499000000185,['n'],0.6639321000002383,1.67,479.61533549999876,,,,,501,19,Woman,Right,
,,,,,,,,,,,,,,,,,501,19,Woman,Right,0,43,0.4,2,180,0,0,0.5659358999982942,['y'],0.6477144000018598,1.654,483.89853120000043,,,,,501,19,Woman,Right,
,,,,,,,,,,,,,,,,,501,19,Woman,Right,0,37,0.4,2,0,180,180,1.272041000000172,['y'],2.472088200000144,1.71,492.58091440000135,,,,,501,19,Woman,Right,
,,,,,,,,,,,,,,,,,501,19,Woman,Right,0,40,0.4,1,0,-,0,1.1590438000021095,['n'],0.7839911999981268,1.68,497.51422939999975,,,,,501,19,Woman,Right,
,,,,,,,,,,,,,,,,,501,19,Woman,Right,0,17,0.4,2,0,180,180,3.000048300000344,['y'],4.215794100000494,1.6520000000000001,507.84775530000115,,,,,501,19,Woman,Right,
,,,,,,,,,,,,,,,,,501,19,Woman,Right,0,66,0.15,1,180,-,0,1.1745818000017607,['n'],1.1759977000001527,1.5739999999999998,514.215039900002,,,,,501,19,Woman,Right,
,,,,,,,,,,,,,,,,,501,19,Woman,Right,0,63,0.15,2,180,0,0,0.5894866999988153,['n'],0.7116933999968751,1.716,518.5313280000009,,,,,501,19,Woman,Right,
,,,,,,,,,,,,,,,,,501,19,Woman,Right,0,19,0.4,2,180,0,180,1.1539789999987988,['n'],1.4721530999995593,1.718,524.5973895999996,,,,,501,19,Woman,Right,
,,,,,,,,,,,,,,,,,501,19,Woman,Right,0,79,0.15,2,180,0,180,1.305134000001999,['n'],2.47953779999807,1.226,531.3484339999995,,,,,501,19,Woman,Right,
,,,,,,,,,,,,,,,,,501,19,Woman,Right,0,30,0.4,1,180,-,180,0.5716933000003337,['n'],1.1594838999990316,1.58,536.6817021999996,,,,,501,19,Woman,Right,
,,,,,,,,,,,,,,,,,501,19,Woman,Right,0,51,0.15,2,180,0,0,0.6164812999995775,['n'],3.4482889999999315,1.58,543.0978605000018,,,,,501,19,Woman,Right,
,,,,,,,,,,,,,,,,,501,19,Woman,Right,0,70,0.15,1,180,-,180,0.8900652000011178,['n'],1.000115900002129,1.62,548.9974169000016,,,,,501,19,Woman,Right,
,,,,,,,,,,,,,,,,,501,19,Woman,Right,0,28,0.4,1,0,-,0,0.41344780000144965,['n'],0.9841637999998056,1.554,552.9815005000019,,,,,501,19,Woman,Right,
,,,,,,,,,,,,,,,,,501,19,Woman,Right,0,25,0.4,2,0,180,180,0.5246908000008261,['n'],0.6482030999977724,1.612,557.2147354000008,,,,,501,19,Woman,Right,
,,,,,,,,,,,,,,,,,501,19,Woman,Right,0,78,0.15,1,180,-,180,0.674433100000897,['n'],0.7997805999984848,1.546,561.731532400001,,,,,501,19,Woman,Right,
,,,,,,,,,,,,,,,,,501,19,Woman,Right,0,15,0.4,2,180,0,0,0.4191285999986576,['y'],1.7520507000008365,1.744,567.5977586000008,,,,,501,19,Woman,Right,
,,,,,,,,,,,,,,,,,501,19,Woman,Right,0,58,0.15,1,180,-,180,0.673096099999384,['n'],0.768177599999035,1.384,572.5480456000005,,,,,501,19,Woman,Right,
,,,,,,,,,,,,,,,,,501,19,Woman,Right,0,60,0.15,1,0,-,0,0.5255341000010958,['n'],1.2881717999989633,1.6019999999999999,578.2645999999986,,,,,501,19,Woman,Right,
,,,,,,,,,,,,,,,,,501,19,Woman,Right,0,50,0.15,1,180,-,180,0.6342302000011841,['n'],1.0157402999975602,1.5739999999999998,583.8979846000002,,,,,501,19,Woman,Right,
,,,,,,,,,,,,,,,,,501,19,Woman,Right,0,48,0.15,1,0,-,180,0.6667314000005717,['n'],1.2238966000004439,1.322,588.9309257999994,,,,,501,19,Woman,Right,
,,,,,,,,,,,,,,,,,501,19,Woman,Right,0,49,0.15,2,0,180,180,0.35762119999708375,['n'],2.2004588000017975,1.6099999999999999,594.964310899999,,,,,501,19,Woman,Right,
,,,,,,,,,,,,,,,,,501,19,Woman,Right,0,53,0.15,2,0,180,0,2.796431599999778,['n'],1.4881642000000284,1.268,603.097456800002,,,,,501,19,Woman,Right,
,,,,,,,,,,,,,,,,,501,19,Woman,Right,0,38,0.4,1,180,-,180,0.5900712000002386,['n'],1.4960232999983418,1.698,608.6471300000012,,,,,501,19,Woman,Right,
,,,,,,,,,,,,,,,,,501,19,Woman,Right,0,52,0.15,1,0,-,180,0.7034204999981739,['n'],1.0963584000019182,1.572,614.8138755,,,,,501,19,Woman,Right,
,,,,,,,,,,,,,,,,,501,19,Woman,Right,0,24,0.4,1,0,-,0,0.3368263000011211,['n'],1.8316632000023674,1.68,619.9305776000001,,,,,501,19,Woman,Right,
,,,,,,,,,,,,,,,,,501,19,Woman,Right,0,46,0.15,1,180,-,180,1.6284200999980385,['n'],1.4166304999998829,1.412,626.2964256000014,,,,,501,19,Woman,Right,
,,,,,,,,,,,,,,,,,501,19,Woman,Right,0,44,0.15,1,0,-,0,1.4055191999977978,['n'],2.919880599998578,1.592,633.4476470000009,,,,,501,19,Woman,Right,
,,,,,,,,,,,,,,,,,501,19,Woman,Right,0,73,0.15,2,0,180,180,1.5374079000030179,['n'],0.872594599997683,1.294,639.3965501999992,,,,,501,19,Woman,Right,
,,,,,,,,,,,,,,,,,501,19,Woman,Right,0,39,0.4,2,180,0,0,1.223007000000507,['y'],0.9282983000011882,1.562,644.7135277999987,,,,,501,19,Woman,Right,
,,,,,,,,,,,,,,,,,501,19,Woman,Right,0,5,1,2,0,180,180,0.4460297999976319,['y'],1.3205291000012949,1.6139999999999999,650.4807643999993,,,,,501,19,Woman,Right,
,,,,,,,,,,,,,,,,,501,19,Woman,Right,0,69,0.15,2,0,180,180,1.038448999999673,['n'],1.1921733999988646,1.604,655.7969634000001,,,,,501,19,Woman,Right,
,,,,,,,,,,,,,,,,,501,19,Woman,Right,0,23,0.4,2,180,0,0,0.3506407999993826,['y'],1.6478866000034031,1.712,661.446764700002,,,,,501,19,Woman,Right,
,,,,,,,,,,,,,,,,,501,19,Woman,Right,0,22,0.4,1,180,-,0,0.6625040999970224,['y'],1.0404698999991524,1.6019999999999999,665.9794318999993,,,,,501,19,Woman,Right,
,,,,,,,,,,,,,,,,,501,19,Woman,Right,0,3,1,2,180,0,0,0.40691380000134814,['y'],1.10385860000315,1.624,670.3473266000001,,,,,501,19,Woman,Right,
,,,,,,,,,,,,,,,,,501,19,Woman,Right,0,2,1,1,180,-,180,0.7262838999995438,['n'],0.8158658000029391,1.556,674.830684200002,,,,,501,19,Woman,Right,
,,,,,,,,,,,,,,,,,501,19,Woman,Right,0,71,0.15,2,180,0,0,1.3854582000021765,['n'],0.8080214000001433,1.65,679.8976426000008,,,,,501,19,Woman,Right,
,,,,,,,,,,,,,,,,,501,19,Woman,Right,0,55,0.15,2,180,0,180,0.910833999998431,['n'],3.352787600000738,1.71,687.3799278000006,,,,,501,19,Woman,Right,
,,,,,,,,,,,,,,,,,501,19,Woman,Right,0,77,0.15,2,0,180,0,1.082142200000817,['n'],0.7760047999981907,1.558,692.3292832000006,,,,,501,19,Woman,Right,
,,,,,,,,,,,,,,,,,501,19,Woman,Right,0,56,0.15,1,0,-,0,0.4740734999977576,['n'],0.7360447999999451,1.616,696.1962707999992,,,,,501,19,Woman,Right,
,,,,,,,,,,,,,,,,,501,19,Woman,Right,0,12,0.4,1,0,-,180,1.774314599999343,['n'],0.8559405999985756,1.396,701.997471900002,,,,,501,19,Woman,Right,
,,,,,,,,,,,,,,,,,501,19,Woman,Right,0,35,0.4,2,180,0,0,0.9467966999982309,['n'],2.1922932000015862,1.56,708.0630655999994,,,,,501,19,Woman,Right,
,,,,,,,,,,,,,,,,,501,19,Woman,Right,0,8,0.4,1,0,-,0,0.4977238000028592,['n'],3.0242313999988255,1.564,714.4964968999993,,,,,501,19,Woman,Right,
,,,,,,,,,,,,,,,,,501,19,Woman,Right,0,7,1,2,180,0,0,0.5764450999995461,['y'],0.8728057999978773,1.6280000000000001,719.296979900002,,,,,501,19,Woman,Right,
,,,,,,,,,,,,,,,,,501,19,Woman,Right,0,33,0.4,2,0,180,180,0.9003869000007398,['y'],1.211399399999209,1.77,724.9132600000012,,,,,501,19,Woman,Right,
,,,,,,,,,,,,,,,,,501,19,Woman,Right,1,64,0.15,1,0,-,0,1.9421588000004704,['n'],4.840934799998649,1.6600000000000001,747.112243800002,76.25,92.5,52.5,,501,19,Woman,Right,
,,,,,,,,,,,,,,,,,501,19,Woman,Right,1,75,0.15,2,180,0,180,1.117431700000452,['n'],1.280364300000656,1.624,752.3300922000017,,,,,501,19,Woman,Right,
,,,,,,,,,,,,,,,,,501,19,Woman,Right,1,22,0.4,1,180,-,180,0.7300341999980446,['n'],1.6722053000012238,1.6560000000000001,758.6797503000016,,,,,501,19,Woman,Right,
,,,,,,,,,,,,,,,,,501,19,Woman,Right,1,70,0.15,1,180,-,180,0.8181765000008454,['n'],0.8328774000001431,1.6560000000000001,762.7465023000004,,,,,501,19,Woman,Right,
,,,,,,,,,,,,,,,,,501,19,Woman,Right,1,8,0.4,1,0,-,0,0.5588645999996515,['n'],0.7930202999996254,1.6560000000000001,766.6797976000016,,,,,501,19,Woman,Right,
,,,,,,,,,,,,,,,,,501,19,Woman,Right,1,20,0.4,1,0,-,0,0.747426900001301,['n'],0.6890047999986564,1.6560000000000001,770.4954383000004,,,,,501,19,Woman,Right,
,,,,,,,,,,,,,,,,,501,19,Woman,Right,1,26,0.4,1,180,-,180,4.6638710999977775,['n'],2.2808986000018194,1.6560000000000001,780.0296965000016,,,,,501,19,Woman,Right,
,,,,,,,,,,,,,,,,,501,19,Woman,Right,1,72,0.15,1,0,-,0,1.9197341999970376,['y'],0.7523338999999396,1.318,785.8125342000021,,,,,501,19,Woman,Right,
,,,,,,,,,,,,,,,,,501,19,Woman,Right,1,55,0.15,2,180,0,180,1.1011782999994466,['n'],1.1288099999983388,1.54,790.7962970000008,,,,,501,19,Woman,Right,
,,,,,,,,,,,,,,,,,501,19,Woman,Right,1,54,0.15,1,180,-,0,1.5250584000023082,['n'],2.112388400000782,1.112,799.0129048000017,,,,,501,19,Woman,Right,
,,,,,,,,,,,,,,,,,501,19,Woman,Right,1,60,0.15,1,0,-,180,1.5764092999997956,['y'],2.616840900001989,1.428,806.4623624999986,,,,,501,19,Woman,Right,
,,,,,,,,,,,,,,,,,501,19,Woman,Right,1,40,0.4,1,0,-,180,1.9585332999995444,['y'],2.753019400002813,1.428,806.4623624999986,,,,,501,19,Woman,Right,
,,,,,,,,,,,,,,,,,501,19,Woman,Right,1,38,0.4,1,180,-,180,0.6925423000029696,['n'],1.1212755999986257,1.6640000000000001,820.7460018999991,,,,,501,19,Woman,Right,
,,,,,,,,,,,,,,,,,501,19,Woman,Right,1,66,0.15,1,180,-,180,1.9127107999993314,['n'],1.0404621999987285,1.6179999999999999,826.8787360999995,,,,,501,19,Woman,Right,
,,,,,,,,,,,,,,,,,501,19,Woman,Right,1,11,0.4,2,180,0,0,1.0636209000003873,['y'],1.4331631999993988,1.6179999999999999,831.9620843000012,,,,,501,19,Woman,Right,
,,,,,,,,,,,,,,,,,501,19,Woman,Right,1,61,0.15,2,0,180,180,0.5637145000000601,['n'],0.8252256999985548,1.6179999999999999,835.9290715999996,,,,,501,19,Woman,Right,
,,,,,,,,,,,,,,,,,501,19,Woman,Right,1,3,1,2,180,0,0,0.40939630000139005,['y'],2.337436699999671,1.6680000000000001,841.5625250000012,,,,,501,19,Woman,Right,
,,,,,,,,,,,,,,,,,501,19,Woman,Right,1,33,0.4,2,0,180,180,0.6990838999990956,['n'],1.6995532000000821,1.786,848.0622470999988,,,,,501,19,Woman,Right,
,,,,,,,,,,,,,,,,,501,19,Woman,Right,1,30,0.4,1,180,-,180,0.6174967000006291,['n'],0.7291583999976865,1.776,852.2127098000019,,,,,501,19,Woman,Right,
,,,,,,,,,,,,,,,,,501,19,Woman,Right,1,52,0.15,1,0,-,180,1.0435144000002765,['n'],0.7693169999984093,1.716,856.8629508000013,,,,,501,19,Woman,Right,
,,,,,,,,,,,,,,,,,501,19,Woman,Right,1,69,0.15,2,0,180,0,0.48108270000011544,['n'],1.1368791999993846,1.714,861.0625311000003,,,,,501,19,Woman,Right,
,,,,,,,,,,,,,,,,,501,19,Woman,Right,1,58,0.15,1,180,-,180,0.7060012000001734,['n'],0.825396099997306,1.786,865.4615739000001,,,,,501,19,Woman,Right,
,,,,,,,,,,,,,,,,,501,19,Woman,Right,1,17,0.4,2,0,180,0,0.7289081999988412,['n'],2.129356600002211,1.786,870.9454579000012,,,,,501,19,Woman,Right,
,,,,,,,,,,,,,,,,,501,19,Woman,Right,1,23,0.4,2,180,0,0,0.3159242000001541,['n'],0.9612087999994401,1.8479999999999999,875.6117919999997,,,,,501,19,Woman,Right,
,,,,,,,,,,,,,,,,,501,19,Woman,Right,1,53,0.15,2,0,180,180,0.8376229000023159,['n'],0.6567666000009922,1.888,879.9785087000018,,,,,501,19,Woman,Right,
,,,,,,,,,,,,,,,,,501,19,Woman,Right,1,65,0.15,2,0,180,0,0.8306526000014856,['n'],0.8730261999990034,1.884,884.4619475,,,,,501,19,Woman,Right,
,,,,,,,,,,,,,,,,,501,19,Woman,Right,1,43,0.4,2,180,0,0,0.3891375999992306,['n'],0.6806612999971549,1.22,889.7287692999998,,,,,501,19,Woman,Right,
,,,,,,,,,,,,,,,,,501,19,Woman,Right,1,10,0.4,1,180,-,180,0.6860663000006753,['n'],2.321323600001051,1.72,896.3453957999991,,,,,501,19,Woman,Right,
,,,,,,,,,,,,,,,,,501,19,Woman,Right,1,45,0.15,2,0,180,0,0.6166516999983287,['n'],0.5929773999996542,1.672,900.1946175000012,,,,,501,19,Woman,Right,
,,,,,,,,,,,,,,,,,501,19,Woman,Right,1,59,0.15,2,180,0,180,1.286171199997625,['n'],0.4568744999996852,1.638,904.5452105000004,,,,,501,19,Woman,Right,
,,,,,,,,,,,,,,,,,501,19,Woman,Right,1,49,0.15,2,0,180,0,1.687393100000918,['n'],1.0252576999992016,1.638,909.7442754000003,,,,,501,19,Woman,Right,
,,,,,,,,,,,,,,,,,501,19,Woman,Right,1,37,0.4,2,0,180,180,1.0294904999973369,['n'],1.4332844999989902,1.6019999999999999,915.2634280999991,,,,,501,19,Woman,Right,
,,,,,,,,,,,,,,,,,501,19,Woman,Right,1,25,0.4,2,0,180,0,0.8340436999969825,['y'],1.1048069999997097,1.424,920.6623476999994,,,,,501,19,Woman,Right,
,,,,,,,,,,,,,,,,,501,19,Woman,Right,1,28,0.4,1,0,-,0,0.4817462999999407,['n'],0.7609316999987641,1.6099999999999999,924.7951104000022,,,,,501,19,Woman,Right,
,,,,,,,,,,,,,,,,,501,19,Woman,Right,1,31,0.4,2,180,0,0,0.5977821000014956,['y'],0.8573509999987436,1.804,929.2285431000018,,,,,501,19,Woman,Right,
,,,,,,,,,,,,,,,,,501,19,Woman,Right,1,77,0.15,2,0,180,0,0.3906301999995776,['n'],1.601055200000701,1.768,934.028781699999,,,,,501,19,Woman,Right,
,,,,,,,,,,,,,,,,,501,19,Woman,Right,1,56,0.15,1,0,-,180,0.8079556000011507,['n'],0.5287736999998742,1.638,938.2954482999994,,,,,501,19,Woman,Right,
,,,,,,,,,,,,,,,,,501,19,Woman,Right,1,71,0.15,2,180,0,0,0.5071487000022898,['n'],0.905128300000797,1.6,942.8446005000005,,,,,501,19,Woman,Right,
,,,,,,,,,,,,,,,,,501,19,Woman,Right,1,34,0.4,1,180,-,180,1.0659563000008347,['n'],3.793167900003027,1.786,950.678401600002,,,,,501,19,Woman,Right,
,,,,,,,,,,,,,,,,,501,19,Woman,Right,1,78,0.15,1,180,-,180,0.5470182999997633,['n'],0.993355500002508,1.666,956.0284519999987,,,,,501,19,Woman,Right,
,,,,,,,,,,,,,,,,,501,19,Woman,Right,1,19,0.4,2,180,0,180,1.018356299999141,['n'],2.04150799999843,1.6440000000000001,962.2280513000005,,,,,501,19,Woman,Right,
,,,,,,,,,,,,,,,,,501,19,Woman,Right,1,21,0.4,2,0,180,180,1.142402100002073,['y'],0.9935092000014265,1.5899999999999999,967.8610369999988,,,,,501,19,Woman,Right,
,,,,,,,,,,,,,,,,,501,19,Woman,Right,1,14,0.4,1,180,-,180,0.6285907000019506,['y'],3.481123599998682,1.416,976.4449931999989,,,,,501,19,Woman,Right,
,,,,,,,,,,,,,,,,,501,19,Woman,Right,1,50,0.15,1,180,-,0,0.8377199999995355,['n'],2.0251099999986764,1.572,982.0782722000004,,,,,501,19,Woman,Right,
,,,,,,,,,,,,,,,,,501,19,Woman,Right,1,7,1,2,180,0,0,0.43590190000031726,['y'],1.217642600000545,1.962,986.8773896999992,,,,,501,19,Woman,Right,
,,,,,,,,,,,,,,,,,501,19,Woman,Right,1,73,0.15,2,0,180,180,0.9151243999986036,['y'],1.481069400000706,1.408,993.9288139000018,,,,,501,19,Woman,Right,
,,,,,,,,,,,,,,,,,501,19,Woman,Right,1,39,0.4,2,180,0,0,1.266831099997944,['y'],0.7133858999986842,1.63,998.5786321000014,,,,,501,19,Woman,Right,
,,,,,,,,,,,,,,,,,501,19,Woman,Right,1,79,0.15,2,180,0,180,0.5734565999991901,['n'],2.225866799999494,1.33,1006.6946076999993,,,,,501,19,Woman,Right,
,,,,,,,,,,,,,,,,,501,19,Woman,Right,1,5,1,2,0,180,180,0.5719776999976602,['y'],0.8497950000019046,1.896,1010.8102897999997,,,,,501,19,Woman,Right,
,,,,,,,,,,,,,,,,,501,19,Woman,Right,1,68,0.15,1,0,-,0,0.4527631000019028,['n'],0.8095879000029527,1.756,1015.6284249000018,,,,,501,19,Woman,Right,
,,,,,,,,,,,,,,,,,501,19,Woman,Right,1,4,1,1,0,-,0,0.4081326000014087,['n'],0.793126200002007,1.746,1019.3275484000005,,,,,501,19,Woman,Right,
,,,,,,,,,,,,,,,,,501,19,Woman,Right,1,2,1,1,180,-,180,0.4325207000001683,['n'],0.7216609999995853,1.884,1024.0942227000014,,,,,501,19,Woman,Right,
,,,,,,,,,,,,,,,,,501,19,Woman,Right,1,18,0.4,1,180,-,180,0.6572995999995328,['n'],1.2971958999987692,1.922,1030.7940275,,,,,501,19,Woman,Right,
,,,,,,,,,,,,,,,,,501,19,Woman,Right,1,76,0.15,1,0,-,0,0.6012612999984412,['n'],0.7292955000011716,1.672,1034.6769752,,,,,501,19,Woman,Right,
,,,,,,,,,,,,,,,,,501,19,Woman,Right,1,36,0.4,1,0,-,0,0.2662443000008352,['n'],0.9883618999992905,1.672,1038.377938900001,,,,,501,19,Woman,Right,
,,,,,,,,,,,,,,,,,501,19,Woman,Right,1,48,0.15,1,0,-,0,0.49556000000302447,['n'],0.6420822999971278,1.672,1042.1608559000015,,,,,501,19,Woman,Right,
,,,,,,,,,,,,,,,,,501,19,Woman,Right,1,0,1,1,0,-,0,0.26959579999675043,['n'],1.4178241999979946,1.834,1046.8941790999997,,,,,501,19,Woman,Right,
,,,,,,,,,,,,,,,,,501,19,Woman,Right,1,57,0.15,2,0,180,0,0.43714990000080434,['n'],1.4095570999998017,1.704,1051.2770308,,,,,501,19,Woman,Right,
,,,,,,,,,,,,,,,,,501,19,Woman,Right,1,15,0.4,2,180,0,0,0.9156537000017124,['y'],0.569812900001125,1.642,1055.310940200001,,,,,501,19,Woman,Right,
,,,,,,,,,,,,,,,,,501,19,Woman,Right,1,47,0.15,2,180,0,180,1.0197394999995595,['n'],0.9860315000005357,1.5859999999999999,1059.9930931000017,,,,,501,19,Woman,Right,
,,,,,,,,,,,,,,,,,501,19,Woman,Right,1,9,0.4,2,0,180,180,0.8477462999981071,['n'],1.5691905000021507,1.326,1065.7107921999996,,,,,501,19,Woman,Right,
,,,,,,,,,,,,,,,,,501,19,Woman,Right,1,44,0.15,1,0,-,0,0.8955112999974517,['n'],0.6575622000018484,1.546,1070.127347900001,,,,,501,19,Woman,Right,
,,,,,,,,,,,,,,,,,501,19,Woman,Right,1,41,0.4,2,0,180,180,1.1968912999982422,['y'],0.6573496999990311,1.55,1075.410609300001,,,,,501,19,Woman,Right,
,,,,,,,,,,,,,,,,,501,19,Woman,Right,1,32,0.4,1,0,-,0,0.550504800001363,['y'],1.4578491000029317,1.588,1081.876632800002,,,,,501,19,Woman,Right,
,,,,,,,,,,,,,,,,,501,19,Woman,Right,1,13,0.4,2,0,180,180,0.6216639999984181,['y'],0.5539328999984718,1.624,1085.726776399999,,,,,501,19,Woman,Right,
,,,,,,,,,,,,,,,,,501,19,Woman,Right,1,29,0.4,2,0,180,180,0.6504055000004882,['y'],0.5935813000032795,1.6600000000000001,1089.6602762000002,,,,,501,19,Woman,Right,
,,,,,,,,,,,,,,,,,501,19,Woman,Right,1,6,1,1,180,-,180,0.5288072000003012,['n'],0.6017329999995127,1.6560000000000001,1093.4766530999987,,,,,501,19,Woman,Right,
,,,,,,,,,,,,,,,,,501,19,Woman,Right,1,74,0.15,1,180,-,180,1.6326153000009072,['n'],1.4562630999971589,1.692,1100.2764099000015,,,,,501,19,Woman,Right,
,,,,,,,,,,,,,,,,,501,19,Woman,Right,1,35,0.4,2,180,0,0,0.5245036000014807,['y'],0.6415116000025591,1.688,1104.0103937000022,,,,,501,19,Woman,Right,
,,,,,,,,,,,,,,,,,501,19,Woman,Right,1,24,0.4,1,0,-,180,0.7200724999966042,['n'],1.090046400000574,1.738,1108.5775496999995,,,,,501,19,Woman,Right,
,,,,,,,,,,,,,,,,,501,19,Woman,Right,1,51,0.15,2,180,0,0,0.6148758999988786,['n'],0.8739733000002161,1.912,1112.8607935,,,,,501,19,Woman,Right,
,,,,,,,,,,,,,,,,,501,19,Woman,Right,1,62,0.15,1,180,-,180,0.5379888999996183,['n'],1.3382698000023083,1.6480000000000001,1117.8096592000002,,,,,501,19,Woman,Right,
,,,,,,,,,,,,,,,,,501,19,Woman,Right,1,12,0.4,1,0,-,0,0.47919249999904423,['n'],4.226108700000623,1.566,1127.1259866,,,,,501,19,Woman,Right,
,,,,,,,,,,,,,,,,,501,19,Woman,Right,1,1,1,2,0,180,180,0.7738811000017449,['y'],0.7777844999982335,1.986,1131.5100319000012,,,,,501,19,Woman,Right,
,,,,,,,,,,,,,,,,,501,19,Woman,Right,1,42,0.4,1,180,-,180,0.6816923000005772,['n'],2.0258834999985993,1.8599999999999999,1136.7604380000012,,,,,501,19,Woman,Right,
,,,,,,,,,,,,,,,,,501,19,Woman,Right,1,46,0.15,1,180,-,180,0.5382853000010073,['n'],0.9862320000029285,1.6520000000000001,1141.0426162000003,,,,,501,19,Woman,Right,
,,,,,,,,,,,,,,,,,501,19,Woman,Right,1,67,0.15,2,180,0,0,1.332430900001782,['y'],0.5875820999972348,1.6520000000000001,1145.7102381000004,,,,,501,19,Woman,Right,
,,,,,,,,,,,,,,,,,501,19,Woman,Right,1,16,0.4,1,0,-,0,0.6263494999984687,['n'],2.1304088000033516,1.6520000000000001,1150.9431826,,,,,501,19,Woman,Right,
,,,,,,,,,,,,,,,,,501,19,Woman,Right,1,27,0.4,2,180,0,0,0.43266939999739407,['y'],0.5462225000010221,1.5739999999999998,1154.6101208,,,,,501,19,Woman,Right,
,,,,,,,,,,,,,,,,,501,19,Woman,Right,1,63,0.15,2,180,0,180,1.4961934999992081,['n'],0.8094836999989639,1.426,1160.7597354999998,,,,,501,19,Woman,Right,
,,,,,,,,,,,,,,,,,501,19,Woman,Right,2,71,0.15,2,180,0,0,0.5077214000011736,['n'],1.2897014999980456,1.57,1172.7088917,72.5,87.5,42.5,,501,19,Woman,Right,
,,,,,,,,,,,,,,,,,501,19,Woman,Right,2,39,0.4,2,180,0,0,0.48679339999944204,['y'],0.6821155000034196,1.624,1176.559195599999,,,,,501,19,Woman,Right,
,,,,,,,,,,,,,,,,,501,19,Woman,Right,2,59,0.15,2,180,0,180,0.4676751000006334,['n'],0.8420210000003863,1.778,1180.6931718999986,,,,,501,19,Woman,Right,
,,,,,,,,,,,,,,,,,501,19,Woman,Right,2,76,0.15,1,0,-,0,0.46105700000043726,['n'],0.6983278000006976,1.708,1184.393140100001,,,,,501,19,Woman,Right,
,,,,,,,,,,,,,,,,,501,19,Woman,Right,2,44,0.15,1,0,-,0,0.4177001000025484,['n'],0.6024151000019629,1.662,1187.9935341000019,,,,,501,19,Woman,Right,
,,,,,,,,,,,,,,,,,501,19,Woman,Right,2,28,0.4,1,0,-,0,0.9626042999989295,['n'],0.5855641000016476,1.62,1191.9931058000002,,,,,501,19,Woman,Right,
,,,,,,,,,,,,,,,,,501,19,Woman,Right,2,46,0.15,1,180,-,180,0.3192845000012312,['n'],0.6498691000015242,1.596,1195.7928205999997,,,,,501,19,Woman,Right,
,,,,,,,,,,,,,,,,,501,19,Woman,Right,2,47,0.15,2,180,0,0,0.7133866000003763,['y'],0.5943226999988838,1.6520000000000001,1199.9598422999989,,,,,501,19,Woman,Right,
,,,,,,,,,,,,,,,,,501,19,Woman,Right,2,18,0.4,1,180,-,0,0.6440660000007483,['y'],2.50642329999755,1.716,1206.1266130000004,,,,,501,19,Woman,Right,
,,,,,,,,,,,,,,,,,501,19,Woman,Right,2,64,0.15,1,0,-,0,0.380442600002425,['y'],1.3782033999996202,1.6179999999999999,1210.975794599999,,,,,501,19,Woman,Right,
,,,,,,,,,,,,,,,,,501,19,Woman,Right,2,49,0.15,2,0,180,180,0.7901806999980181,['n'],0.7304608000013104,1.442,1216.4932407000015,,,,,501,19,Woman,Right,
,,,,,,,,,,,,,,,,,501,19,Woman,Right,2,11,0.4,2,180,0,180,0.9481822000016109,['n'],1.1064072999979544,1.426,1221.408903800002,,,,,501,19,Woman,Right,
,,,,,,,,,,,,,,,,,501,19,Woman,Right,2,21,0.4,2,0,180,180,0.6006540999987919,['y'],0.7544492999986687,1.6560000000000001,1225.5259329,,,,,501,19,Woman,Right,
,,,,,,,,,,,,,,,,,501,19,Woman,Right,2,4,1,1,0,-,0,0.36493089999930817,['y'],1.1464992000001075,1.042,1231.8095983999992,,,,,501,19,Woman,Right,
,,,,,,,,,,,,,,,,,501,19,Woman,Right,2,9,0.4,2,0,180,180,2.0011377000009816,['y'],0.3703142999984266,1.6,1237.825719200002,,,,,501,19,Woman,Right,
,,,,,,,,,,,,,,,,,501,19,Woman,Right,2,24,0.4,1,0,-,0,0.3689416999986861,['n'],3.3545639000003575,1.6,1243.9430775,,,,,501,19,Woman,Right,
,,,,,,,,,,,,,,,,,501,19,Woman,Right,2,3,1,2,180,0,0,0.4737439999989874,['y'],1.8585115999994741,1.6,1248.7263624000007,,,,,501,19,Woman,Right,
,,,,,,,,,,,,,,,,,501,19,Woman,Right,2,60,0.15,1,0,-,180,0.5703628000010212,['n'],1.6426000999999815,1.654,1253.7265651000016,,,,,501,19,Woman,Right,
,,,,,,,,,,,,,,,,,501,19,Woman,Right,2,35,0.4,2,180,0,0,0.4525618999978178,['n'],1.0024384999996983,1.18,1260.9761392,,,,,501,19,Woman,Right,
,,,,,,,,,,,,,,,,,501,19,Woman,Right,2,32,0.4,1,0,-,0,0.5873007999980473,['n'],0.9223114000014903,1.764,1265.0087926000015,,,,,501,19,Woman,Right,
,,,,,,,,,,,,,,,,,501,19,Woman,Right,2,74,0.15,1,180,-,180,0.5935779999999795,['n'],1.290321700002096,1.71,1269.3095009999997,,,,,501,19,Woman,Right,
,,,,,,,,,,,,,,,,,501,19,Woman,Right,2,67,0.15,2,180,0,0,1.9171987000008812,['y'],0.6584992999996757,1.674,1274.8428525000018,,,,,501,19,Woman,Right,
,,,,,,,,,,,,,,,,,501,19,Woman,Right,2,45,0.15,2,0,180,0,1.3657963999976346,['n'],0.782131500000105,1.5899999999999999,1279.9594160000015,,,,,501,19,Woman,Right,
,,,,,,,,,,,,,,,,,501,19,Woman,Right,2,37,0.4,2,0,180,180,0.7656048000026203,['y'],0.6016409000003478,1.6,1284.0759698000002,,,,,501,19,Woman,Right,
,,,,,,,,,,,,,,,,,501,19,Woman,Right,2,72,0.15,1,0,-,180,0.7912221000005957,['n'],1.4021652000010363,1.542,1290.2589794000014,,,,,501,19,Woman,Right,
,,,,,,,,,,,,,,,,,501,19,Woman,Right,2,34,0.4,1,180,-,180,0.41192880000016885,['n'],1.6262200999990455,1.6320000000000001,1295.3088510000016,,,,,501,19,Woman,Right,
,,,,,,,,,,,,,,,,,501,19,Woman,Right,2,30,0.4,1,180,-,180,0.533020499999111,['n'],0.7780606000014814,1.6320000000000001,1299.1093355000012,,,,,501,19,Woman,Right,
,,,,,,,,,,,,,,,,,501,19,Woman,Right,2,23,0.4,2,180,0,0,0.4068117999995593,['y'],0.5305688000007649,1.6320000000000001,1302.8926709000007,,,,,501,19,Woman,Right,
,,,,,,,,,,,,,,,,,501,19,Woman,Right,2,53,0.15,2,0,180,180,0.6703938000027847,['n'],1.722825599998032,1.63,1307.8259192000005,,,,,501,19,Woman,Right,
,,,,,,,,,,,,,,,,,501,19,Woman,Right,2,36,0.4,1,0,-,0,1.064242699998431,['n'],1.074638000001869,1.6600000000000001,1313.1248010000018,,,,,501,19,Woman,Right,
,,,,,,,,,,,,,,,,,501,19,Woman,Right,2,70,0.15,1,180,-,0,0.47515999999814085,['n'],1.21843219999937,1.764,1317.5592097000008,,,,,501,19,Woman,Right,
,,,,,,,,,,,,,,,,,501,19,Woman,Right,2,43,0.4,2,180,0,0,0.5818731999970623,['y'],1.5224355999998807,1.716,1322.308673800002,,,,,501,19,Woman,Right,
,,,,,,,,,,,,,,,,,501,19,Woman,Right,2,20,0.4,1,0,-,0,0.4081934000023466,['n'],0.6189313999966544,1.716,1325.6423815000016,,,,,501,19,Woman,Right,
,,,,,,,,,,,,,,,,,501,19,Woman,Right,2,33,0.4,2,0,180,180,0.6549130999992485,['n'],0.674788799999078,1.83,1330.659561299999,,,,,501,19,Woman,Right,
,,,,,,,,,,,,,,,,,501,19,Woman,Right,2,17,0.4,2,0,180,0,0.4965626999983215,['n'],1.4023113999974157,1.814,1335.074620700001,,,,,501,19,Woman,Right,
,,,,,,,,,,,,,,,,,501,19,Woman,Right,2,19,0.4,2,180,0,0,0.4904767999978503,['y'],1.4821316999987175,1.726,1340.0580722000013,,,,,501,19,Woman,Right,
,,,,,,,,,,,,,,,,,501,19,Woman,Right,2,58,0.15,1,180,-,180,0.4767868000017188,['n'],1.4585284999993746,1.65,1345.1756993000017,,,,,501,19,Woman,Right,
,,,,,,,,,,,,,,,,,501,19,Woman,Right,2,52,0.15,1,0,-,0,0.31614660000195727,['n'],0.7704483999987133,1.67,1348.925067799999,,,,,501,19,Woman,Right,
,,,,,,,,,,,,,,,,,501,19,Woman,Right,2,56,0.15,1,0,-,180,0.5805430000000342,['n'],0.9868328999982623,1.732,1353.3922773000013,,,,,501,19,Woman,Right,
,,,,,,,,,,,,,,,,,501,19,Woman,Right,2,42,0.4,1,180,-,180,0.5778195999992022,['n'],0.8988620000018273,1.732,1357.391169800001,,,,,501,19,Woman,Right,
,,,,,,,,,,,,,,,,,501,19,Woman,Right,2,69,0.15,2,0,180,180,0.48116379999919445,['n'],0.7232035000015458,1.706,1361.6249564999998,,,,,501,19,Woman,Right,
,,,,,,,,,,,,,,,,,501,19,Woman,Right,2,29,0.4,2,0,180,0,0.4472391000017524,['n'],1.5151246999994328,1.682,1366.7091929999988,,,,,501,19,Woman,Right,
,,,,,,,,,,,,,,,,,501,19,Woman,Right,2,41,0.4,2,0,180,180,0.3602448999990884,['n'],1.227149599999393,1.6280000000000001,1372.325370800001,,,,,501,19,Woman,Right,
,,,,,,,,,,,,,,,,,501,19,Woman,Right,2,13,0.4,2,0,180,180,0.8281342000009317,['y'],0.5541665000018838,1.688,1376.6421684999987,,,,,501,19,Woman,Right,
,,,,,,,,,,,,,,,,,501,19,Woman,Right,2,2,1,1,180,-,180,0.3561044000016409,['n'],2.2908089000011387,1.732,1383.2418469000004,,,,,501,19,Woman,Right,
,,,,,,,,,,,,,,,,,501,19,Woman,Right,2,61,0.15,2,0,180,180,1.5495685999994748,['n'],0.7673316000000341,1.672,1389.4413798999994,,,,,501,19,Woman,Right,
,,,,,,,,,,,,,,,,,501,19,Woman,Right,2,50,0.15,1,180,-,180,2.4486728999982006,['n'],0.8663746999991417,1.32,1395.7246737999994,,,,,501,19,Woman,Right,
,,,,,,,,,,,,,,,,,501,19,Woman,Right,2,75,0.15,2,180,0,180,1.854135600002337,['n'],1.0904105000008713,1.326,1402.9747959000015,,,,,501,19,Woman,Right,
,,,,,,,,,,,,,,,,,501,19,Woman,Right,2,15,0.4,2,180,0,0,1.2148364999993646,['y'],1.1863940000002913,1.326,1402.9747959000015,,,,,501,19,Woman,Right,
,,,,,,,,,,,,,,,,,501,19,Woman,Right,2,27,0.4,2,180,0,0,0.5529496999988623,['y'],4.211113299999852,1.634,1416.1749820000005,,,,,501,19,Woman,Right,
,,,,,,,,,,,,,,,,,501,19,Woman,Right,2,68,0.15,1,0,-,0,0.579435800002102,['y'],0.9066168999997899,1.63,1420.5918597000018,,,,,501,19,Woman,Right,
,,,,,,,,,,,,,,,,,501,19,Woman,Right,2,54,0.15,1,180,-,180,0.4276996999979019,['n'],1.6751844999998866,1.63,1425.8745745999986,,,,,501,19,Woman,Right,
,,,,,,,,,,,,,,,,,501,19,Woman,Right,2,66,0.15,1,180,-,180,0.6284034999989672,['n'],0.6993191000001389,1.778,1430.4413591000011,,,,,501,19,Woman,Right,
,,,,,,,,,,,,,,,,,501,19,Woman,Right,2,25,0.4,2,0,180,180,1.9075311999986297,['y'],0.5792342999993707,1.682,1435.5250422999998,,,,,501,19,Woman,Right,
,,,,,,,,,,,,,,,,,501,19,Woman,Right,2,16,0.4,1,0,-,0,0.3036467000019911,['n'],0.978673900001013,1.65,1439.4750128999985,,,,,501,19,Woman,Right,
,,,,,,,,,,,,,,,,,501,19,Woman,Right,2,1,1,2,0,180,180,0.7523575000013807,['y'],0.6505871999979718,2.0,1443.5749849000022,,,,,501,19,Woman,Right,
,,,,,,,,,,,,,,,,,501,19,Woman,Right,2,78,0.15,1,180,-,180,0.7502693999995245,['n'],0.48239779999858,1.716,1447.557974200001,,,,,501,19,Woman,Right,
,,,,,,,,,,,,,,,,,501,19,Woman,Right,2,77,0.15,2,0,180,180,0.9582599999994272,['n'],0.5628160999985994,1.608,1451.7751237000011,,,,,501,19,Woman,Right,
,,,,,,,,,,,,,,,,,501,19,Woman,Right,2,57,0.15,2,0,180,180,0.5110214000014821,['n'],0.6667553999977827,1.6099999999999999,1455.8747158000006,,,,,501,19,Woman,Right,
,,,,,,,,,,,,,,,,,501,19,Woman,Right,2,48,0.15,1,0,-,0,1.2584562999982154,['n'],0.6903222000000824,1.376,1461.0582255000008,,,,,501,19,Woman,Right,
,,,,,,,,,,,,,,,,,501,19,Woman,Right,2,14,0.4,1,180,-,0,0.3846671999999671,['n'],1.1784368000007817,1.596,1465.7416669000013,,,,,501,19,Woman,Right,
,,,,,,,,,,,,,,,,,501,19,Woman,Right,2,10,0.4,1,180,-,180,0.5840253999995184,['n'],0.7872410000018135,1.596,1469.5246963999998,,,,,501,19,Woman,Right,
,,,,,,,,,,,,,,,,,501,19,Woman,Right,2,26,0.4,1,180,-,0,0.48595230000137235,['n'],1.107341399998404,1.596,1473.7913040999993,,,,,501,19,Woman,Right,
,,,,,,,,,,,,,,,,,501,19,Woman,Right,2,73,0.15,2,0,180,180,3.565036500000133,['n'],1.0512213000001793,1.23,1481.3580834999993,,,,,501,19,Woman,Right,
,,,,,,,,,,,,,,,,,501,19,Woman,Right,2,55,0.15,2,180,0,180,0.9873089000029722,['n'],1.6028189999997267,1.268,1486.9740705000004,,,,,501,19,Woman,Right,
,,,,,,,,,,,,,,,,,501,19,Woman,Right,2,65,0.15,2,0,180,180,0.9243524000012258,['y'],0.6033739999984391,1.44,1492.2075063000011,,,,,501,19,Woman,Right,
,,,,,,,,,,,,,,,,,501,19,Woman,Right,2,8,0.4,1,0,-,0,0.5563322999987577,['n'],0.9225297000011778,1.53,1496.4255737999993,,,,,501,19,Woman,Right,
,,,,,,,,,,,,,,,,,501,19,Woman,Right,2,63,0.15,2,180,0,0,1.9108387000014773,['y'],0.8347871000005398,1.6179999999999999,1502.041240300001,,,,,501,19,Woman,Right,
,,,,,,,,,,,,,,,,,501,19,Woman,Right,2,38,0.4,1,180,-,180,0.5793570999994699,['n'],0.6589077999997244,1.782,1505.974328100001,,,,,501,19,Woman,Right,
,,,,,,,,,,,,,,,,,501,19,Woman,Right,2,79,0.15,2,180,0,0,1.158379700002115,['y'],0.6591743000026327,1.55,1510.924287599999,,,,,501,19,Woman,Right,
,,,,,,,,,,,,,,,,,501,19,Woman,Right,2,40,0.4,1,0,-,0,0.49026360000061686,['n'],1.2112569999990228,1.564,1515.4578038,,,,,501,19,Woman,Right,
,,,,,,,,,,,,,,,,,501,19,Woman,Right,2,5,1,2,0,180,180,0.6969855999996071,['y'],0.9147425999981351,1.914,1520.3402901000009,,,,,501,19,Woman,Right,
,,,,,,,,,,,,,,,,,501,19,Woman,Right,2,31,0.4,2,180,0,0,0.3994720000009693,['y'],0.5714036999997916,1.778,1523.974164700001,,,,,501,19,Woman,Right,
,,,,,,,,,,,,,,,,,501,19,Woman,Right,2,22,0.4,1,180,-,180,0.548481300000276,['y'],0.8032856000027095,1.0979999999999999,1529.1908853999994,,,,,501,19,Woman,Right,
,,,,,,,,,,,,,,,,,501,19,Woman,Right,2,6,1,1,180,-,180,0.6153237000035006,['n'],1.0274454999998852,1.772,1533.689943100002,,,,,501,19,Woman,Right,
,,,,,,,,,,,,,,,,,501,19,Woman,Right,2,12,0.4,1,0,-,0,0.35113880000062636,['n'],2.3554985999981,1.6179999999999999,1539.656784400002,,,,,501,19,Woman,Right,
,,,,,,,,,,,,,,,,,501,19,Woman,Right,2,7,1,2,180,0,0,0.37784520000059274,['y'],1.69947559999855,1.584,1544.8399325999999,,,,,501,19,Woman,Right,
,,,,,,,,,,,,,,,,,501,19,Woman,Right,2,51,0.15,2,180,0,180,0.7341979999982868,['y'],2.619266999998217,1.596,1550.856945200001,,,,,501,19,Woman,Right,
,,,,,,,,,,,,,,,,,501,19,Woman,Right,2,62,0.15,1,180,-,0,0.2564031000001705,['n'],3.3950475999990886,1.612,1557.0239159000012,,,,,501,19,Woman,Right,
,,,,,,,,,,,,,,,,,501,19,Woman,Right,2,0,1,1,0,-,0,0.3786252999998396,['n'],0.7229330000009213,1.6320000000000001,1560.7068431000007,,,,,501,19,Woman,Right,
,,,,,,,,,,,,,,,,,501,19,Woman,Right,3,40,0.4,1,0,-,0,0.6194232999987435,['n'],1.843585599999642,1.634,1572.7750219000009,80.0,87.5,55.0,,501,19,Woman,Right,
,,,,,,,,,,,,,,,,,501,19,Woman,Right,3,54,0.15,1,180,-,0,2.1995530999993207,['n'],0.28887659999963944,1.3599999999999999,1579.273548199999,,,,,501,19,Woman,Right,
,,,,,,,,,,,,,,,,,501,19,Woman,Right,3,69,0.15,2,0,180,180,0.6720866999967257,['n'],0.6270696999999927,1.638,1583.606474799999,,,,,501,19,Woman,Right,
,,,,,,,,,,,,,,,,,501,19,Woman,Right,3,73,0.15,2,0,180,0,0.7608240000008664,['y'],0.8508958000020357,1.25,1588.6903112,,,,,501,19,Woman,Right,
,,,,,,,,,,,,,,,,,501,19,Woman,Right,3,67,0.15,2,180,0,180,0.6015618999990693,['n'],1.8109399999993911,1.57,1593.8242046000014,,,,,501,19,Woman,Right,
,,,,,,,,,,,,,,,,,501,19,Woman,Right,3,44,0.15,1,0,-,0,0.3878703000009409,['n'],0.931410599998344,1.568,1597.8065382999994,,,,,501,19,Woman,Right,
,,,,,,,,,,,,,,,,,501,19,Woman,Right,3,36,0.4,1,0,-,0,0.7586551000022155,['n'],2.419480399999884,1.4140000000000001,1604.0401327,,,,,501,19,Woman,Right,
,,,,,,,,,,,,,,,,,501,19,Woman,Right,3,15,0.4,2,180,0,0,1.2582110000003013,['y'],1.0912128000018129,1.57,1609.0403195,,,,,501,19,Woman,Right,
,,,,,,,,,,,,,,,,,501,19,Woman,Right,3,3,1,2,180,0,0,0.6275219000017387,['y'],0.6192483000013453,1.774,1612.823148399999,,,,,501,19,Woman,Right,
,,,,,,,,,,,,,,,,,501,19,Woman,Right,3,13,0.4,2,0,180,0,1.264834300000075,['y'],1.1234131999990495,1.634,1617.8728220000012,,,,,501,19,Woman,Right,
,,,,,,,,,,,,,,,,,501,19,Woman,Right,3,57,0.15,2,0,180,180,0.5559078999976919,['n'],0.6750793999999587,1.612,1621.5733462999997,,,,,501,19,Woman,Right,
,,,,,,,,,,,,,,,,,501,19,Woman,Right,3,72,0.15,1,0,-,180,0.7758785000005446,['n'],0.6671212000001105,1.604,1625.6397652000014,,,,,501,19,Woman,Right,
,,,,,,,,,,,,,,,,,501,19,Woman,Right,3,7,1,2,180,0,0,0.3662980000008247,['y'],0.7690827000005811,1.826,1629.6731252999998,,,,,501,19,Woman,Right,
,,,,,,,,,,,,,,,,,501,19,Woman,Right,3,70,0.15,1,180,-,180,0.4251436999984435,['n'],0.7392879999970319,1.716,1633.6059062999993,,,,,501,19,Woman,Right,
,,,,,,,,,,,,,,,,,501,19,Woman,Right,3,75,0.15,2,180,0,180,0.34047479999935604,['n'],0.5470564999995986,1.678,1637.9891817999996,,,,,501,19,Woman,Right,
,,,,,,,,,,,,,,,,,501,19,Woman,Right,3,24,0.4,1,0,-,0,0.2834491000030539,['n'],5.282959799998935,1.584,1646.506826500001,,,,,501,19,Woman,Right,
,,,,,,,,,,,,,,,,,501,19,Woman,Right,3,20,0.4,1,0,-,0,0.24852240000109305,['n'],0.5871082999983628,1.584,1646.506826500001,,,,,501,19,Woman,Right,
,,,,,,,,,,,,,,,,,501,19,Woman,Right,3,77,0.15,2,0,180,180,0.4027261000010185,['n'],1.9637881000016932,1.696,1654.938732300001,,,,,501,19,Woman,Right,
,,,,,,,,,,,,,,,,,501,19,Woman,Right,3,50,0.15,1,180,-,180,0.2547305999978562,['n'],3.291971200000262,1.696,1662.0734125999988,,,,,501,19,Woman,Right,
,,,,,,,,,,,,,,,,,501,19,Woman,Right,3,49,0.15,2,0,180,180,0.8701399999990826,['y'],0.7399036999995587,1.542,1667.1726917000015,,,,,501,19,Woman,Right,
,,,,,,,,,,,,,,,,,501,19,Woman,Right,3,22,0.4,1,180,-,180,0.29968060000101104,['n'],2.5716957000004186,1.592,1672.940269900002,,,,,501,19,Woman,Right,
,,,,,,,,,,,,,,,,,501,19,Woman,Right,3,39,0.4,2,180,0,0,0.8912827999993169,['y'],0.8919538000009197,1.62,1679.1893213000003,,,,,501,19,Woman,Right,
,,,,,,,,,,,,,,,,,501,19,Woman,Right,3,30,0.4,1,180,-,180,0.6193793999991613,['n'],1.5077363999989757,1.688,1684.9228498000011,,,,,501,19,Woman,Right,
,,,,,,,,,,,,,,,,,501,19,Woman,Right,3,32,0.4,1,0,-,0,0.29981039999984205,['n'],3.273214900000312,1.688,1690.8054450000018,,,,,501,19,Woman,Right,
,,,,,,,,,,,,,,,,,501,19,Woman,Right,3,45,0.15,2,0,180,180,1.4910675999999512,['y'],0.7558833999974013,1.688,1695.8897614999987,,,,,501,19,Woman,Right,
,,,,,,,,,,,,,,,,,501,19,Woman,Right,3,1,1,2,0,180,180,1.1643656000014744,['y'],0.6359741999985999,1.9020000000000001,1700.9897968000005,,,,,501,19,Woman,Right,
,,,,,,,,,,,,,,,,,501,19,Woman,Right,3,38,0.4,1,180,-,180,0.5310632000000624,['n'],0.843403999999282,1.642,1705.2896722000005,,,,,501,19,Woman,Right,
,,,,,,,,,,,,,,,,,501,19,Woman,Right,3,5,1,2,0,180,180,0.546764799997618,['y'],0.6756819000001997,1.8599999999999999,1709.039503,,,,,501,19,Woman,Right,
,,,,,,,,,,,,,,,,,501,19,Woman,Right,3,55,0.15,2,180,0,180,0.5951067999994848,['n'],1.4681075000007695,1.71,1713.7402427999987,,,,,501,19,Woman,Right,
,,,,,,,,,,,,,,,,,501,19,Woman,Right,3,62,0.15,1,180,-,180,0.5688363000008394,['n'],0.5477720000017143,1.666,1717.522394300002,,,,,501,19,Woman,Right,
,,,,,,,,,,,,,,,,,501,19,Woman,Right,3,48,0.15,1,0,-,0,0.36063089999879594,['n'],1.0675282000011066,1.766,1721.5729776000007,,,,,501,19,Woman,Right,
,,,,,,,,,,,,,,,,,501,19,Woman,Right,3,74,0.15,1,180,-,0,0.7903790000018489,['n'],1.8282745999968029,1.686,1726.723006799999,,,,,501,19,Woman,Right,
,,,,,,,,,,,,,,,,,501,19,Woman,Right,3,6,1,1,180,-,180,0.3117382999989786,['n'],0.8917111000009754,1.65,1730.5730638999994,,,,,501,19,Woman,Right,
,,,,,,,,,,,,,,,,,501,19,Woman,Right,3,53,0.15,2,0,180,0,0.44848759999877075,['n'],0.9157528999967326,1.604,1734.5895635999987,,,,,501,19,Woman,Right,
,,,,,,,,,,,,,,,,,501,19,Woman,Right,3,60,0.15,1,0,-,0,0.29596010000022943,['n'],0.923436799999763,1.6059999999999999,1738.4391796000018,,,,,501,19,Woman,Right,
,,,,,,,,,,,,,,,,,501,19,Woman,Right,3,27,0.4,2,180,0,0,0.803630800000974,['y'],0.49156009999933303,1.612,1742.3393462999993,,,,,501,19,Woman,Right,
,,,,,,,,,,,,,,,,,501,19,Woman,Right,3,37,0.4,2,0,180,180,1.5385066000017105,['y'],0.7069243999976607,1.702,1747.5056556000018,,,,,501,19,Woman,Right,
,,,,,,,,,,,,,,,,,501,19,Woman,Right,3,25,0.4,2,0,180,180,0.6414666000018769,['y'],1.3321495999989565,1.678,1752.0394124000013,,,,,501,19,Woman,Right,
,,,,,,,,,,,,,,,,,501,19,Woman,Right,3,10,0.4,1,180,-,180,0.5242065000020375,['n'],0.7082430000009481,1.6,1756.0056375999993,,,,,501,19,Woman,Right,
,,,,,,,,,,,,,,,,,501,19,Woman,Right,3,43,0.4,2,180,0,0,0.4791592000001401,['y'],0.41974649999974645,1.842,1759.6384951,,,,,501,19,Woman,Right,
,,,,,,,,,,,,,,,,,501,19,Woman,Right,3,21,0.4,2,0,180,180,0.6215518999997585,['n'],1.3882442000031006,1.6099999999999999,1764.2388436,,,,,501,19,Woman,Right,
,,,,,,,,,,,,,,,,,501,19,Woman,Right,3,0,1,1,0,-,0,0.2600014000017836,['n'],1.4680856999984826,1.638,1768.5220188000021,,,,,501,19,Woman,Right,
,,,,,,,,,,,,,,,,,501,19,Woman,Right,3,47,0.15,2,180,0,0,0.7273224999989907,['y'],0.46837779999987106,1.638,1772.122422200002,,,,,501,19,Woman,Right,
,,,,,,,,,,,,,,,,,501,19,Woman,Right,3,66,0.15,1,180,-,0,0.6970352999996976,['n'],0.9163183999989997,1.54,1776.8890274000005,,,,,501,19,Woman,Right,
,,,,,,,,,,,,,,,,,501,19,Woman,Right,3,76,0.15,1,0,-,0,0.27565730000060285,['n'],0.9802528000000166,1.562,1780.6890076000018,,,,,501,19,Woman,Right,
,,,,,,,,,,,,,,,,,501,19,Woman,Right,3,42,0.4,1,180,-,180,0.3367490999989968,['n'],0.7163360000013199,1.5939999999999999,1784.4059097999998,,,,,501,19,Woman,Right,
,,,,,,,,,,,,,,,,,501,19,Woman,Right,3,16,0.4,1,0,-,0,0.2475968999970064,['n'],0.5402341999979399,1.67,1787.6558860000005,,,,,501,19,Woman,Right,
,,,,,,,,,,,,,,,,,501,19,Woman,Right,3,41,0.4,2,0,180,180,0.7542508999977144,['y'],0.45958210000026156,1.338,1791.889038600002,,,,,501,19,Woman,Right,
,,,,,,,,,,,,,,,,,501,19,Woman,Right,3,56,0.15,1,0,-,180,1.1456268999972963,['n'],1.6677753999974811,1.564,1797.6889355000021,,,,,501,19,Woman,Right,
,,,,,,,,,,,,,,,,,501,19,Woman,Right,3,28,0.4,1,0,-,0,0.2737701999976707,['n'],0.8763428999991447,1.658,1801.3048861999996,,,,,501,19,Woman,Right,
,,,,,,,,,,,,,,,,,501,19,Woman,Right,3,31,0.4,2,180,0,0,0.7543814000018756,['y'],0.444453699998121,1.666,1805.088436099999,,,,,501,19,Woman,Right,
,,,,,,,,,,,,,,,,,501,19,Woman,Right,3,18,0.4,1,180,-,180,0.3469270999994478,['n'],4.14044819999981,1.666,1812.1383858000008,,,,,501,19,Woman,Right,
,,,,,,,,,,,,,,,,,501,19,Woman,Right,3,33,0.4,2,0,180,180,1.5119094000001496,['y'],0.492213499997888,1.5819999999999999,1816.9221117000016,,,,,501,19,Woman,Right,
,,,,,,,,,,,,,,,,,501,19,Woman,Right,3,11,0.4,2,180,0,0,0.4700703999988036,['y'],0.9482433000011952,1.674,1820.9046749000008,,,,,501,19,Woman,Right,
,,,,,,,,,,,,,,,,,501,19,Woman,Right,3,29,0.4,2,0,180,180,0.6585846000016318,['y'],1.2683961000002455,1.674,1825.2216144000013,,,,,501,19,Woman,Right,
,,,,,,,,,,,,,,,,,501,19,Woman,Right,3,4,1,1,0,-,0,0.893581100001029,['n'],1.2924789999997301,1.714,1829.7544605000003,,,,,501,19,Woman,Right,
,,,,,,,,,,,,,,,,,501,19,Woman,Right,3,65,0.15,2,0,180,0,1.0305754000000888,['n'],1.140421600000991,1.684,1834.8047560000014,,,,,501,19,Woman,Right,
,,,,,,,,,,,,,,,,,501,19,Woman,Right,3,23,0.4,2,180,0,0,0.559390299997176,['y'],2.812537699999666,1.662,1841.2551214000014,,,,,501,19,Woman,Right,
,,,,,,,,,,,,,,,,,501,19,Woman,Right,3,59,0.15,2,180,0,180,1.7702148999997007,['n'],1.0123827999996138,1.242,1846.9215451000018,,,,,501,19,Woman,Right,
,,,,,,,,,,,,,,,,,501,19,Woman,Right,3,9,0.4,2,0,180,180,1.4801756999986537,['y'],0.49985559999913676,1.56,1851.5220565000018,,,,,501,19,Woman,Right,
,,,,,,,,,,,,,,,,,501,19,Woman,Right,3,14,0.4,1,180,-,0,0.696122599998489,['y'],0.8285845999998855,1.56,1855.4047589000002,,,,,501,19,Woman,Right,
,,,,,,,,,,,,,,,,,501,19,Woman,Right,3,19,0.4,2,180,0,0,0.5319474999996601,['y'],0.5566166999997222,1.56,1858.8879023000009,,,,,501,19,Woman,Right,
,,,,,,,,,,,,,,,,,501,19,Woman,Right,3,71,0.15,2,180,0,180,1.8195623999999953,['n'],0.42046639999898616,1.56,1863.4375383000006,,,,,501,19,Woman,Right,
,,,,,,,,,,,,,,,,,501,19,Woman,Right,3,51,0.15,2,180,0,180,0.6938654999976279,['n'],0.7962158999980602,1.702,1867.8547653999995,,,,,501,19,Woman,Right,
,,,,,,,,,,,,,,,,,501,19,Woman,Right,3,61,0.15,2,0,180,0,0.36249229999884847,['n'],0.9879923000007693,1.676,1871.8215918999995,,,,,501,19,Woman,Right,
,,,,,,,,,,,,,,,,,501,19,Woman,Right,3,17,0.4,2,0,180,180,1.6451076999983343,['y'],1.212463800002297,1.676,1877.0386079000018,,,,,501,19,Woman,Right,
,,,,,,,,,,,,,,,,,501,19,Woman,Right,3,79,0.15,2,180,0,180,0.6043132000013429,['n'],1.780515700000251,1.5859999999999999,1882.0881639,,,,,501,19,Woman,Right,
,,,,,,,,,,,,,,,,,501,19,Woman,Right,3,63,0.15,2,180,0,180,0.8448516999997082,['n'],1.0369425999997475,1.5859999999999999,1886.5038753000008,,,,,501,19,Woman,Right,
,,,,,,,,,,,,,,,,,501,19,Woman,Right,3,58,0.15,1,180,-,180,0.2751923999967403,['n'],0.4606077999997069,1.634,1890.3877691999987,,,,,501,19,Woman,Right,
,,,,,,,,,,,,,,,,,501,19,Woman,Right,3,68,0.15,1,0,-,0,0.3358501000002434,['n'],1.8039529000016046,1.634,1894.9376969000004,,,,,501,19,Woman,Right,
,,,,,,,,,,,,,,,,,501,19,Woman,Right,3,12,0.4,1,0,-,180,0.3359042000010959,['n'],0.4365639000025112,1.616,1898.7877857999993,,,,,501,19,Woman,Right,
,,,,,,,,,,,,,,,,,501,19,Woman,Right,3,78,0.15,1,180,-,180,1.0378010999993421,['n'],1.8685411000005843,1.43,1904.420780700002,,,,,501,19,Woman,Right,
,,,,,,,,,,,,,,,,,501,19,Woman,Right,3,26,0.4,1,180,-,180,0.35718679999990854,['n'],0.7807528000012098,1.6280000000000001,1908.688178299999,,,,,501,19,Woman,Right,
,,,,,,,,,,,,,,,,,501,19,Woman,Right,3,8,0.4,1,0,-,0,0.5364337999999407,['n'],0.8206872000009753,1.612,1912.7210839,,,,,501,19,Woman,Right,
,,,,,,,,,,,,,,,,,501,19,Woman,Right,3,64,0.15,1,0,-,180,1.0966859000000113,['n'],0.7486368000027142,1.612,1917.0877806999997,,,,,501,19,Woman,Right,
,,,,,,,,,,,,,,,,,501,19,Woman,Right,3,35,0.4,2,180,0,0,0.817911299996922,['y'],0.636744199997338,1.612,1920.8378579000018,,,,,501,19,Woman,Right,
,,,,,,,,,,,,,,,,,501,19,Woman,Right,3,52,0.15,1,0,-,180,1.0845243000003393,['n'],0.3887469000001147,1.174,1925.4548415999998,,,,,501,19,Woman,Right,
,,,,,,,,,,,,,,,,,501,19,Woman,Right,3,34,0.4,1,180,-,180,0.5896958000012091,['n'],1.0604262999986531,1.738,1929.8215237000004,,,,,501,19,Woman,Right,
,,,,,,,,,,,,,,,,,501,19,Woman,Right,3,2,1,1,180,-,180,0.2870656000013696,['n'],2.7168211999996856,1.792,1936.0212885,,,,,501,19,Woman,Right,
,,,,,,,,,,,,,,,,,501,19,Woman,Right,3,46,0.15,1,180,-,180,0.43553070000052685,['n'],1.364563299997826,1.736,1940.7210391000008,,,,,501,19,Woman,Right,
,,,,,,,,,,,,,,,,,501,19,Woman,Right,4,33,0.4,2,0,180,180,0.7490295999996306,['y'],1.2892639000019699,1.674,1950.6883325000017,72.5,97.5,62.5,,501,19,Woman,Right,
,,,,,,,,,,,,,,,,,501,19,Woman,Right,4,20,0.4,1,0,-,0,0.7420670000028622,['n'],6.244403099997726,1.678,1959.9868437000005,,,,,501,19,Woman,Right,
,,,,,,,,,,,,,,,,,501,19,Woman,Right,4,22,0.4,1,180,-,180,0.5287581000011414,['n'],0.5247918999993999,1.686,1964.4376741000015,,,,,501,19,Woman,Right,
,,,,,,,,,,,,,,,,,501,19,Woman,Right,4,24,0.4,1,0,-,0,0.3594593000016175,['n'],0.884171999998216,1.684,1968.0372943000002,,,,,501,19,Woman,Right,
,,,,,,,,,,,,,,,,,501,19,Woman,Right,4,35,0.4,2,180,0,0,0.5170087000005879,['n'],0.5808729000018502,1.682,1971.6708486999996,,,,,501,19,Woman,Right,
,,,,,,,,,,,,,,,,,501,19,Woman,Right,4,27,0.4,2,180,0,0,0.7905236000005971,['y'],0.6928436000016518,1.642,1975.9709086000003,,,,,501,19,Woman,Right,
,,,,,,,,,,,,,,,,,501,19,Woman,Right,4,25,0.4,2,0,180,180,0.5733834999991814,['y'],1.3565961999993306,1.642,1980.4037395000014,,,,,501,19,Woman,Right,
,,,,,,,,,,,,,,,,,501,19,Woman,Right,4,42,0.4,1,180,-,180,0.5599284999989322,['n'],2.8610617999984242,1.5939999999999999,1986.3707797999996,,,,,501,19,Woman,Right,
,,,,,,,,,,,,,,,,,501,19,Woman,Right,4,41,0.4,2,0,180,180,0.46715519999997923,['n'],1.3137043999995512,1.612,1990.837047500001,,,,,501,19,Woman,Right,
,,,,,,,,,,,,,,,,,501,19,Woman,Right,4,21,0.4,2,0,180,180,0.6231705999998667,['y'],0.4450163000001339,1.6360000000000001,1994.3208412000022,,,,,501,19,Woman,Right,
,,,,,,,,,,,,,,,,,501,19,Woman,Right,4,14,0.4,1,180,-,180,0.7658990999989328,['n'],1.4089098000004014,1.6640000000000001,1998.9865549999995,,,,,501,19,Woman,Right,
,,,,,,,,,,,,,,,,,501,19,Woman,Right,4,72,0.15,1,0,-,180,0.5066894999981741,['n'],0.6929716000013286,1.376,2002.6539075,,,,,501,19,Woman,Right,
,,,,,,,,,,,,,,,,,501,19,Woman,Right,4,65,0.15,2,0,180,180,0.4658029999991413,['n'],1.212999999999738,1.376,2006.7369929000015,,,,,501,19,Woman,Right,
,,,,,,,,,,,,,,,,,501,19,Woman,Right,4,38,0.4,1,180,-,180,0.8664567000014358,['n'],0.7964839999985998,1.734,2011.3200049000006,,,,,501,19,Woman,Right,
,,,,,,,,,,,,,,,,,501,19,Woman,Right,4,17,0.4,2,0,180,180,0.5524671999992279,['n'],1.228474899999128,1.408,2016.4038398000012,,,,,501,19,Woman,Right,
,,,,,,,,,,,,,,,,,501,19,Woman,Right,4,13,0.4,2,0,180,180,1.2078417999982776,['y'],0.5647869999993418,1.5779999999999998,2020.887049500001,,,,,501,19,Woman,Right,
,,,,,,,,,,,,,,,,,501,19,Woman,Right,4,37,0.4,2,0,180,180,0.6051524999966205,['y'],0.5009542000007059,1.57,2024.420235900001,,,,,501,19,Woman,Right,
,,,,,,,,,,,,,,,,,501,19,Woman,Right,4,8,0.4,1,0,-,0,0.7432227000026614,['n'],0.5411181999988912,1.76,2028.2202681000017,,,,,501,19,Woman,Right,
,,,,,,,,,,,,,,,,,501,19,Woman,Right,4,63,0.15,2,180,0,0,2.077639999999519,['y'],0.4606786000003922,1.57,2033.604044399999,,,,,501,19,Woman,Right,
,,,,,,,,,,,,,,,,,501,19,Woman,Right,4,67,0.15,2,180,0,0,0.8656472000002395,['y'],0.4765579000013531,1.6179999999999999,2037.2196148000003,,,,,501,19,Woman,Right,
,,,,,,,,,,,,,,,,,501,19,Woman,Right,4,5,1,2,0,180,180,1.2881624000001466,['y'],1.212515399998665,1.65,2042.6372432999997,,,,,501,19,Woman,Right,
,,,,,,,,,,,,,,,,,501,19,Woman,Right,4,57,0.15,2,0,180,180,1.9501067000019248,['n'],0.5725562999978138,1.5779999999999998,2047.8526052000016,,,,,501,19,Woman,Right,
,,,,,,,,,,,,,,,,,501,19,Woman,Right,4,19,0.4,2,180,0,0,0.4887797999981558,['y'],0.9966352999981609,1.612,2052.0032871000003,,,,,501,19,Woman,Right,
,,,,,,,,,,,,,,,,,501,19,Woman,Right,4,59,0.15,2,180,0,180,0.6496129999977711,['y'],1.0690627999974822,1.612,2056.871280700001,,,,,501,19,Woman,Right,
,,,,,,,,,,,,,,,,,501,19,Woman,Right,4,75,0.15,2,180,0,180,0.6122191000031307,['n'],0.7652491000008013,1.1560000000000001,2061.1866058000014,,,,,501,19,Woman,Right,
,,,,,,,,,,,,,,,,,501,19,Woman,Right,4,68,0.15,1,0,-,0,0.5996583999985887,['n'],3.181405999999697,1.678,2067.719972400002,,,,,501,19,Woman,Right,
,,,,,,,,,,,,,,,,,501,19,Woman,Right,4,54,0.15,1,180,-,180,0.458198899999843,['n'],0.7572927999972308,1.678,2071.269327599999,,,,,501,19,Woman,Right,
,,,,,,,,,,,,,,,,,501,19,Woman,Right,4,78,0.15,1,180,-,180,1.4544800000003306,['n'],0.7412895999987086,1.678,2075.8540385999986,,,,,501,19,Woman,Right,
,,,,,,,,,,,,,,,,,501,19,Woman,Right,4,28,0.4,1,0,-,0,0.5871106999984477,['n'],1.0211940000008326,1.67,2080.586199600002,,,,,501,19,Woman,Right,
,,,,,,,,,,,,,,,,,501,19,Woman,Right,4,6,1,1,180,-,180,0.8897633999986283,['n'],2.06919939999716,1.67,2085.9523219000002,,,,,501,19,Woman,Right,
,,,,,,,,,,,,,,,,,501,19,Woman,Right,4,73,0.15,2,0,180,180,1.1533588000020245,['y'],0.5092426000010164,1.6360000000000001,2090.170625999999,,,,,501,19,Woman,Right,
,,,,,,,,,,,,,,,,,501,19,Woman,Right,4,70,0.15,1,180,-,180,0.5445445000004838,['n'],1.4054003999990528,1.5739999999999998,2094.8866302999995,,,,,501,19,Woman,Right,
,,,,,,,,,,,,,,,,,501,19,Woman,Right,4,62,0.15,1,180,-,180,0.6059079000006022,['n'],2.18070280000029,1.572,2100.4197292999997,,,,,501,19,Woman,Right,
,,,,,,,,,,,,,,,,,501,19,Woman,Right,4,47,0.15,2,180,0,180,0.5195009999988542,['n'],1.2531079000000318,1.58,2104.919301500002,,,,,501,19,Woman,Right,
,,,,,,,,,,,,,,,,,501,19,Woman,Right,4,26,0.4,1,180,-,180,0.5219996000014362,['n'],0.5973027000000002,1.63,2108.8356669999994,,,,,501,19,Woman,Right,
,,,,,,,,,,,,,,,,,501,19,Woman,Right,4,64,0.15,1,0,-,0,0.5133382000021811,['n'],1.1893473000018275,1.604,2113.3686688000016,,,,,501,19,Woman,Right,
,,,,,,,,,,,,,,,,,501,19,Woman,Right,4,11,0.4,2,180,0,0,0.6998186000018904,['y'],0.6610041999992973,1.604,2118.3696702000016,,,,,501,19,Woman,Right,
,,,,,,,,,,,,,,,,,501,19,Woman,Right,4,3,1,2,180,0,0,1.0499279999967257,['y'],0.6134665999998106,1.6680000000000001,2123.8196596000016,,,,,501,19,Woman,Right,
,,,,,,,,,,,,,,,,,501,19,Woman,Right,4,79,0.15,2,180,0,0,1.7908644000017375,['n'],0.6133527999991202,1.3900000000000001,2129.2034200999988,,,,,501,19,Woman,Right,
,,,,,,,,,,,,,,,,,501,19,Woman,Right,4,77,0.15,2,0,180,0,0.9705042999994475,['n'],0.7251759999999194,1.22,2134.0028684999997,,,,,501,19,Woman,Right,
,,,,,,,,,,,,,,,,,501,19,Woman,Right,4,48,0.15,1,0,-,0,0.5942283000003954,['n'],0.9486579000003985,1.6019999999999999,2138.1860430000015,,,,,501,19,Woman,Right,
,,,,,,,,,,,,,,,,,501,19,Woman,Right,4,32,0.4,1,0,-,0,0.778430300000764,['n'],0.7328637999999046,1.748,2142.003294599999,,,,,501,19,Woman,Right,
,,,,,,,,,,,,,,,,,501,19,Woman,Right,4,1,1,2,0,180,180,0.7289289000000281,['y'],0.5094432999976561,1.576,2145.936167300002,,,,,501,19,Woman,Right,
,,,,,,,,,,,,,,,,,501,19,Woman,Right,4,58,0.15,1,180,-,180,0.42653449999852455,['y'],1.5091203000010864,1.294,2153.6691078000003,,,,,501,19,Woman,Right,
,,,,,,,,,,,,,,,,,501,19,Woman,Right,4,45,0.15,2,0,180,0,0.3883878000015102,['n'],0.8207851000006485,1.604,2157.7200402000017,,,,,501,19,Woman,Right,
,,,,,,,,,,,,,,,,,501,19,Woman,Right,4,51,0.15,2,180,0,180,0.5926011999981711,['n'],0.8052225999999791,1.73,2161.7527575999993,,,,,501,19,Woman,Right,
,,,,,,,,,,,,,,,,,501,19,Woman,Right,4,71,0.15,2,180,0,180,0.4039244999985385,['n'],0.6215301000011095,1.73,2165.569043800002,,,,,501,19,Woman,Right,
,,,,,,,,,,,,,,,,,501,19,Woman,Right,4,36,0.4,1,0,-,180,1.259077899998374,['n'],0.6368108000024222,1.556,2170.154385500002,,,,,501,19,Woman,Right,
,,,,,,,,,,,,,,,,,501,19,Woman,Right,4,53,0.15,2,0,180,0,0.48171739999816054,['n'],0.9331722999995691,1.55,2174.8361342999997,,,,,501,19,Woman,Right,
,,,,,,,,,,,,,,,,,501,19,Woman,Right,4,56,0.15,1,0,-,0,1.0736662999988766,['n'],1.604977200000576,1.354,2180.1683931000007,,,,,501,19,Woman,Right,
,,,,,,,,,,,,,,,,,501,19,Woman,Right,4,16,0.4,1,0,-,0,0.41217020000112825,['n'],0.8450904999990598,1.434,2184.4529212999987,,,,,501,19,Woman,Right,
,,,,,,,,,,,,,,,,,501,19,Woman,Right,4,29,0.4,2,0,180,0,3.0878178000020853,['y'],0.6136274000018602,1.522,2190.7355510999987,,,,,501,19,Woman,Right,
,,,,,,,,,,,,,,,,,501,19,Woman,Right,4,66,0.15,1,180,-,180,1.5088384000009682,['n'],0.9733644000007189,1.548,2195.885708900001,,,,,501,19,Woman,Right,
,,,,,,,,,,,,,,,,,501,19,Woman,Right,4,2,1,1,180,-,180,0.8225486000010278,['n'],1.7169174000009662,1.6099999999999999,2201.6184274000007,,,,,501,19,Woman,Right,
,,,,,,,,,,,,,,,,,501,19,Woman,Right,4,0,1,1,0,-,0,0.5736356000015803,['n'],0.589356400003453,1.78,2205.619618500001,,,,,501,19,Woman,Right,
,,,,,,,,,,,,,,,,,501,19,Woman,Right,4,60,0.15,1,0,-,180,0.5524236999990535,['n'],0.6370579000031285,1.742,2209.269507500001,,,,,501,19,Woman,Right,
,,,,,,,,,,,,,,,,,501,19,Woman,Right,4,9,0.4,2,0,180,180,0.6526840999977139,['y'],0.5497025000004214,1.6560000000000001,2213.0016693,,,,,501,19,Woman,Right,
,,,,,,,,,,,,,,,,,501,19,Woman,Right,4,7,1,2,180,0,0,0.4075453999976162,['y'],0.7017739000002621,1.56,2217.102125199999,,,,,501,19,Woman,Right,
,,,,,,,,,,,,,,,,,501,19,Woman,Right,4,15,0.4,2,180,0,0,0.6222177999989071,['y'],0.48519429999942076,1.6560000000000001,2220.8017302000007,,,,,501,19,Woman,Right,
,,,,,,,,,,,,,,,,,501,19,Woman,Right,4,12,0.4,1,0,-,0,0.4336246000020765,['n'],0.6936086999994586,1.6520000000000001,2224.485699500001,,,,,501,19,Woman,Right,
,,,,,,,,,,,,,,,,,501,19,Woman,Right,4,23,0.4,2,180,0,0,0.6877619999977469,['y'],0.3737438000025577,1.74,2228.1192150999996,,,,,501,19,Woman,Right,
,,,,,,,,,,,,,,,,,501,19,Woman,Right,4,18,0.4,1,180,-,180,0.432783100000961,['n'],0.5178821000008611,1.688,2231.6692747000016,,,,,501,19,Woman,Right,
,,,,,,,,,,,,,,,,,501,19,Woman,Right,4,43,0.4,2,180,0,0,0.5674625999999989,['y'],0.509735499999806,1.65,2235.2859078,,,,,501,19,Woman,Right,
,,,,,,,,,,,,,,,,,501,19,Woman,Right,4,10,0.4,1,180,-,180,0.44935050000276533,['n'],0.5294374999975844,1.782,2239.4846414999993,,,,,501,19,Woman,Right,
,,,,,,,,,,,,,,,,,501,19,Woman,Right,4,55,0.15,2,180,0,0,0.4130662999996275,['n'],0.5818298999984108,1.616,2242.9686664,,,,,501,19,Woman,Right,
,,,,,,,,,,,,,,,,,501,19,Woman,Right,4,44,0.15,1,0,-,0,0.4009480999993684,['n'],0.6698436000006041,1.642,2246.819041900002,,,,,501,19,Woman,Right,
,,,,,,,,,,,,,,,,,501,19,Woman,Right,4,49,0.15,2,0,180,0,0.33245459999670857,['n'],1.649165599999833,1.57,2251.535763300002,,,,,501,19,Woman,Right,
,,,,,,,,,,,,,,,,,501,19,Woman,Right,4,69,0.15,2,0,180,0,0.3006425000021409,['n'],1.2216019000006781,1.596,2255.818809200002,,,,,501,19,Woman,Right,
,,,,,,,,,,,,,,,,,501,19,Woman,Right,4,76,0.15,1,0,-,0,0.2564755999992485,['n'],0.7739664999971865,1.596,2259.535640500002,,,,,501,19,Woman,Right,
,,,,,,,,,,,,,,,,,501,19,Woman,Right,4,52,0.15,1,0,-,180,0.5882093000000168,['n'],0.7174479000022984,1.608,2263.701309799999,,,,,501,19,Woman,Right,
,,,,,,,,,,,,,,,,,501,19,Woman,Right,4,30,0.4,1,180,-,180,0.6457612000012887,['n'],1.189935999998852,1.85,2268.484860200002,,,,,501,19,Woman,Right,
,,,,,,,,,,,,,,,,,501,19,Woman,Right,4,31,0.4,2,180,0,0,0.7005101000031573,['n'],1.0051056999982393,1.6219999999999999,2273.2014316999994,,,,,501,19,Woman,Right,
,,,,,,,,,,,,,,,,,501,19,Woman,Right,4,34,0.4,1,180,-,180,0.5139171999981045,['n'],0.7659185000011348,1.604,2277.0353423000015,,,,,501,19,Woman,Right,
,,,,,,,,,,,,,,,,,501,19,Woman,Right,4,61,0.15,2,0,180,0,0.41796160000012605,['n'],1.1019147999977577,1.596,2281.1022933999993,,,,,501,19,Woman,Right,
,,,,,,,,,,,,,,,,,501,19,Woman,Right,4,46,0.15,1,180,-,0,1.285848800001986,['n'],1.2056989000011527,1.846,2286.0849922999987,,,,,501,19,Woman,Right,
,,,,,,,,,,,,,,,,,501,19,Woman,Right,4,4,1,1,0,-,0,0.4696602999974857,['n'],0.6136497000006784,1.706,2290.017626699999,,,,,501,19,Woman,Right,
,,,,,,,,,,,,,,,,,501,19,Woman,Right,4,74,0.15,1,180,-,0,0.7046589999990829,['n'],0.8055095999989135,1.676,2294.0515957999996,,,,,501,19,Woman,Right,
,,,,,,,,,,,,,,,,,501,19,Woman,Right,4,39,0.4,2,180,0,0,0.33245719999831636,['n'],0.6882996999993338,1.6219999999999999,2297.5177296,,,,,501,19,Woman,Right,
,,,,,,,,,,,,,,,,,501,19,Woman,Right,4,50,0.15,1,180,-,180,0.34006249999947613,['n'],0.9419569999990927,1.6219999999999999,2301.8512923000017,,,,,501,19,Woman,Right,
,,,,,,,,,,,,,,,,,501,19,Woman,Right,4,40,0.4,1,0,-,0,0.24076159999822266,['n'],1.6940358000028937,1.6,2306.6351256999988,,,,,501,19,Woman,Right,
,,,,,,,,,,,,,,,,,501,19,Woman,Right,5,31,0.4,2,180,0,0,0.575497699999687,['y'],0.5424136000001454,1.686,2314.400886200001,77.5,97.5,52.5,,501,19,Woman,Right,
,,,,,,,,,,,,,,,,,501,19,Woman,Right,5,66,0.15,1,180,-,0,0.3404381000000285,['n'],0.9256624000008742,1.642,2318.3019446,,,,,501,19,Woman,Right,
,,,,,,,,,,,,,,,,,501,19,Woman,Right,5,13,0.4,2,0,180,0,0.4309599000007438,['n'],0.8135474000009708,1.604,2321.91777,,,,,501,19,Woman,Right,
,,,,,,,,,,,,,,,,,501,19,Woman,Right,5,76,0.15,1,0,-,180,1.2949675999989267,['n'],1.3493239000017638,1.5979999999999999,2327.0008512999993,,,,,501,19,Woman,Right,
,,,,,,,,,,,,,,,,,501,19,Woman,Right,5,48,0.15,1,0,-,0,0.3878346999990754,['n'],0.6620068000011088,1.5979999999999999,2330.484896599999,,,,,501,19,Woman,Right,
,,,,,,,,,,,,,,,,,501,19,Woman,Right,5,41,0.4,2,0,180,180,1.0673223000012513,['y'],0.6937840000027791,1.678,2334.8518348,,,,,501,19,Woman,Right,
,,,,,,,,,,,,,,,,,501,19,Woman,Right,5,65,0.15,2,0,180,180,0.9762827999984438,['n'],0.5582505999991554,1.294,2339.1844100000017,,,,,501,19,Woman,Right,
,,,,,,,,,,,,,,,,,501,19,Woman,Right,5,39,0.4,2,180,0,0,0.9617002000013599,['y'],1.3420977999994648,1.616,2344.017835999999,,,,,501,19,Woman,Right,
,,,,,,,,,,,,,,,,,501,19,Woman,Right,5,8,0.4,1,0,-,0,0.3542237000001478,['n'],1.4062458999978844,1.616,2348.1512728999987,,,,,501,19,Woman,Right,
,,,,,,,,,,,,,,,,,501,19,Woman,Right,5,71,0.15,2,180,0,0,1.132481299999199,['y'],1.3094523999970988,1.6480000000000001,2353.0677982000016,,,,,501,19,Woman,Right,
,,,,,,,,,,,,,,,,,501,19,Woman,Right,5,72,0.15,1,0,-,0,0.31048229999942123,['n'],1.853420700001152,1.6440000000000001,2357.6837846000017,,,,,501,19,Woman,Right,
,,,,,,,,,,,,,,,,,501,19,Woman,Right,5,28,0.4,1,0,-,0,0.3425086999995983,['n'],0.9741523000011512,1.6440000000000001,2361.4342694000006,,,,,501,19,Woman,Right,
,,,,,,,,,,,,,,,,,501,19,Woman,Right,5,17,0.4,2,0,180,180,0.8642007999987982,['y'],0.5660576999980549,1.6440000000000001,2365.3343810000006,,,,,501,19,Woman,Right,
,,,,,,,,,,,,,,,,,501,19,Woman,Right,5,21,0.4,2,0,180,0,0.9732404999995197,['n'],1.4543454000013298,1.654,2370.6006196000017,,,,,501,19,Woman,Right,
,,,,,,,,,,,,,,,,,501,19,Woman,Right,5,47,0.15,2,180,0,180,0.5653725000011036,['n'],0.8779451000009431,1.6019999999999999,2375.4011757000007,,,,,501,19,Woman,Right,
,,,,,,,,,,,,,,,,,501,19,Woman,Right,5,25,0.4,2,0,180,180,0.8879097999997612,['y'],0.2942784999977448,1.74,2378.984231800001,,,,,501,19,Woman,Right,
,,,,,,,,,,,,,,,,,501,19,Woman,Right,5,24,0.4,1,0,-,0,0.3299903000006452,['n'],0.9262562000003527,1.74,2383.0513205999996,,,,,501,19,Woman,Right,
,,,,,,,,,,,,,,,,,501,19,Woman,Right,5,52,0.15,1,0,-,180,0.38937390000137384,['n'],1.4542329999967478,1.638,2387.551143200002,,,,,501,19,Woman,Right,
,,,,,,,,,,,,,,,,,501,19,Woman,Right,5,18,0.4,1,180,-,180,0.5415357999991102,['n'],0.9179485999993631,1.62,2392.8009358000018,,,,,501,19,Woman,Right,
,,,,,,,,,,,,,,,,,501,19,Woman,Right,5,79,0.15,2,180,0,180,0.7399638999995659,['n'],0.9339364000006753,1.67,2397.3681462999994,,,,,501,19,Woman,Right,
,,,,,,,,,,,,,,,,,501,19,Woman,Right,5,45,0.15,2,0,180,180,0.6989170000015292,['n'],0.6222453000009409,1.774,2401.301456600002,,,,,501,19,Woman,Right,
,,,,,,,,,,,,,,,,,501,19,Woman,Right,5,63,0.15,2,180,0,180,0.41719860000011977,['n'],0.8058313000001363,1.69,2405.2008871,,,,,501,19,Woman,Right,
,,,,,,,,,,,,,,,,,501,19,Woman,Right,5,36,0.4,1,0,-,0,0.2980771000002278,['n'],0.9103799000004074,1.646,2409.0001309,,,,,501,19,Woman,Right,
,,,,,,,,,,,,,,,,,501,19,Woman,Right,5,16,0.4,1,0,-,0,0.3332092999989982,['n'],0.6998089000007894,1.6219999999999999,2412.5004891999997,,,,,501,19,Woman,Right,
,,,,,,,,,,,,,,,,,501,19,Woman,Right,5,74,0.15,1,180,-,180,0.8718937999983609,['n'],0.5819274999994377,1.6059999999999999,2416.600857900001,,,,,501,19,Woman,Right,
,,,,,,,,,,,,,,,,,501,19,Woman,Right,5,10,0.4,1,180,-,180,0.5128414999999222,['n'],0.3823536000018066,1.6059999999999999,2419.983954700001,,,,,501,19,Woman,Right,
,,,,,,,,,,,,,,,,,501,19,Woman,Right,5,62,0.15,1,180,-,180,2.339316300000064,['n'],0.3897463000030257,1.6139999999999999,2425.267167500002,,,,,501,19,Woman,Right,
,,,,,,,,,,,,,,,,,501,19,Woman,Right,5,70,0.15,1,180,-,180,0.3984933000028832,['n'],0.43834659999993164,1.616,2428.7841837999986,,,,,501,19,Woman,Right,
,,,,,,,,,,,,,,,,,501,19,Woman,Right,5,33,0.4,2,0,180,180,1.441192800000863,['y'],0.38197459999719285,1.682,2433.317166699999,,,,,501,19,Woman,Right,
,,,,,,,,,,,,,,,,,501,19,Woman,Right,5,12,0.4,1,0,-,0,0.486894099998608,['n'],0.56619590000264,1.712,2436.950690599999,,,,,501,19,Woman,Right,
,,,,,,,,,,,,,,,,,501,19,Woman,Right,5,67,0.15,2,180,0,0,1.4004800000002433,['n'],0.6224407000008796,1.712,2441.450434800001,,,,,501,19,Woman,Right,
,,,,,,,,,,,,,,,,,501,19,Woman,Right,5,9,0.4,2,0,180,180,0.6818978000010247,['y'],0.5102932999980112,1.6640000000000001,2445.1666754,,,,,501,19,Woman,Right,
,,,,,,,,,,,,,,,,,501,19,Woman,Right,5,59,0.15,2,180,0,0,0.48242430000027525,['n'],0.9985274999999092,1.626,2449.2669129999995,,,,,501,19,Woman,Right,
,,,,,,,,,,,,,,,,,501,19,Woman,Right,5,4,1,1,0,-,0,0.3344646000005014,['n'],1.0145666999997047,1.6139999999999999,2453.167027800002,,,,,501,19,Woman,Right,
,,,,,,,,,,,,,,,,,501,19,Woman,Right,5,34,0.4,1,180,-,180,0.659012399999483,['n'],0.5818414999994275,1.68,2457.0344052,,,,,501,19,Woman,Right,
,,,,,,,,,,,,,,,,,501,19,Woman,Right,5,49,0.15,2,0,180,0,0.29716069999994943,['n'],0.6785813999995298,1.634,2460.6501338000016,,,,,501,19,Woman,Right,
,,,,,,,,,,,,,,,,,501,19,Woman,Right,5,78,0.15,1,180,-,0,0.5858837000014319,['n'],0.67853230000037,1.596,2464.433465000002,,,,,501,19,Woman,Right,
,,,,,,,,,,,,,,,,,501,19,Woman,Right,5,75,0.15,2,180,0,180,0.465362399998412,['n'],0.9183317999995779,1.588,2468.3338398000014,,,,,501,19,Woman,Right,
,,,,,,,,,,,,,,,,,501,19,Woman,Right,5,5,1,2,0,180,180,0.6665401000027487,['y'],0.6431114999977581,1.634,2472.283708499999,,,,,501,19,Woman,Right,
,,,,,,,,,,,,,,,,,501,19,Woman,Right,5,60,0.15,1,0,-,180,0.7278774000005797,['n'],1.5587482999981148,1.392,2478.4003766999995,,,,,501,19,Woman,Right,
,,,,,,,,,,,,,,,,,501,19,Woman,Right,5,51,0.15,2,180,0,0,0.5057500000002619,['n'],1.014283600001363,1.616,2483.450235299999,,,,,501,19,Woman,Right,
,,,,,,,,,,,,,,,,,501,19,Woman,Right,5,73,0.15,2,0,180,0,0.33798659999956726,['n'],0.6707907999989402,1.432,2486.8996374000017,,,,,501,19,Woman,Right,
,,,,,,,,,,,,,,,,,501,19,Woman,Right,5,55,0.15,2,180,0,180,0.8047496999970463,['n'],0.6144201000024623,1.3559999999999999,2490.883544600001,,,,,501,19,Woman,Right,
,,,,,,,,,,,,,,,,,501,19,Woman,Right,5,29,0.4,2,0,180,180,1.056621499999892,['y'],1.2541573000016797,1.662,2495.716959600002,,,,,501,19,Woman,Right,
,,,,,,,,,,,,,,,,,501,19,Woman,Right,5,30,0.4,1,180,-,180,0.5194112999997742,['n'],0.526649899999029,1.788,2499.3010318999986,,,,,501,19,Woman,Right,
,,,,,,,,,,,,,,,,,501,19,Woman,Right,5,19,0.4,2,180,0,0,0.5347280000023602,['y'],0.8780052000001888,1.756,2503.334783099999,,,,,501,19,Woman,Right,
,,,,,,,,,,,,,,,,,501,19,Woman,Right,5,53,0.15,2,0,180,0,0.6480593000014778,['n'],2.7907832999990205,1.686,2509.532626600001,,,,,501,19,Woman,Right,
,,,,,,,,,,,,,,,,,501,19,Woman,Right,5,6,1,1,180,-,180,0.6141663999987941,['n'],1.5339445999998134,1.824,2514.3998925999986,,,,,501,19,Woman,Right,
,,,,,,,,,,,,,,,,,501,19,Woman,Right,5,61,0.15,2,0,180,180,0.692782599999191,['n'],0.6145099999994272,1.6680000000000001,2518.1338393000005,,,,,501,19,Woman,Right,
,,,,,,,,,,,,,,,,,501,19,Woman,Right,5,7,1,2,180,0,0,0.5276537999998254,['y'],0.5823191000017687,1.696,2521.5672583000014,,,,,501,19,Woman,Right,
,,,,,,,,,,,,,,,,,501,19,Woman,Right,5,2,1,1,180,-,180,0.41214639999816427,['n'],0.5109454000012192,1.698,2524.8501725999995,,,,,501,19,Woman,Right,
,,,,,,,,,,,,,,,,,501,19,Woman,Right,5,11,0.4,2,180,0,0,0.6544225999969058,['y'],0.49466940000274917,1.756,2528.4001955999993,,,,,501,19,Woman,Right,
,,,,,,,,,,,,,,,,,501,19,Woman,Right,5,26,0.4,1,180,-,180,0.6599642999972275,['n'],1.2309187999999267,1.716,2532.7501085000004,,,,,501,19,Woman,Right,
,,,,,,,,,,,,,,,,,501,19,Woman,Right,5,15,0.4,2,180,0,0,0.5444090999990294,['y'],0.558067600002687,1.764,2536.1661256000007,,,,,501,19,Woman,Right,
,,,,,,,,,,,,,,,,,501,19,Woman,Right,5,37,0.4,2,0,180,180,0.8125677999996697,['y'],0.4945886000023165,1.764,2539.8160697999992,,,,,501,19,Woman,Right,
,,,,,,,,,,,,,,,,,501,19,Woman,Right,5,22,0.4,1,180,-,180,0.5471187000002828,['n'],0.3747006000012334,1.706,2543.366625300001,,,,,501,19,Woman,Right,
,,,,,,,,,,,,,,,,,501,19,Woman,Right,5,14,0.4,1,180,-,180,0.45981899999969755,['n'],0.6382797000005667,1.634,2547.0002513,,,,,501,19,Woman,Right,
,,,,,,,,,,,,,,,,,501,19,Woman,Right,5,1,1,2,0,180,180,0.6358944999992673,['y'],0.3581044999991718,1.758,2550.5000155999987,,,,,501,19,Woman,Right,
,,,,,,,,,,,,,,,,,501,19,Woman,Right,5,35,0.4,2,180,0,0,1.0711651999990863,['y'],0.5988878000025579,1.87,2554.4162804000007,,,,,501,19,Woman,Right,
,,,,,,,,,,,,,,,,,501,19,Woman,Right,5,32,0.4,1,0,-,0,0.5220329000003403,['n'],1.0148256000029505,1.87,2558.3664553000017,,,,,501,19,Woman,Right,
,,,,,,,,,,,,,,,,,501,19,Woman,Right,5,50,0.15,1,180,-,180,0.5737029000010807,['n'],0.8468494999979157,1.87,2562.3329182999987,,,,,501,19,Woman,Right,
,,,,,,,,,,,,,,,,,501,19,Woman,Right,5,77,0.15,2,0,180,0,0.5925750999995216,['n'],0.8949567000017851,1.922,2566.2662963000002,,,,,501,19,Woman,Right,
,,,,,,,,,,,,,,,,,501,19,Woman,Right,5,38,0.4,1,180,-,180,0.705925299997034,['n'],0.894286299997475,1.832,2570.299946700001,,,,,501,19,Woman,Right,
,,,,,,,,,,,,,,,,,501,19,Woman,Right,5,43,0.4,2,180,0,0,0.7893789999980072,['y'],0.574972099999286,1.768,2574.615546000001,,,,,501,19,Woman,Right,
,,,,,,,,,,,,,,,,,501,19,Woman,Right,5,27,0.4,2,180,0,0,0.35615900000266265,['y'],0.5670845000022382,1.76,2577.950100500002,,,,,501,19,Woman,Right,
,,,,,,,,,,,,,,,,,501,19,Woman,Right,5,56,0.15,1,0,-,180,0.32624769999893033,['y'],0.49479109999811044,1.212,2582.4658265,,,,,501,19,Woman,Right,
,,,,,,,,,,,,,,,,,501,19,Woman,Right,5,0,1,1,0,-,0,0.5757494999998016,['n'],0.4864568999983021,1.706,2586.0158862999997,,,,,501,19,Woman,Right,
,,,,,,,,,,,,,,,,,501,19,Woman,Right,5,46,0.15,1,180,-,180,0.7392891000017698,['n'],1.1430625000029977,1.706,2590.1333048999986,,,,,501,19,Woman,Right,
,,,,,,,,,,,,,,,,,501,19,Woman,Right,5,23,0.4,2,180,0,0,0.2657232000019576,['y'],2.1385602000009385,1.706,2594.9835609,,,,,501,19,Woman,Right,
,,,,,,,,,,,,,,,,,501,19,Woman,Right,5,44,0.15,1,0,-,0,0.3494461999980558,['n'],0.9581766000010248,1.676,2598.948924299999,,,,,501,19,Woman,Right,
,,,,,,,,,,,,,,,,,501,19,Woman,Right,5,40,0.4,1,0,-,0,0.5592679000001226,['n'],0.7905201000030502,1.634,2602.8833897000004,,,,,501,19,Woman,Right,
,,,,,,,,,,,,,,,,,501,19,Woman,Right,5,54,0.15,1,180,-,0,0.37851519999821903,['n'],0.6867801000007603,1.5939999999999999,2606.8821911000014,,,,,501,19,Woman,Right,
,,,,,,,,,,,,,,,,,501,19,Woman,Right,5,58,0.15,1,180,-,180,2.3444661000030464,['y'],0.4870483000013337,1.408,2612.865490600001,,,,,501,19,Woman,Right,
,,,,,,,,,,,,,,,,,501,19,Woman,Right,5,68,0.15,1,0,-,180,0.36163260000103037,['n'],0.5270313000000897,1.63,2616.932291199999,,,,,501,19,Woman,Right,
,,,,,,,,,,,,,,,,,501,19,Woman,Right,5,3,1,2,180,0,0,0.8829893000001903,['y'],0.975107800000842,1.6480000000000001,2621.383359899999,,,,,501,19,Woman,Right,
,,,,,,,,,,,,,,,,,501,19,Woman,Right,5,42,0.4,1,180,-,0,0.677807699998084,['n'],5.215179400001944,1.6480000000000001,2629.6824261,,,,,501,19,Woman,Right,
,,,,,,,,,,,,,,,,,501,19,Woman,Right,5,57,0.15,2,0,180,180,1.513204400001996,['n'],0.8064084999969054,1.612,2634.549358700002,,,,,501,19,Woman,Right,
,,,,,,,,,,,,,,,,,501,19,Woman,Right,5,69,0.15,2,0,180,0,0.5035566999977164,['n'],0.7506988999994064,1.5819999999999999,2638.248832699999,,,,,501,19,Woman,Right,
,,,,,,,,,,,,,,,,,501,19,Woman,Right,5,20,0.4,1,0,-,0,0.9445604999964416,['n'],1.1026308999971661,1.674,2642.849091100001,,,,,501,19,Woman,Right,
,,,,,,,,,,,,,,,,,501,19,Woman,Right,5,64,0.15,1,0,-,180,0.6738249000009091,['n'],1.2870660000007774,1.6320000000000001,2647.399416700002,,,,,501,19,Woman,Right,
,,,,,,,,,,,,,,,,,,,,,,,,,,,,,,,,,72.5,95.0,52.5,2377.8077994000014,,,,,
