p_block,p_section,p_coherence,p_direction1,p_direction2,p_direction_response,p_direction_RT,p_change_response,p_change_RT,p_confidence,p_full_correct,p_without5_correct,p_full_total,p_without5_total,p_full_avg,p_witout5_avg,p_total_time,sub,age,sex,handedness,loop,trial randomization,coherence,condition,direction1,direction2,direction_response,direction_RT,change_response,change_RT,change_confidence,change_confidence_RT,block_direction_avg,block_stable_avg,block_change_avg,total_time,sub,age,sex,handedness,
1,1,1.0,180,-,180,4.420202100000097,-,-,-,,,,,,,,540,21,Woman,Right,,,,,,,,,,,,,,,,,540,21,Woman,Right,
1,1,1.0,0,-,0,0.39653500000008535,-,-,-,,,,,,,,540,21,Woman,Right,,,,,,,,,,,,,,,,,540,21,Woman,Right,
1,1,1.0,0,-,0,0.49965899999983776,-,-,-,,,,,,,,540,21,Woman,Right,,,,,,,,,,,,,,,,,540,21,Woman,Right,
1,1,1.0,0,-,0,0.4139744999999948,-,-,-,,,,,,,,540,21,Woman,Right,,,,,,,,,,,,,,,,,540,21,Woman,Right,
1,1,1.0,180,-,180,0.407831299999998,-,-,-,,,,,,,,540,21,Woman,Right,,,,,,,,,,,,,,,,,540,21,Woman,Right,
1,1,1.0,180,-,180,0.3548117000000275,-,-,-,,,,,,,,540,21,Woman,Right,,,,,,,,,,,,,,,,,540,21,Woman,Right,
1,1,1.0,0,-,0,0.3177680999999666,-,-,-,,,,,,,,540,21,Woman,Right,,,,,,,,,,,,,,,,,540,21,Woman,Right,
1,1,1.0,0,-,0,0.24359739999999874,-,-,-,,,,,,,,540,21,Woman,Right,,,,,,,,,,,,,,,,,540,21,Woman,Right,
1,1,1.0,0,-,0,0.11621859999991102,-,-,-,,,,,,,,540,21,Woman,Right,,,,,,,,,,,,,,,,,540,21,Woman,Right,
1,1,1.0,180,-,180,0.2997608999999102,-,-,-,10,10,10,10,1.0,1.0,,540,21,Woman,Right,,,,,,,,,,,,,,,,,540,21,Woman,Right,
2,1,0.4,0,-,0,0.321588500000189,-,-,-,,,,,,,,540,21,Woman,Right,,,,,,,,,,,,,,,,,540,21,Woman,Right,
2,1,0.4,180,-,180,0.24711419999994177,-,-,-,,,,,,,,540,21,Woman,Right,,,,,,,,,,,,,,,,,540,21,Woman,Right,
2,1,0.4,0,-,0,0.2884968000000754,-,-,-,,,,,,,,540,21,Woman,Right,,,,,,,,,,,,,,,,,540,21,Woman,Right,
2,1,0.4,0,-,0,0.31910229999994044,-,-,-,,,,,,,,540,21,Woman,Right,,,,,,,,,,,,,,,,,540,21,Woman,Right,
2,1,0.15,0,-,0,0.316715300000169,-,-,-,,,,,,,,540,21,Woman,Right,,,,,,,,,,,,,,,,,540,21,Woman,Right,
2,1,0.15,0,-,0,0.4257967999999437,-,-,-,,,,,,,,540,21,Woman,Right,,,,,,,,,,,,,,,,,540,21,Woman,Right,
2,1,0.4,180,-,180,0.2831461999999192,-,-,-,,,,,,,,540,21,Woman,Right,,,,,,,,,,,,,,,,,540,21,Woman,Right,
2,1,0.15,0,-,0,0.4585971999999856,-,-,-,,,,,,,,540,21,Woman,Right,,,,,,,,,,,,,,,,,540,21,Woman,Right,
2,1,0.4,180,-,180,0.23456569999984822,-,-,-,,,,,,,,540,21,Woman,Right,,,,,,,,,,,,,,,,,540,21,Woman,Right,
2,1,0.4,0,-,0,0.14723380000009456,-,-,-,10,7,10,7,1.0,1.0,,540,21,Woman,Right,,,,,,,,,,,,,,,,,540,21,Woman,Right,
3,2,1.0,0,180,180,3.0972825000001194,['y'],4.533490799999981,2.0,,,,,,,,540,21,Woman,Right,,,,,,,,,,,,,,,,,540,21,Woman,Right,
3,2,1.0,0,180,180,0.7412512000000788,['y'],3.350277200000164,2.0,,,,,,,,540,21,Woman,Right,,,,,,,,,,,,,,,,,540,21,Woman,Right,
3,2,1.0,180,0,0,0.6893522999998822,['y'],1.3809605999999803,2.0,,,,,,,,540,21,Woman,Right,,,,,,,,,,,,,,,,,540,21,Woman,Right,
3,2,1.0,0,180,180,1.0097889999999552,['y'],0.9450206000001344,2.0,,,,,,,,540,21,Woman,Right,,,,,,,,,,,,,,,,,540,21,Woman,Right,
3,2,1.0,180,0,0,0.3836512999998831,['y'],0.3201438999999482,2.0,,,,,,,,540,21,Woman,Right,,,,,,,,,,,,,,,,,540,21,Woman,Right,
3,2,1.0,180,0,0,0.6588851000001341,['y'],2.129099700000097,2.0,,,,,,,,540,21,Woman,Right,,,,,,,,,,,,,,,,,540,21,Woman,Right,
3,2,1.0,180,0,0,0.4827642000000196,['y'],0.2547810000000936,2.0,,,,,,,,540,21,Woman,Right,,,,,,,,,,,,,,,,,540,21,Woman,Right,
3,2,1.0,0,180,180,0.6188664000001154,['y'],0.25102289999995264,2.0,,,,,,,,540,21,Woman,Right,,,,,,,,,,,,,,,,,540,21,Woman,Right,
3,2,1.0,180,0,0,0.318331500000113,['y'],0.857527100000425,2.0,,,,,,,,540,21,Woman,Right,,,,,,,,,,,,,,,,,540,21,Woman,Right,
3,2,1.0,180,0,0,0.28048290000015186,['y'],0.26047239999979865,2.0,10,10,10,10,1.0,1.0,,540,21,Woman,Right,,,,,,,,,,,,,,,,,540,21,Woman,Right,
4,2,0.4,180,0,0,0.5725601999997707,['y'],1.6687927000002674,2.0,,,,,,,,540,21,Woman,Right,,,,,,,,,,,,,,,,,540,21,Woman,Right,
4,2,0.4,180,0,0,0.3790422000001854,['y'],1.3397840000002361,2.0,,,,,,,,540,21,Woman,Right,,,,,,,,,,,,,,,,,540,21,Woman,Right,
4,2,0.15,180,0,180,0.868302699999731,['y'],2.1757345999999416,2.0,,,,,,,,540,21,Woman,Right,,,,,,,,,,,,,,,,,540,21,Woman,Right,
4,2,0.4,180,0,0,0.34220329999971,['y'],1.4250232999997934,2.0,,,,,,,,540,21,Woman,Right,,,,,,,,,,,,,,,,,540,21,Woman,Right,
4,2,0.15,180,0,180,2.6231534999997166,['n'],3.534606100000019,1.0,,,,,,,,540,21,Woman,Right,,,,,,,,,,,,,,,,,540,21,Woman,Right,
4,2,0.4,180,0,0,0.5993453999999474,['y'],4.840173099999902,2.0,,,,,,,,540,21,Woman,Right,,,,,,,,,,,,,,,,,540,21,Woman,Right,
4,2,0.15,0,180,0,3.5315905000002203,['n'],1.8700112999999874,1.0,,,,,,,,540,21,Woman,Right,,,,,,,,,,,,,,,,,540,21,Woman,Right,
4,2,0.4,0,180,180,0.7859646000001703,['y'],1.4743963999999323,2.0,,,,,,,,540,21,Woman,Right,,,,,,,,,,,,,,,,,540,21,Woman,Right,
4,2,0.15,180,0,180,2.1539506999997684,['n'],2.4765809999998964,1.0,,,,,,,,540,21,Woman,Right,,,,,,,,,,,,,,,,,540,21,Woman,Right,
4,2,0.15,0,180,180,1.544087700000091,['n'],4.034952700000304,1.0,6,5,10,5,0.6,1.0,,540,21,Woman,Right,,,,,,,,,,,,,,,,,540,21,Woman,Right,
5,3,0.15,180,0,0,0.5495650999996542,['y'],1.905469499999981,2.0,,,,,,,,540,21,Woman,Right,,,,,,,,,,,,,,,,,540,21,Woman,Right,
5,3,1.0,180,0,0,0.2946028999999726,['y'],0.5877408999999716,2.0,,,,,,,,540,21,Woman,Right,,,,,,,,,,,,,,,,,540,21,Woman,Right,
5,3,0.15,180,-,180,0.8512734000000819,['n'],1.3611276000001453,1.6059999999999999,,,,,,,,540,21,Woman,Right,,,,,,,,,,,,,,,,,540,21,Woman,Right,
5,3,0.15,180,-,0,1.189492699999846,['y'],0.9500490000000354,1.0,,,,,,,,540,21,Woman,Right,,,,,,,,,,,,,,,,,540,21,Woman,Right,
5,3,0.15,180,0,0,0.6950429000003169,['y'],2.019318199999816,1.67,,,,,,,,540,21,Woman,Right,,,,,,,,,,,,,,,,,540,21,Woman,Right,
5,3,0.15,180,-,180,1.4128603999997722,['n'],0.6293858000003638,2.0,,,,,,,,540,21,Woman,Right,,,,,,,,,,,,,,,,,540,21,Woman,Right,
5,3,1.0,0,180,180,0.48396550000006755,['y'],0.29747439999982817,2.0,,,,,,,,540,21,Woman,Right,,,,,,,,,,,,,,,,,540,21,Woman,Right,
5,3,0.15,180,-,180,1.3210355999999592,['n'],0.7328127000000677,1.744,,,,,,,,540,21,Woman,Right,,,,,,,,,,,,,,,,,540,21,Woman,Right,
5,3,0.4,0,180,180,0.36201230000006035,['y'],0.26073840000026394,2.0,,,,,,,,540,21,Woman,Right,,,,,,,,,,,,,,,,,540,21,Woman,Right,
5,3,0.15,180,-,180,1.0682173999998668,['n'],1.7136198000002878,1.676,9,3,10,3,0.9,1.0,,540,21,Woman,Right,,,,,,,,,,,,,,,,,540,21,Woman,Right,
,,,,,,,,,,,,,,,,4.7999997150327545e-06,540,21,Woman,Right,,,,,,,,,,,,,,,,,540,21,Woman,Right,
,,,,,,,,,,,,,,,,,540,21,Woman,Right,0,4,1,1,0,-,0,1.7845453999998426,['n'],3.4617364999999154,2.0,333.01879239999994,,,,,540,21,Woman,Right,
,,,,,,,,,,,,,,,,,540,21,Woman,Right,0,71,0.15,2,180,0,180,1.2909765999997944,['n'],2.029533099999753,1.756,341.1349600000001,,,,,540,21,Woman,Right,
,,,,,,,,,,,,,,,,,540,21,Woman,Right,0,26,0.4,1,180,-,180,0.678252799999882,['n'],2.5336185000001024,1.804,348.06804780000016,,,,,540,21,Woman,Right,
,,,,,,,,,,,,,,,,,540,21,Woman,Right,0,20,0.4,1,0,-,0,0.7521069999997962,['n'],1.3179291999999805,1.784,353.5510449000001,,,,,540,21,Woman,Right,
,,,,,,,,,,,,,,,,,540,21,Woman,Right,0,0,1,1,0,-,0,0.7183608999998796,['n'],1.8700590999997075,1.752,360.0185755,,,,,540,21,Woman,Right,
,,,,,,,,,,,,,,,,,540,21,Woman,Right,0,2,1,1,180,-,180,0.682539700000234,['n'],1.3581473999997797,1.742,366.0175544000001,,,,,540,21,Woman,Right,
,,,,,,,,,,,,,,,,,540,21,Woman,Right,0,22,0.4,1,180,-,180,1.0111841000002642,['n'],2.7420296000000235,1.704,373.8018298999998,,,,,540,21,Woman,Right,
,,,,,,,,,,,,,,,,,540,21,Woman,Right,0,18,0.4,1,180,-,180,0.40618510000012975,['n'],1.1017040000001543,1.734,379.5849406,,,,,540,21,Woman,Right,
,,,,,,,,,,,,,,,,,540,21,Woman,Right,0,51,0.15,2,180,0,180,3.351572500000202,['n'],2.2856479000001855,1.306,388.9178325999999,,,,,540,21,Woman,Right,
,,,,,,,,,,,,,,,,,540,21,Woman,Right,0,30,0.4,1,180,-,180,0.7124242999998387,['n'],1.045770900000207,1.68,394.1514006,,,,,540,21,Woman,Right,
,,,,,,,,,,,,,,,,,540,21,Woman,Right,0,7,1,2,180,0,0,0.5739980000003015,['y'],2.3015832000000955,1.684,401.7518386999998,,,,,540,21,Woman,Right,
,,,,,,,,,,,,,,,,,540,21,Woman,Right,0,42,0.4,1,180,-,180,1.2205214000000524,['n'],1.045700399999987,1.726,407.7675406999999,,,,,540,21,Woman,Right,
,,,,,,,,,,,,,,,,,540,21,Woman,Right,0,67,0.15,2,180,0,0,1.0205802000000403,['y'],2.805714699999953,1.422,415.3514438999998,,,,,540,21,Woman,Right,
,,,,,,,,,,,,,,,,,540,21,Woman,Right,0,64,0.15,1,0,-,0,0.9224205999998958,['n'],1.8778361999998197,1.616,423.2346804000001,,,,,540,21,Woman,Right,
,,,,,,,,,,,,,,,,,540,21,Woman,Right,0,1,1,2,0,180,180,0.4216498999999203,['y'],2.534124300000258,1.838,429.7348245999999,,,,,540,21,Woman,Right,
,,,,,,,,,,,,,,,,,540,21,Woman,Right,0,10,0.4,1,180,-,180,1.0478613999998743,['n'],1.1580153999998402,1.706,435.4012556,,,,,540,21,Woman,Right,
,,,,,,,,,,,,,,,,,540,21,Woman,Right,0,54,0.15,1,180,-,180,0.6780040000003282,['n'],0.9499069999997118,1.748,440.3349678000002,,,,,540,21,Woman,Right,
,,,,,,,,,,,,,,,,,540,21,Woman,Right,0,32,0.4,1,0,-,0,0.642827600000146,['n'],1.534223000000111,1.804,445.6347152999999,,,,,540,21,Woman,Right,
,,,,,,,,,,,,,,,,,540,21,Woman,Right,0,59,0.15,2,180,0,0,0.8751677999998719,['y'],1.5020667999997386,1.6480000000000001,451.03418959999976,,,,,540,21,Woman,Right,
,,,,,,,,,,,,,,,,,540,21,Woman,Right,0,34,0.4,1,180,-,180,0.6386971000001722,['n'],1.326655700000174,1.794,456.35087150000004,,,,,540,21,Woman,Right,
,,,,,,,,,,,,,,,,,540,21,Woman,Right,0,50,0.15,1,180,-,0,1.936500199999955,['y'],1.6147538000000168,1.346,463.40202250000016,,,,,540,21,Woman,Right,
,,,,,,,,,,,,,,,,,540,21,Woman,Right,0,40,0.4,1,0,-,0,0.6702444000002288,['n'],1.3508310000001984,1.642,468.5019509000001,,,,,540,21,Woman,Right,
,,,,,,,,,,,,,,,,,540,21,Woman,Right,0,68,0.15,1,0,-,0,0.9701912000000448,['n'],1.0623731999999109,1.694,473.36858000000007,,,,,540,21,Woman,Right,
,,,,,,,,,,,,,,,,,540,21,Woman,Right,0,74,0.15,1,180,-,180,1.6796100999999908,['n'],2.9502657000002728,1.346,482.8190182999999,,,,,540,21,Woman,Right,
,,,,,,,,,,,,,,,,,540,21,Woman,Right,0,37,0.4,2,0,180,180,0.5529572000000371,['y'],1.3023818000001484,2.0,488.13470040000016,,,,,540,21,Woman,Right,
,,,,,,,,,,,,,,,,,540,21,Woman,Right,0,65,0.15,2,0,180,0,1.184108599999945,['n'],1.0466428999998243,1.67,493.53466820000017,,,,,540,21,Woman,Right,
,,,,,,,,,,,,,,,,,540,21,Woman,Right,0,45,0.15,2,0,180,0,1.2172900999999001,['n'],2.6466577000001053,1.6440000000000001,500.63471939999977,,,,,540,21,Woman,Right,
,,,,,,,,,,,,,,,,,540,21,Woman,Right,0,63,0.15,2,180,0,180,0.9878687999998874,['n'],1.334899200000109,1.774,505.8847059000002,,,,,540,21,Woman,Right,
,,,,,,,,,,,,,,,,,540,21,Woman,Right,0,28,0.4,1,0,-,0,0.9558957999997801,['n'],1.1901936000003843,1.704,511.0025109999999,,,,,540,21,Woman,Right,
,,,,,,,,,,,,,,,,,540,21,Woman,Right,0,78,0.15,1,180,-,180,1.0708667000003516,['y'],1.054747199999838,1.4060000000000001,517.1350842999998,,,,,540,21,Woman,Right,
,,,,,,,,,,,,,,,,,540,21,Woman,Right,0,76,0.15,1,0,-,0,1.3216505999998844,['n'],1.3585274999995818,1.392,523.5511571999998,,,,,540,21,Woman,Right,
,,,,,,,,,,,,,,,,,540,21,Woman,Right,0,75,0.15,2,180,0,180,2.8549552999998014,['n'],1.1024850999997398,1.3639999999999999,531.0508511999999,,,,,540,21,Woman,Right,
,,,,,,,,,,,,,,,,,540,21,Woman,Right,0,39,0.4,2,180,0,0,0.6336541999999099,['y'],1.1985862000001362,2.0,535.9513490000002,,,,,540,21,Woman,Right,
,,,,,,,,,,,,,,,,,540,21,Woman,Right,0,8,0.4,1,0,-,0,0.6472300999998879,['n'],1.4142907000000378,1.982,541.1842180000001,,,,,540,21,Woman,Right,
,,,,,,,,,,,,,,,,,540,21,Woman,Right,0,35,0.4,2,180,0,0,0.47733960000005027,['y'],1.47099419999995,2.0,546.1340959000001,,,,,540,21,Woman,Right,
,,,,,,,,,,,,,,,,,540,21,Woman,Right,0,24,0.4,1,0,-,0,0.6504496000002291,['n'],1.1745923000003131,2.0,550.9185372,,,,,540,21,Woman,Right,
,,,,,,,,,,,,,,,,,540,21,Woman,Right,0,69,0.15,2,0,180,180,1.0685405999997784,['y'],1.0948575000002165,1.298,556.3353638000001,,,,,540,21,Woman,Right,
,,,,,,,,,,,,,,,,,540,21,Woman,Right,0,21,0.4,2,0,180,180,0.5195655999996234,['y'],1.2549371000000065,1.322,560.9515886000002,,,,,540,21,Woman,Right,
,,,,,,,,,,,,,,,,,540,21,Woman,Right,0,25,0.4,2,0,180,180,0.27724069999976564,['y'],1.727194000000054,1.346,565.8512225000002,,,,,540,21,Woman,Right,
,,,,,,,,,,,,,,,,,540,21,Woman,Right,0,5,1,2,0,180,180,0.2589821000001393,['y'],0.8713892000000669,1.308,569.9678935999998,,,,,540,21,Woman,Right,
,,,,,,,,,,,,,,,,,540,21,Woman,Right,0,57,0.15,2,0,180,180,0.6074645000003329,['y'],0.8870274000000791,1.288,574.9012399000001,,,,,540,21,Woman,Right,
,,,,,,,,,,,,,,,,,540,21,Woman,Right,0,17,0.4,2,0,180,180,0.7712563000000046,['y'],1.5988689000000704,1.74,581.1849261999998,,,,,540,21,Woman,Right,
,,,,,,,,,,,,,,,,,540,21,Woman,Right,0,36,0.4,1,0,-,0,1.9949232999997548,['n'],1.519438899999841,1.832,589.0672091999998,,,,,540,21,Woman,Right,
,,,,,,,,,,,,,,,,,540,21,Woman,Right,0,61,0.15,2,0,180,180,1.1651991999997335,['n'],1.4473680999999488,1.342,594.8512383,,,,,540,21,Woman,Right,
,,,,,,,,,,,,,,,,,540,21,Woman,Right,0,15,0.4,2,180,0,0,0.39904759999990347,['y'],1.206900399999995,2.0,599.2851428000001,,,,,540,21,Woman,Right,
,,,,,,,,,,,,,,,,,540,21,Woman,Right,0,62,0.15,1,180,-,180,0.5890190999998595,['n'],1.5275262999998631,1.276,604.1848917999998,,,,,540,21,Woman,Right,
,,,,,,,,,,,,,,,,,540,21,Woman,Right,0,73,0.15,2,0,180,0,1.9038032999997085,['n'],2.295091500000126,1.38,611.6182639000001,,,,,540,21,Woman,Right,
,,,,,,,,,,,,,,,,,540,21,Woman,Right,0,38,0.4,1,180,-,180,0.5753827999997156,['n'],1.1993453000000045,1.71,616.9857678999999,,,,,540,21,Woman,Right,
,,,,,,,,,,,,,,,,,540,21,Woman,Right,0,16,0.4,1,0,-,0,0.6645849000001363,['n'],1.1749816999999894,1.726,621.7517961000001,,,,,540,21,Woman,Right,
,,,,,,,,,,,,,,,,,540,21,Woman,Right,0,55,0.15,2,180,0,0,0.89789299999984,['y'],1.4388427000003503,1.62,627.3842133999999,,,,,540,21,Woman,Right,
,,,,,,,,,,,,,,,,,540,21,Woman,Right,0,48,0.15,1,0,-,0,0.45229410000001735,['n'],1.1671754999997574,1.696,632.2346660999999,,,,,540,21,Woman,Right,
,,,,,,,,,,,,,,,,,540,21,Woman,Right,0,47,0.15,2,180,0,0,2.389749800000118,['y'],1.7276377000002867,1.374,639.4346274000002,,,,,540,21,Woman,Right,
,,,,,,,,,,,,,,,,,540,21,Woman,Right,0,44,0.15,1,0,-,0,0.8034579000000122,['n'],1.4953817000000527,1.634,645.6516574999998,,,,,540,21,Woman,Right,
,,,,,,,,,,,,,,,,,540,21,Woman,Right,0,66,0.15,1,180,-,180,0.9967127999998411,['n'],1.35945109999966,1.366,651.4678534000002,,,,,540,21,Woman,Right,
,,,,,,,,,,,,,,,,,540,21,Woman,Right,0,27,0.4,2,180,0,0,0.7262915999999677,['y'],1.2552104999999756,2.0,656.1343862000001,,,,,540,21,Woman,Right,
,,,,,,,,,,,,,,,,,540,21,Woman,Right,0,14,0.4,1,180,-,180,0.41758290000007037,['n'],1.151375200000075,2.0,660.5017737999999,,,,,540,21,Woman,Right,
,,,,,,,,,,,,,,,,,540,21,Woman,Right,0,13,0.4,2,0,180,180,0.4579610999999204,['y'],0.9359606000002714,2.0,664.9184035000001,,,,,540,21,Woman,Right,
,,,,,,,,,,,,,,,,,540,21,Woman,Right,0,60,0.15,1,0,-,0,0.48570999999992637,['n'],1.1358948000001874,2.0,669.6176745,,,,,540,21,Woman,Right,
,,,,,,,,,,,,,,,,,540,21,Woman,Right,0,11,0.4,2,180,0,0,0.4150955999998587,['y'],0.8952500000000327,2.0,674.1514816000001,,,,,540,21,Woman,Right,
,,,,,,,,,,,,,,,,,540,21,Woman,Right,0,58,0.15,1,180,-,180,0.9310592000001634,['y'],1.1597504000001209,1.298,679.2175498999998,,,,,540,21,Woman,Right,
,,,,,,,,,,,,,,,,,540,21,Woman,Right,0,70,0.15,1,180,-,180,3.7422326999999314,['n'],1.4643779999996696,1.146,688.4685910000001,,,,,540,21,Woman,Right,
,,,,,,,,,,,,,,,,,540,21,Woman,Right,0,3,1,2,180,0,0,0.3795030000001134,['y'],1.3120773999999074,2.0,693.8517264,,,,,540,21,Woman,Right,
,,,,,,,,,,,,,,,,,540,21,Woman,Right,0,79,0.15,2,180,0,180,1.1878474000000097,['n'],2.167993099999876,1.284,700.2841667,,,,,540,21,Woman,Right,
,,,,,,,,,,,,,,,,,540,21,Woman,Right,0,29,0.4,2,0,180,180,0.2670843999999306,['y'],6.135900499999934,1.694,709.7839181000002,,,,,540,21,Woman,Right,
,,,,,,,,,,,,,,,,,540,21,Woman,Right,0,9,0.4,2,0,180,180,0.2659330999999838,['y'],0.9760366000000431,2.0,713.7847144,,,,,540,21,Woman,Right,
,,,,,,,,,,,,,,,,,540,21,Woman,Right,0,56,0.15,1,0,-,0,0.6803820000000087,['n'],4.800176499999907,2.0,722.3840917,,,,,540,21,Woman,Right,
,,,,,,,,,,,,,,,,,540,21,Woman,Right,0,23,0.4,2,180,0,0,0.3069774000000507,['y'],0.903711899999962,2.0,726.3351363999998,,,,,540,21,Woman,Right,
,,,,,,,,,,,,,,,,,540,21,Woman,Right,0,41,0.4,2,0,180,180,0.579968000000008,['y'],0.8881796000000577,2.0,730.7512697999998,,,,,540,21,Woman,Right,
,,,,,,,,,,,,,,,,,540,21,Woman,Right,0,6,1,1,180,-,180,0.9858703999998397,['n'],1.1198327000001882,2.0,736.7512408,,,,,540,21,Woman,Right,
,,,,,,,,,,,,,,,,,540,21,Woman,Right,0,43,0.4,2,180,0,0,0.28302380000013727,['y'],1.3922511999999188,2.0,741.1845308,,,,,540,21,Woman,Right,
,,,,,,,,,,,,,,,,,540,21,Woman,Right,0,33,0.4,2,0,180,180,0.24048999999968146,['y'],1.2882556000004115,2.0,745.5350142999998,,,,,540,21,Woman,Right,
,,,,,,,,,,,,,,,,,540,21,Woman,Right,0,31,0.4,2,180,0,0,0.3470587000001615,['y'],1.400132400000075,2.0,749.8514514000001,,,,,540,21,Woman,Right,
,,,,,,,,,,,,,,,,,540,21,Woman,Right,0,46,0.15,1,180,-,180,1.1991391999999905,['n'],1.2162285999997948,1.312,755.1679975999998,,,,,540,21,Woman,Right,
,,,,,,,,,,,,,,,,,540,21,Woman,Right,0,19,0.4,2,180,0,0,0.4268722000001617,['y'],1.279975899999954,2.0,759.451249,,,,,540,21,Woman,Right,
,,,,,,,,,,,,,,,,,540,21,Woman,Right,0,12,0.4,1,0,-,0,0.7168202999996538,['n'],0.9233208000000559,2.0,763.8845939,,,,,540,21,Woman,Right,
,,,,,,,,,,,,,,,,,540,21,Woman,Right,0,77,0.15,2,0,180,0,0.6466792999999598,['n'],0.992650500000309,1.784,768.3186122999998,,,,,540,21,Woman,Right,
,,,,,,,,,,,,,,,,,540,21,Woman,Right,0,72,0.15,1,0,-,0,0.4675947000000633,['n'],0.9359217999999601,2.0,772.9341999999999,,,,,540,21,Woman,Right,
,,,,,,,,,,,,,,,,,540,21,Woman,Right,0,52,0.15,1,0,-,0,0.3672057000003406,['n'],1.1283230999997613,2.0,777.3012929999998,,,,,540,21,Woman,Right,
,,,,,,,,,,,,,,,,,540,21,Woman,Right,0,53,0.15,2,0,180,0,0.9090878000001794,['n'],2.68004480000036,1.822,783.5840028999999,,,,,540,21,Woman,Right,
,,,,,,,,,,,,,,,,,540,21,Woman,Right,0,49,0.15,2,0,180,0,0.4847997000001669,['n'],2.607994999999846,1.828,790.3183866000002,,,,,540,21,Woman,Right,
,,,,,,,,,,,,,,,,,540,21,Woman,Right,1,64,0.15,1,0,-,0,1.0492745000001378,['n'],1.5531746000001476,2.0,843.0849965999998,85.0,92.5,70.0,,540,21,Woman,Right,
,,,,,,,,,,,,,,,,,540,21,Woman,Right,1,5,1,2,0,180,180,0.4105058000000099,['n'],2.9207508999998026,2.0,849.7017496000001,,,,,540,21,Woman,Right,
,,,,,,,,,,,,,,,,,540,21,Woman,Right,1,39,0.4,2,180,0,0,0.427353900000071,['y'],2.3527145000002747,2.0,855.2519457000001,,,,,540,21,Woman,Right,
,,,,,,,,,,,,,,,,,540,21,Woman,Right,1,45,0.15,2,0,180,180,0.598410199999762,['y'],1.1124377000001004,1.784,860.3513245000001,,,,,540,21,Woman,Right,
,,,,,,,,,,,,,,,,,540,21,Woman,Right,1,8,0.4,1,0,-,0,0.47497329999987414,['n'],1.0566045000000486,2.0,864.5342294,,,,,540,21,Woman,Right,
,,,,,,,,,,,,,,,,,540,21,Woman,Right,1,65,0.15,2,0,180,180,0.39441160000023956,['y'],0.9851974999996855,1.678,868.6012060999999,,,,,540,21,Woman,Right,
,,,,,,,,,,,,,,,,,540,21,Woman,Right,1,30,0.4,1,180,-,180,0.5590133999999125,['n'],1.0969230999999127,1.678,877.1840868000002,,,,,540,21,Woman,Right,
,,,,,,,,,,,,,,,,,540,21,Woman,Right,1,9,0.4,2,0,180,180,0.39366819999986546,['y'],1.0408511000000544,1.962,881.7012069,,,,,540,21,Woman,Right,
,,,,,,,,,,,,,,,,,540,21,Woman,Right,1,71,0.15,2,180,0,0,0.48702040000034685,['y'],1.0006585999999515,1.6440000000000001,886.3847370000001,,,,,540,21,Woman,Right,
,,,,,,,,,,,,,,,,,540,21,Woman,Right,1,18,0.4,1,180,-,180,0.38177159999986543,['n'],1.089039800000137,2.0,890.5840602999999,,,,,540,21,Woman,Right,
,,,,,,,,,,,,,,,,,540,21,Woman,Right,1,23,0.4,2,180,0,0,0.35354400000005626,['y'],0.8646984000001794,2.0,894.4180749999998,,,,,540,21,Woman,Right,
,,,,,,,,,,,,,,,,,540,21,Woman,Right,1,3,1,2,180,0,0,0.33587290000014036,['y'],0.7365692000003037,2.0,898.284069,,,,,540,21,Woman,Right,
,,,,,,,,,,,,,,,,,540,21,Woman,Right,1,61,0.15,2,0,180,0,1.3495528999997077,['n'],2.441243200000372,2.0,905.7015807,,,,,540,21,Woman,Right,
,,,,,,,,,,,,,,,,,540,21,Woman,Right,1,68,0.15,1,0,-,0,0.35661209999989296,['n'],4.809796600000027,1.992,913.8012446,,,,,540,21,Woman,Right,
,,,,,,,,,,,,,,,,,540,21,Woman,Right,1,46,0.15,1,180,-,180,0.6453403999998955,['n'],1.2007693000000472,1.316,920.0849675000002,,,,,540,21,Woman,Right,
,,,,,,,,,,,,,,,,,540,21,Woman,Right,1,75,0.15,2,180,0,0,0.7141937000001235,['y'],1.0646774000001642,1.184,925.0512992000001,,,,,540,21,Woman,Right,
,,,,,,,,,,,,,,,,,540,21,Woman,Right,1,17,0.4,2,0,180,180,0.5006510000002891,['y'],1.0251312999998845,1.642,930.6346043000001,,,,,540,21,Woman,Right,
,,,,,,,,,,,,,,,,,540,21,Woman,Right,1,44,0.15,1,0,-,0,0.3759414999999535,['n'],0.8973359000001437,1.6560000000000001,935.6671312999999,,,,,540,21,Woman,Right,
,,,,,,,,,,,,,,,,,540,21,Woman,Right,1,21,0.4,2,0,180,180,0.3369518999998036,['y'],1.3775344999999106,2.0,940.1844755999998,,,,,540,21,Woman,Right,
,,,,,,,,,,,,,,,,,540,21,Woman,Right,1,27,0.4,2,180,0,0,1.145541299999877,['y'],1.016944599999988,1.686,945.1024151999998,,,,,540,21,Woman,Right,
,,,,,,,,,,,,,,,,,540,21,Woman,Right,1,31,0.4,2,180,0,0,0.6185705999996571,['y'],2.7217349000002287,2.0,951.1684745999999,,,,,540,21,Woman,Right,
,,,,,,,,,,,,,,,,,540,21,Woman,Right,1,20,0.4,1,0,-,0,0.3538997999999083,['n'],0.9612170999998852,2.0,955.3184448,,,,,540,21,Woman,Right,
,,,,,,,,,,,,,,,,,540,21,Woman,Right,1,74,0.15,1,180,-,0,0.8215624999997999,['y'],1.0176665000003595,1.278,961.0844507999998,,,,,540,21,Woman,Right,
,,,,,,,,,,,,,,,,,540,21,Woman,Right,1,6,1,1,180,-,180,0.5171918000000915,['n'],0.9532119000000421,2.0,965.6174743999998,,,,,540,21,Woman,Right,
,,,,,,,,,,,,,,,,,540,21,Woman,Right,1,53,0.15,2,0,180,0,0.3610177999998996,['n'],0.8495192999998835,2.0,969.6852233000002,,,,,540,21,Woman,Right,
,,,,,,,,,,,,,,,,,540,21,Woman,Right,1,14,0.4,1,180,-,180,0.6194645000000492,['n'],3.217265999999654,2.0,976.4849072,,,,,540,21,Woman,Right,
,,,,,,,,,,,,,,,,,540,21,Woman,Right,1,50,0.15,1,180,-,180,0.40567879999980505,['y'],0.9136280000002444,1.272,980.5840053,,,,,540,21,Woman,Right,
,,,,,,,,,,,,,,,,,540,21,Woman,Right,1,29,0.4,2,0,180,180,0.5901749999998174,['y'],0.8575849999997445,1.306,985.7011507999998,,,,,540,21,Woman,Right,
,,,,,,,,,,,,,,,,,540,21,Woman,Right,1,60,0.15,1,0,-,0,0.6302294000001893,['n'],0.8889740000004167,1.654,990.8683530000001,,,,,540,21,Woman,Right,
,,,,,,,,,,,,,,,,,540,21,Woman,Right,1,10,0.4,1,180,-,180,0.6626383000002534,['n'],1.2176588000002084,1.322,995.7011114999998,,,,,540,21,Woman,Right,
,,,,,,,,,,,,,,,,,540,21,Woman,Right,1,34,0.4,1,180,-,180,0.5344402999999147,['n'],0.97754359999999,1.32,1000.2011221999999,,,,,540,21,Woman,Right,
,,,,,,,,,,,,,,,,,540,21,Woman,Right,1,48,0.15,1,0,-,0,0.4166599000000133,['n'],4.258045200000197,1.6320000000000001,1009.1509755,,,,,540,21,Woman,Right,
,,,,,,,,,,,,,,,,,540,21,Woman,Right,1,52,0.15,1,0,-,0,1.0154803000000356,['n'],1.2813639999999396,1.26,1014.7025526,,,,,540,21,Woman,Right,
,,,,,,,,,,,,,,,,,540,21,Woman,Right,1,42,0.4,1,180,-,180,0.5953546999999162,['n'],1.953373300000294,1.334,1020.6680041000002,,,,,540,21,Woman,Right,
,,,,,,,,,,,,,,,,,540,21,Woman,Right,1,13,0.4,2,0,180,180,0.7405128000000332,['y'],1.2737761000003047,1.592,1026.1009268,,,,,540,21,Woman,Right,
,,,,,,,,,,,,,,,,,540,21,Woman,Right,1,15,0.4,2,180,0,0,0.6591745000000628,['y'],0.8898589999998876,1.77,1030.9682255,,,,,540,21,Woman,Right,
,,,,,,,,,,,,,,,,,540,21,Woman,Right,1,11,0.4,2,180,0,0,0.44210689999999886,['y'],0.8742972000000009,1.8980000000000001,1034.9845142000001,,,,,540,21,Woman,Right,
,,,,,,,,,,,,,,,,,540,21,Woman,Right,1,70,0.15,1,180,-,180,1.7286446000002798,['n'],1.1456026000000747,1.194,1040.9185995,,,,,540,21,Woman,Right,
,,,,,,,,,,,,,,,,,540,21,Woman,Right,1,63,0.15,2,180,0,0,0.4125301999997646,['n'],1.8978412999999819,1.3639999999999999,1046.9184020999999,,,,,540,21,Woman,Right,
,,,,,,,,,,,,,,,,,540,21,Woman,Right,1,69,0.15,2,0,180,0,0.942842699999801,['n'],2.746407300000101,1.3479999999999999,1054.0346597999999,,,,,540,21,Woman,Right,
,,,,,,,,,,,,,,,,,540,21,Woman,Right,1,16,0.4,1,0,-,0,0.3451952000000347,['n'],0.9699177000002237,1.7,1058.1183297999999,,,,,540,21,Woman,Right,
,,,,,,,,,,,,,,,,,540,21,Woman,Right,1,0,1,1,0,-,0,0.3566686999997728,['n'],1.7377055000001747,1.78,1062.9518461999999,,,,,540,21,Woman,Right,
,,,,,,,,,,,,,,,,,540,21,Woman,Right,1,4,1,1,0,-,0,0.4197337000000516,['n'],1.3303036000002066,1.724,1067.6344633,,,,,540,21,Woman,Right,
,,,,,,,,,,,,,,,,,540,21,Woman,Right,1,49,0.15,2,0,180,0,2.181747600000108,['y'],3.1374204999997346,1.086,1076.6839914,,,,,540,21,Woman,Right,
,,,,,,,,,,,,,,,,,540,21,Woman,Right,1,26,0.4,1,180,-,180,1.5121869999998125,['n'],2.002233100000012,1.654,1083.434419,,,,,540,21,Woman,Right,
,,,,,,,,,,,,,,,,,540,21,Woman,Right,1,28,0.4,1,0,-,0,0.42053100000021004,['n'],2.850961300000108,1.67,1089.917869,,,,,540,21,Woman,Right,
,,,,,,,,,,,,,,,,,540,21,Woman,Right,1,56,0.15,1,0,-,0,0.429239200000211,['n'],1.4498394000002008,1.6680000000000001,1094.8344313,,,,,540,21,Woman,Right,
,,,,,,,,,,,,,,,,,540,21,Woman,Right,1,77,0.15,2,0,180,0,0.9114064999998845,['n'],5.849815600000056,1.342,1105.6340899999998,,,,,540,21,Woman,Right,
,,,,,,,,,,,,,,,,,540,21,Woman,Right,1,73,0.15,2,0,180,180,1.360631099999864,['n'],2.778711000000385,1.276,1112.7511311,,,,,540,21,Woman,Right,
,,,,,,,,,,,,,,,,,540,21,Woman,Right,1,43,0.4,2,180,0,0,0.5878115999998954,['y'],0.7859304999997221,2.0,1117.0840873999998,,,,,540,21,Woman,Right,
,,,,,,,,,,,,,,,,,540,21,Woman,Right,1,47,0.15,2,180,0,0,0.32709569999997257,['y'],0.8584249000000455,2.0,1121.1849791000002,,,,,540,21,Woman,Right,
,,,,,,,,,,,,,,,,,540,21,Woman,Right,1,51,0.15,2,180,0,0,0.5945256999998492,['n'],0.7464442000000417,2.0,1125.2674140000001,,,,,540,21,Woman,Right,
,,,,,,,,,,,,,,,,,540,21,Woman,Right,1,67,0.15,2,180,0,0,0.43150199999990946,['n'],0.8259124000001066,2.0,1129.1175695,,,,,540,21,Woman,Right,
,,,,,,,,,,,,,,,,,540,21,Woman,Right,1,2,1,1,180,-,180,0.3572551000002022,['n'],0.8423103000000083,2.0,1133.0512070000002,,,,,540,21,Woman,Right,
,,,,,,,,,,,,,,,,,540,21,Woman,Right,1,59,0.15,2,180,0,0,0.4886246000000938,['y'],0.9863399999999274,1.6640000000000001,1137.2339071,,,,,540,21,Woman,Right,
,,,,,,,,,,,,,,,,,540,21,Woman,Right,1,72,0.15,1,0,-,0,0.3760599000002003,['n'],3.2421109000001707,2.0,1143.534746,,,,,540,21,Woman,Right,
,,,,,,,,,,,,,,,,,540,21,Woman,Right,1,1,1,2,0,180,180,0.3647352999996656,['y'],2.6821384999998372,2.0,1149.5181859000002,,,,,540,21,Woman,Right,
,,,,,,,,,,,,,,,,,540,21,Woman,Right,1,24,0.4,1,0,-,0,0.5987158000002637,['n'],2.8585039000004144,2.0,1155.7680105000002,,,,,540,21,Woman,Right,
,,,,,,,,,,,,,,,,,540,21,Woman,Right,1,79,0.15,2,180,0,0,0.8829211000002033,['n'],1.0745981999998548,1.242,1161.2509633000002,,,,,540,21,Woman,Right,
,,,,,,,,,,,,,,,,,540,21,Woman,Right,1,22,0.4,1,180,-,180,0.6842099000000417,['n'],1.3706048000003648,1.284,1166.2015266,,,,,540,21,Woman,Right,
,,,,,,,,,,,,,,,,,540,21,Woman,Right,1,7,1,2,180,0,0,0.33723319999990053,['y'],0.8110770000002958,2.0,1171.4183890000002,,,,,540,21,Woman,Right,
,,,,,,,,,,,,,,,,,540,21,Woman,Right,1,78,0.15,1,180,-,180,0.4631693000001178,['n'],2.082516299999952,1.284,1177.0504171999999,,,,,540,21,Woman,Right,
,,,,,,,,,,,,,,,,,540,21,Woman,Right,1,36,0.4,1,0,-,0,0.41225299999996423,['n'],2.3863698000000113,2.0,1182.7011931,,,,,540,21,Woman,Right,
,,,,,,,,,,,,,,,,,540,21,Woman,Right,1,76,0.15,1,0,-,0,0.4616989000001013,['n'],2.002100000000155,2.0,1187.8678965000001,,,,,540,21,Woman,Right,
,,,,,,,,,,,,,,,,,540,21,Woman,Right,1,66,0.15,1,180,-,180,0.8549969000000601,['n'],1.3626334000000497,1.676,1193.7337206999998,,,,,540,21,Woman,Right,
,,,,,,,,,,,,,,,,,540,21,Woman,Right,1,12,0.4,1,0,-,0,0.34507529999973485,['n'],0.9947513000001891,2.0,1197.9182791,,,,,540,21,Woman,Right,
,,,,,,,,,,,,,,,,,540,21,Woman,Right,1,41,0.4,2,0,180,180,0.3803181000002951,['y'],3.018679499999962,2.0,1204.2182948000002,,,,,540,21,Woman,Right,
,,,,,,,,,,,,,,,,,540,21,Woman,Right,1,38,0.4,1,180,-,180,0.7548576000003777,['n'],1.2427465000000666,2.0,1209.1839867,,,,,540,21,Woman,Right,
,,,,,,,,,,,,,,,,,540,21,Woman,Right,1,35,0.4,2,180,0,0,0.40290079999977024,['y'],0.7471074000000044,2.0,1213.4844225999998,,,,,540,21,Woman,Right,
,,,,,,,,,,,,,,,,,540,21,Woman,Right,1,58,0.15,1,180,-,0,0.3825102999999217,['y'],2.4028509999998278,1.26,1219.8349971,,,,,540,21,Woman,Right,
,,,,,,,,,,,,,,,,,540,21,Woman,Right,1,37,0.4,2,0,180,180,0.3363257999999405,['y'],1.1148050000001604,2.0,1223.9013757,,,,,540,21,Woman,Right,
,,,,,,,,,,,,,,,,,540,21,Woman,Right,1,54,0.15,1,180,-,180,0.7333195000001069,['n'],0.9789467999999033,1.312,1228.8005486,,,,,540,21,Woman,Right,
,,,,,,,,,,,,,,,,,540,21,Woman,Right,1,19,0.4,2,180,0,0,0.9448905999997805,['y'],0.6983107999999447,2.0,1233.4007933999999,,,,,540,21,Woman,Right,
,,,,,,,,,,,,,,,,,540,21,Woman,Right,1,57,0.15,2,0,180,0,0.5347523999998884,['y'],2.2113712000000305,1.24,1239.5030444000001,,,,,540,21,Woman,Right,
,,,,,,,,,,,,,,,,,540,21,Woman,Right,1,32,0.4,1,0,-,0,0.6401241999997183,['n'],0.6906213000002026,1.77,1244.1014619,,,,,540,21,Woman,Right,
,,,,,,,,,,,,,,,,,540,21,Woman,Right,1,33,0.4,2,0,180,180,0.36351609999974244,['y'],0.7945267999998578,2.0,1248.0836237,,,,,540,21,Woman,Right,
,,,,,,,,,,,,,,,,,540,21,Woman,Right,1,40,0.4,1,0,-,0,0.591126499999973,['n'],4.63453329999993,2.0,1256.4680363999998,,,,,540,21,Woman,Right,
,,,,,,,,,,,,,,,,,540,21,Woman,Right,1,62,0.15,1,180,-,0,0.8086615000001984,['y'],1.5471020999998473,1.252,1261.7840822,,,,,540,21,Woman,Right,
,,,,,,,,,,,,,,,,,540,21,Woman,Right,1,55,0.15,2,180,0,0,0.4992968000001383,['y'],0.7388025000000198,1.27,1265.8339611,,,,,540,21,Woman,Right,
,,,,,,,,,,,,,,,,,540,21,Woman,Right,1,25,0.4,2,0,180,180,0.8713474999999562,['y'],0.7472220999998171,2.0,1270.1349589,,,,,540,21,Woman,Right,
,,,,,,,,,,,,,,,,,540,21,Woman,Right,2,51,0.15,2,180,0,180,2.6106251999999586,['y'],3.9877824000000146,1.238,1322.3512348000002,88.75,90.0,75.0,,540,21,Woman,Right,
,,,,,,,,,,,,,,,,,540,21,Woman,Right,2,12,0.4,1,0,-,0,0.4160010999999031,['n'],0.8114305000003696,2.0,1326.5184006000002,,,,,540,21,Woman,Right,
,,,,,,,,,,,,,,,,,540,21,Woman,Right,2,59,0.15,2,180,0,0,0.5161121999999523,['y'],0.9638311999997313,1.692,1331.4184555999998,,,,,540,21,Woman,Right,
,,,,,,,,,,,,,,,,,540,21,Woman,Right,2,70,0.15,1,180,-,0,0.35786270000016884,['y'],0.6915307999997822,1.6480000000000001,1335.6683182999998,,,,,540,21,Woman,Right,
,,,,,,,,,,,,,,,,,540,21,Woman,Right,2,8,0.4,1,0,-,0,0.32256450000022596,['n'],0.9801572999999735,2.0,1340.4176581,,,,,540,21,Woman,Right,
,,,,,,,,,,,,,,,,,540,21,Woman,Right,2,60,0.15,1,0,-,0,0.2304191999996874,['n'],1.2753810999997768,2.0,1344.8675274999998,,,,,540,21,Woman,Right,
,,,,,,,,,,,,,,,,,540,21,Woman,Right,2,34,0.4,1,180,-,180,0.32557660000020405,['n'],0.7716580999999678,2.0,1348.6843714,,,,,540,21,Woman,Right,
,,,,,,,,,,,,,,,,,540,21,Woman,Right,2,7,1,2,180,0,0,0.30975850000004357,['y'],1.019375299999865,2.0,1352.6017967999999,,,,,540,21,Woman,Right,
,,,,,,,,,,,,,,,,,540,21,Woman,Right,2,52,0.15,1,0,-,0,0.3192111000003024,['n'],0.7720710999997209,2.0,1356.5341876999998,,,,,540,21,Woman,Right,
,,,,,,,,,,,,,,,,,540,21,Woman,Right,2,67,0.15,2,180,0,0,0.9793595000001005,['y'],1.051514700000098,1.702,1362.3505880999999,,,,,540,21,Woman,Right,
,,,,,,,,,,,,,,,,,540,21,Woman,Right,2,36,0.4,1,0,-,0,0.39391939999995884,['n'],1.4833757999999762,1.854,1367.084669,,,,,540,21,Woman,Right,
,,,,,,,,,,,,,,,,,540,21,Woman,Right,2,2,1,1,180,-,180,1.4659793999999238,['n'],1.7875072000001637,1.736,1373.4349156,,,,,540,21,Woman,Right,
,,,,,,,,,,,,,,,,,540,21,Woman,Right,2,65,0.15,2,0,180,180,0.6860475000003134,['y'],1.819434900000033,1.324,1379.2679956,,,,,540,21,Woman,Right,
,,,,,,,,,,,,,,,,,540,21,Woman,Right,2,26,0.4,1,180,-,0,4.654443899999933,['y'],2.083828000000267,1.212,1389.6178363000001,,,,,540,21,Woman,Right,
,,,,,,,,,,,,,,,,,540,21,Woman,Right,2,43,0.4,2,180,0,0,0.3189155000000028,['y'],1.3794575000001714,2.0,1394.6181915,,,,,540,21,Woman,Right,
,,,,,,,,,,,,,,,,,540,21,Woman,Right,2,76,0.15,1,0,-,180,0.4047888000000057,['n'],3.6682372999998734,1.26,1402.0675026000001,,,,,540,21,Woman,Right,
,,,,,,,,,,,,,,,,,540,21,Woman,Right,2,47,0.15,2,180,0,0,0.43824750000021595,['y'],3.476302399999895,1.796,1408.9011417999998,,,,,540,21,Woman,Right,
,,,,,,,,,,,,,,,,,540,21,Woman,Right,2,37,0.4,2,0,180,180,2.3177559999999175,['y'],2.091774799999712,2.0,1416.2672682999998,,,,,540,21,Woman,Right,
,,,,,,,,,,,,,,,,,540,21,Woman,Right,2,68,0.15,1,0,-,0,0.5119813999999678,['y'],0.9876219000002493,1.776,1420.9346887999998,,,,,540,21,Woman,Right,
,,,,,,,,,,,,,,,,,540,21,Woman,Right,2,30,0.4,1,180,-,180,0.5039140999997471,['n'],1.204444599999988,2.0,1425.6679631999998,,,,,540,21,Woman,Right,
,,,,,,,,,,,,,,,,,540,21,Woman,Right,2,62,0.15,1,180,-,180,0.5293065000000752,['n'],5.307856800000081,1.324,1435.7002522,,,,,540,21,Woman,Right,
,,,,,,,,,,,,,,,,,540,21,Woman,Right,2,63,0.15,2,180,0,0,0.5089499000000615,['y'],0.7321385000000191,1.68,1439.9344708,,,,,540,21,Woman,Right,
,,,,,,,,,,,,,,,,,540,21,Woman,Right,2,66,0.15,1,180,-,180,0.7869883000003028,['n'],0.9560716000000866,1.188,1444.834361,,,,,540,21,Woman,Right,
,,,,,,,,,,,,,,,,,540,21,Woman,Right,2,75,0.15,2,180,0,0,0.9308701999998448,['n'],1.3483860999999706,1.392,1451.3512334999998,,,,,540,21,Woman,Right,
,,,,,,,,,,,,,,,,,540,21,Woman,Right,2,17,0.4,2,0,180,180,0.2940777000003436,['y'],1.9475529000001188,2.0,1458.0177540000002,,,,,540,21,Woman,Right,
,,,,,,,,,,,,,,,,,540,21,Woman,Right,2,40,0.4,1,0,-,0,0.3429811000000882,['n'],0.8120365999998285,2.0,1461.9019492999998,,,,,540,21,Woman,Right,
,,,,,,,,,,,,,,,,,540,21,Woman,Right,2,16,0.4,1,0,-,0,0.3042184000000816,['n'],1.3399133999996593,2.0,1466.1837354000002,,,,,540,21,Woman,Right,
,,,,,,,,,,,,,,,,,540,21,Woman,Right,2,33,0.4,2,0,180,180,0.29143759999988106,['y'],0.9004737000000205,2.0,1469.9344075000001,,,,,540,21,Woman,Right,
,,,,,,,,,,,,,,,,,540,21,Woman,Right,2,64,0.15,1,0,-,0,0.3496027999999569,['y'],2.1562526000002435,1.666,1475.1848029,,,,,540,21,Woman,Right,
,,,,,,,,,,,,,,,,,540,21,Woman,Right,2,55,0.15,2,180,0,0,0.4483706999999413,['y'],1.5407451999999466,1.754,1479.8516938,,,,,540,21,Woman,Right,
,,,,,,,,,,,,,,,,,540,21,Woman,Right,2,25,0.4,2,0,180,180,0.45518189999984315,['y'],3.5401984000000084,2.0,1486.6175764000002,,,,,540,21,Woman,Right,
,,,,,,,,,,,,,,,,,540,21,Woman,Right,2,32,0.4,1,0,-,0,0.4220260999995844,['n'],1.9878812999995716,2.0,1492.8837726999998,,,,,540,21,Woman,Right,
,,,,,,,,,,,,,,,,,540,21,Woman,Right,2,20,0.4,1,0,-,0,0.35572300000012547,['n'],2.18812220000018,2.0,1498.7846478999998,,,,,540,21,Woman,Right,
,,,,,,,,,,,,,,,,,540,21,Woman,Right,2,13,0.4,2,0,180,180,0.45808530000022074,['n'],0.9885964999998578,2.0,1503.1186971999998,,,,,540,21,Woman,Right,
,,,,,,,,,,,,,,,,,540,21,Woman,Right,2,54,0.15,1,180,-,0,0.8851283999997577,['y'],1.8201889000001756,1.23,1509.0177612,,,,,540,21,Woman,Right,
,,,,,,,,,,,,,,,,,540,21,Woman,Right,2,61,0.15,2,0,180,180,0.7214596999997411,['y'],2.4689563000001726,1.312,1515.6348988000002,,,,,540,21,Woman,Right,
,,,,,,,,,,,,,,,,,540,21,Woman,Right,2,45,0.15,2,0,180,0,0.583893700000317,['n'],6.060210099999949,1.32,1525.2171569999998,,,,,540,21,Woman,Right,
,,,,,,,,,,,,,,,,,540,21,Woman,Right,2,21,0.4,2,0,180,180,0.38483880000012505,['y'],1.1567582000002403,2.0,1529.2847660999998,,,,,540,21,Woman,Right,
,,,,,,,,,,,,,,,,,540,21,Woman,Right,2,50,0.15,1,180,-,0,0.9831668000001628,['y'],0.7563574999999219,1.284,1533.7516827000002,,,,,540,21,Woman,Right,
,,,,,,,,,,,,,,,,,540,21,Woman,Right,2,35,0.4,2,180,0,0,0.49833730000000287,['y'],1.3084751999999753,1.74,1538.6842006,,,,,540,21,Woman,Right,
,,,,,,,,,,,,,,,,,540,21,Woman,Right,2,42,0.4,1,180,-,180,0.4149170000000595,['n'],1.2205817999997635,1.694,1543.1669682,,,,,540,21,Woman,Right,
,,,,,,,,,,,,,,,,,540,21,Woman,Right,2,78,0.15,1,180,-,180,1.4347545000000537,['n'],4.47702819999995,1.3479999999999999,1552.2176648000002,,,,,540,21,Woman,Right,
,,,,,,,,,,,,,,,,,540,21,Woman,Right,2,41,0.4,2,0,180,180,0.4397295999997368,['y'],1.4922448000002078,1.726,1558.1009880999998,,,,,540,21,Woman,Right,
,,,,,,,,,,,,,,,,,540,21,Woman,Right,2,5,1,2,0,180,180,0.25068499999997584,['y'],1.2131161000002066,2.0,1563.6015389000002,,,,,540,21,Woman,Right,
,,,,,,,,,,,,,,,,,540,21,Woman,Right,2,48,0.15,1,0,-,0,0.6349559000000227,['n'],0.732521700000234,2.0,1567.8516054999998,,,,,540,21,Woman,Right,
,,,,,,,,,,,,,,,,,540,21,Woman,Right,2,57,0.15,2,0,180,0,0.46268259999988004,['n'],0.7726239999997233,1.78,1571.7515891,,,,,540,21,Woman,Right,
,,,,,,,,,,,,,,,,,540,21,Woman,Right,2,0,1,1,0,-,0,0.3822891999998319,['n'],3.084686800000327,2.0,1578.6178131,,,,,540,21,Woman,Right,
,,,,,,,,,,,,,,,,,540,21,Woman,Right,2,74,0.15,1,180,-,180,0.825632399999904,['y'],1.9642807000000175,1.232,1584.5847413999998,,,,,540,21,Woman,Right,
,,,,,,,,,,,,,,,,,540,21,Woman,Right,2,58,0.15,1,180,-,0,0.6538433999999143,['n'],0.6053795000002538,1.638,1589.9671022,,,,,540,21,Woman,Right,
,,,,,,,,,,,,,,,,,540,21,Woman,Right,2,53,0.15,2,0,180,0,0.2814930999998069,['n'],0.9889619999999013,1.676,1594.1842500999999,,,,,540,21,Woman,Right,
,,,,,,,,,,,,,,,,,540,21,Woman,Right,2,77,0.15,2,0,180,0,0.2793449000000692,['n'],2.3172162999999273,1.684,1600.7011383000001,,,,,540,21,Woman,Right,
,,,,,,,,,,,,,,,,,540,21,Woman,Right,2,3,1,2,180,0,0,0.36258909999969546,['y'],0.8213808999998946,2.0,1606.2669804999998,,,,,540,21,Woman,Right,
,,,,,,,,,,,,,,,,,540,21,Woman,Right,2,71,0.15,2,180,0,0,0.4644362999997611,['n'],0.6692121999999472,1.6400000000000001,1610.0835593,,,,,540,21,Woman,Right,
,,,,,,,,,,,,,,,,,540,21,Woman,Right,2,27,0.4,2,180,0,0,0.45957080000016504,['y'],0.8047223999997186,1.714,1614.1336717000001,,,,,540,21,Woman,Right,
,,,,,,,,,,,,,,,,,540,21,Woman,Right,2,19,0.4,2,180,0,0,0.4182497999995576,['y'],0.8696035000002666,1.822,1618.3839423000002,,,,,540,21,Woman,Right,
,,,,,,,,,,,,,,,,,540,21,Woman,Right,2,10,0.4,1,180,-,180,0.871392300000025,['n'],15.093339800000194,1.272,1637.3014550999999,,,,,540,21,Woman,Right,
,,,,,,,,,,,,,,,,,540,21,Woman,Right,2,46,0.15,1,180,-,0,0.5850625999996737,['n'],1.4298244999999952,1.792,1643.4342681,,,,,540,21,Woman,Right,
,,,,,,,,,,,,,,,,,540,21,Woman,Right,2,29,0.4,2,0,180,180,0.29773699999987,['y'],0.6849637000000257,2.0,1647.4677881,,,,,540,21,Woman,Right,
,,,,,,,,,,,,,,,,,540,21,Woman,Right,2,44,0.15,1,0,-,0,0.372954099999788,['n'],1.5092616000001726,2.0,1652.1848434,,,,,540,21,Woman,Right,
,,,,,,,,,,,,,,,,,540,21,Woman,Right,2,38,0.4,1,180,-,0,0.5236494999999195,['y'],0.68515780000007,1.278,1656.1338770999998,,,,,540,21,Woman,Right,
,,,,,,,,,,,,,,,,,540,21,Woman,Right,2,79,0.15,2,180,0,0,0.5067942000000585,['n'],1.5974591999997756,1.3780000000000001,1666.0347439999998,,,,,540,21,Woman,Right,
,,,,,,,,,,,,,,,,,540,21,Woman,Right,2,31,0.4,2,180,0,0,0.3816217999997207,['y'],1.2292858000000706,1.722,1673.5181777,,,,,540,21,Woman,Right,
,,,,,,,,,,,,,,,,,540,21,Woman,Right,2,23,0.4,2,180,0,0,0.24815869999974893,['y'],2.117639500000223,1.67,1685.8175540999998,,,,,540,21,Woman,Right,
,,,,,,,,,,,,,,,,,540,21,Woman,Right,2,72,0.15,1,0,-,0,0.2869751999996879,['n'],0.7815574999999626,1.658,1689.8845496000001,,,,,540,21,Woman,Right,
,,,,,,,,,,,,,,,,,540,21,Woman,Right,2,9,0.4,2,0,180,180,0.29976010000018505,['y'],2.2373928000001797,1.756,1695.4848516,,,,,540,21,Woman,Right,
,,,,,,,,,,,,,,,,,540,21,Woman,Right,2,14,0.4,1,180,-,180,0.3394239000003836,['n'],1.717656000000261,2.0,1700.3015143,,,,,540,21,Woman,Right,
,,,,,,,,,,,,,,,,,540,21,Woman,Right,2,24,0.4,1,0,-,0,0.3189935999998852,['n'],1.0374120999999832,2.0,1704.6510833999998,,,,,540,21,Woman,Right,
,,,,,,,,,,,,,,,,,540,21,Woman,Right,2,4,1,1,0,-,0,0.39224349999994956,['n'],2.5821928999998818,2.0,1710.3668890000001,,,,,540,21,Woman,Right,
,,,,,,,,,,,,,,,,,540,21,Woman,Right,2,15,0.4,2,180,0,0,0.38952470000003814,['y'],0.6856343999997989,1.756,1714.1010218,,,,,540,21,Woman,Right,
,,,,,,,,,,,,,,,,,540,21,Woman,Right,2,69,0.15,2,0,180,0,0.20482910000009724,['n'],4.7899327000000085,1.742,1721.7177795999999,,,,,540,21,Woman,Right,
,,,,,,,,,,,,,,,,,540,21,Woman,Right,2,73,0.15,2,0,180,180,0.38670079999974405,['y'],0.9577300999999352,1.302,1725.8846968,,,,,540,21,Woman,Right,
,,,,,,,,,,,,,,,,,540,21,Woman,Right,2,56,0.15,1,0,-,0,0.3158642999997028,['n'],0.709815400000025,1.754,1729.6680337,,,,,540,21,Woman,Right,
,,,,,,,,,,,,,,,,,540,21,Woman,Right,2,49,0.15,2,0,180,180,1.0744024999999056,['y'],1.5093825000003562,1.312,1735.2009221,,,,,540,21,Woman,Right,
,,,,,,,,,,,,,,,,,540,21,Woman,Right,2,1,1,2,0,180,180,0.31247039999971093,['y'],0.9494733000001361,1.3319999999999999,1739.3343630000002,,,,,540,21,Woman,Right,
,,,,,,,,,,,,,,,,,540,21,Woman,Right,2,22,0.4,1,180,-,180,0.5037363999999798,['n'],2.4773788999996214,1.786,1745.3841452,,,,,540,21,Woman,Right,
,,,,,,,,,,,,,,,,,540,21,Woman,Right,2,18,0.4,1,180,-,180,0.37584860000015397,['n'],1.8060990999997557,1.72,1751.5513653,,,,,540,21,Woman,Right,
,,,,,,,,,,,,,,,,,540,21,Woman,Right,2,11,0.4,2,180,0,0,0.4802343999999721,['y'],3.5977242999997543,1.682,1758.8504867,,,,,540,21,Woman,Right,
,,,,,,,,,,,,,,,,,540,21,Woman,Right,2,28,0.4,1,0,-,0,0.2217476999999235,['y'],1.0377075000001241,1.74,1762.8344316,,,,,540,21,Woman,Right,
,,,,,,,,,,,,,,,,,540,21,Woman,Right,2,6,1,1,180,-,180,0.3897252000001572,['n'],2.5901840999999877,1.69,1771.2689027,,,,,540,21,Woman,Right,
,,,,,,,,,,,,,,,,,540,21,Woman,Right,2,39,0.4,2,180,0,0,0.33916610000005676,['y'],1.91830710000022,1.778,1777.0342609000002,,,,,540,21,Woman,Right,
,,,,,,,,,,,,,,,,,540,21,Woman,Right,3,19,0.4,2,180,0,0,0.41550439999991795,['y'],1.2225726000001487,1.79,1786.3007746,82.5,77.5,77.5,,540,21,Woman,Right,
,,,,,,,,,,,,,,,,,540,21,Woman,Right,3,59,0.15,2,180,0,0,0.45570150000003196,['y'],1.52664249999998,1.252,1791.0842068999998,,,,,540,21,Woman,Right,
,,,,,,,,,,,,,,,,,540,21,Woman,Right,3,41,0.4,2,0,180,180,0.28517239999973754,['y'],0.9098745999999664,1.71,1795.2342754,,,,,540,21,Woman,Right,
,,,,,,,,,,,,,,,,,540,21,Woman,Right,3,76,0.15,1,0,-,0,0.8373762000001079,['n'],0.6940558000001147,1.3479999999999999,1799.8344026000002,,,,,540,21,Woman,Right,
,,,,,,,,,,,,,,,,,540,21,Woman,Right,3,40,0.4,1,0,-,0,0.28460379999978613,['n'],0.589822599999934,1.7,1804.2502241999998,,,,,540,21,Woman,Right,
,,,,,,,,,,,,,,,,,540,21,Woman,Right,3,9,0.4,2,0,180,180,0.324754700000085,['y'],0.7338487000001805,1.752,1808.1008307,,,,,540,21,Woman,Right,
,,,,,,,,,,,,,,,,,540,21,Woman,Right,3,64,0.15,1,0,-,0,0.5646400999999059,['n'],6.27808240000013,1.68,1818.0007192,,,,,540,21,Woman,Right,
,,,,,,,,,,,,,,,,,540,21,Woman,Right,3,73,0.15,2,0,180,180,0.3448696000000382,['y'],0.8623081999999158,1.4060000000000001,1825.1844832,,,,,540,21,Woman,Right,
,,,,,,,,,,,,,,,,,540,21,Woman,Right,3,53,0.15,2,0,180,0,0.7490248999997675,['n'],0.7187771000003522,1.362,1829.5013407,,,,,540,21,Woman,Right,
,,,,,,,,,,,,,,,,,540,21,Woman,Right,3,60,0.15,1,0,-,0,0.3227636999999959,['n'],3.7825955000002978,1.762,1837.0173201,,,,,540,21,Woman,Right,
,,,,,,,,,,,,,,,,,540,21,Woman,Right,3,10,0.4,1,180,-,180,0.49658690000023853,['n'],0.7265940000002047,1.678,1841.1012872,,,,,540,21,Woman,Right,
,,,,,,,,,,,,,,,,,540,21,Woman,Right,3,47,0.15,2,180,0,0,0.3578223999998045,['n'],3.6940087000002677,1.696,1848.0348253999998,,,,,540,21,Woman,Right,
,,,,,,,,,,,,,,,,,540,21,Woman,Right,3,25,0.4,2,0,180,180,0.3018895000000157,['y'],1.726679200000035,1.736,1852.8838945999998,,,,,540,21,Woman,Right,
,,,,,,,,,,,,,,,,,540,21,Woman,Right,3,39,0.4,2,180,0,0,0.2960102000001825,['y'],1.1020995999997467,1.6600000000000001,1857.1513598999998,,,,,540,21,Woman,Right,
,,,,,,,,,,,,,,,,,540,21,Woman,Right,3,8,0.4,1,0,-,0,0.2453559000000496,['n'],0.574988200000007,1.692,1861.3179748,,,,,540,21,Woman,Right,
,,,,,,,,,,,,,,,,,540,21,Woman,Right,3,11,0.4,2,180,0,0,2.011609899999712,['y'],1.1509863999999652,1.302,1870.0013338,,,,,540,21,Woman,Right,
,,,,,,,,,,,,,,,,,540,21,Woman,Right,3,42,0.4,1,180,-,180,0.30782389999967563,['n'],0.83846850000009,1.688,1875.7514949,,,,,540,21,Woman,Right,
,,,,,,,,,,,,,,,,,540,21,Woman,Right,3,16,0.4,1,0,-,0,0.25858640000024025,['n'],4.438811799999712,1.616,1883.3014719999999,,,,,540,21,Woman,Right,
,,,,,,,,,,,,,,,,,540,21,Woman,Right,3,44,0.15,1,0,-,0,0.3236509000003025,['n'],1.3024036000001615,1.6680000000000001,1887.8677799999998,,,,,540,21,Woman,Right,
,,,,,,,,,,,,,,,,,540,21,Woman,Right,3,15,0.4,2,180,0,0,0.40816069999982574,['y'],0.9272624000000178,1.6360000000000001,1891.8675047999998,,,,,540,21,Woman,Right,
,,,,,,,,,,,,,,,,,540,21,Woman,Right,3,72,0.15,1,0,-,0,0.23564219999980196,['n'],0.8392948999999135,1.678,1895.9013088,,,,,540,21,Woman,Right,
,,,,,,,,,,,,,,,,,540,21,Woman,Right,3,35,0.4,2,180,0,0,0.48973960000012084,['y'],4.086934999999812,1.778,1904.4345686999998,,,,,540,21,Woman,Right,
,,,,,,,,,,,,,,,,,540,21,Woman,Right,3,21,0.4,2,0,180,180,0.5363158000000112,['y'],0.6788056999998844,1.296,1908.8002055,,,,,540,21,Woman,Right,
,,,,,,,,,,,,,,,,,540,21,Woman,Right,3,12,0.4,1,0,-,0,0.32105490000003556,['n'],0.5912881000003836,1.686,1912.6336184,,,,,540,21,Woman,Right,
,,,,,,,,,,,,,,,,,540,21,Woman,Right,3,48,0.15,1,0,-,0,0.2787585000000945,['n'],3.83849280000004,1.6680000000000001,1919.5848008,,,,,540,21,Woman,Right,
,,,,,,,,,,,,,,,,,540,21,Woman,Right,3,37,0.4,2,0,180,0,0.5543655999999828,['n'],1.2946554000000106,1.306,1924.7014855,,,,,540,21,Woman,Right,
,,,,,,,,,,,,,,,,,540,21,Woman,Right,3,30,0.4,1,180,-,180,0.324243099999876,['n'],1.6231589000003623,1.87,1930.7675806999998,,,,,540,21,Woman,Right,
,,,,,,,,,,,,,,,,,540,21,Woman,Right,3,33,0.4,2,0,180,180,0.45886890000019775,['y'],1.1350023999998484,2.0,1935.5346117000001,,,,,540,21,Woman,Right,
,,,,,,,,,,,,,,,,,540,21,Woman,Right,3,56,0.15,1,0,-,0,0.7898322999999436,['n'],1.02341000000024,1.722,1940.351785,,,,,540,21,Woman,Right,
,,,,,,,,,,,,,,,,,540,21,Woman,Right,3,29,0.4,2,0,180,180,0.3672498999999334,['y'],3.591037099999994,1.692,1947.2680619,,,,,540,21,Woman,Right,
,,,,,,,,,,,,,,,,,540,21,Woman,Right,3,69,0.15,2,0,180,0,0.3308154999999715,['n'],0.6555075000001125,1.3719999999999999,1951.5848904000002,,,,,540,21,Woman,Right,
,,,,,,,,,,,,,,,,,540,21,Woman,Right,3,52,0.15,1,0,-,0,0.2885307000001376,['n'],3.3429783999999927,1.674,1958.1178401,,,,,540,21,Woman,Right,
,,,,,,,,,,,,,,,,,540,21,Woman,Right,3,65,0.15,2,0,180,180,0.33291319999989355,['y'],1.1435051000003114,1.31,1962.3184045,,,,,540,21,Woman,Right,
,,,,,,,,,,,,,,,,,540,21,Woman,Right,3,75,0.15,2,180,0,0,0.2820458000001054,['n'],4.679258500000287,1.724,1970.8014771,,,,,540,21,Woman,Right,
,,,,,,,,,,,,,,,,,540,21,Woman,Right,3,54,0.15,1,180,-,180,0.9540991999997459,['n'],0.9912463000000571,1.21,1976.2178978,,,,,540,21,Woman,Right,
,,,,,,,,,,,,,,,,,540,21,Woman,Right,3,22,0.4,1,180,-,180,0.2953646999999364,['n'],0.7113164000002143,1.3,1980.2678881,,,,,540,21,Woman,Right,
,,,,,,,,,,,,,,,,,540,21,Woman,Right,3,24,0.4,1,0,-,0,0.2233456999997543,['n'],1.3193089999999756,1.816,1984.5013319000002,,,,,540,21,Woman,Right,
,,,,,,,,,,,,,,,,,540,21,Woman,Right,3,18,0.4,1,180,-,180,0.23721810000006371,['n'],1.9433649000002333,1.724,1989.584216,,,,,540,21,Woman,Right,
,,,,,,,,,,,,,,,,,540,21,Woman,Right,3,34,0.4,1,180,-,180,0.6977383000003101,['n'],0.9837739000004149,1.28,1994.2671945999998,,,,,540,21,Woman,Right,
,,,,,,,,,,,,,,,,,540,21,Woman,Right,3,71,0.15,2,180,0,0,0.1973694000002979,['n'],1.2153611999997338,1.7,2001.5185859,,,,,540,21,Woman,Right,
,,,,,,,,,,,,,,,,,540,21,Woman,Right,3,27,0.4,2,180,0,0,0.35094059999983074,['y'],0.7513622999999825,1.3439999999999999,2005.6002818,,,,,540,21,Woman,Right,
,,,,,,,,,,,,,,,,,540,21,Woman,Right,3,38,0.4,1,180,-,180,1.865698600000087,['y'],1.9437481999998454,1.338,2012.250589,,,,,540,21,Woman,Right,
,,,,,,,,,,,,,,,,,540,21,Woman,Right,3,20,0.4,1,0,-,0,0.1825238999999783,['n'],1.511704500000178,1.752,2017.017587,,,,,540,21,Woman,Right,
,,,,,,,,,,,,,,,,,540,21,Woman,Right,3,43,0.4,2,180,0,0,3.000320399999964,['y'],0.8075872000003983,2.0,2023.5678477,,,,,540,21,Woman,Right,
,,,,,,,,,,,,,,,,,540,21,Woman,Right,3,2,1,1,180,-,180,0.30285159999993994,['n'],4.983467900000051,2.0,2031.8514582999999,,,,,540,21,Woman,Right,
,,,,,,,,,,,,,,,,,540,21,Woman,Right,3,62,0.15,1,180,-,180,0.21697969999968336,['n'],1.0315554999997403,2.0,2035.7678336000001,,,,,540,21,Woman,Right,
,,,,,,,,,,,,,,,,,540,21,Woman,Right,3,32,0.4,1,0,-,0,0.22105499999997846,['n'],0.70305529999996,2.0,2039.5512388,,,,,540,21,Woman,Right,
,,,,,,,,,,,,,,,,,540,21,Woman,Right,3,49,0.15,2,0,180,180,0.8387838000003285,['y'],1.1754946999999447,1.726,2044.7339598,,,,,540,21,Woman,Right,
,,,,,,,,,,,,,,,,,540,21,Woman,Right,3,23,0.4,2,180,0,0,0.38730390000000625,['y'],1.159728599999653,1.744,2049.0679732,,,,,540,21,Woman,Right,
,,,,,,,,,,,,,,,,,540,21,Woman,Right,3,17,0.4,2,0,180,180,0.4309208999998191,['y'],1.239637700000003,1.798,2053.4515107999996,,,,,540,21,Woman,Right,
,,,,,,,,,,,,,,,,,540,21,Woman,Right,3,0,1,1,0,-,0,0.4370049000003746,['n'],0.8880220000000918,1.822,2061.0514342999995,,,,,540,21,Woman,Right,
,,,,,,,,,,,,,,,,,540,21,Woman,Right,3,67,0.15,2,180,0,0,0.47741279999991093,['y'],0.8723288999999568,1.302,2065.9007504,,,,,540,21,Woman,Right,
,,,,,,,,,,,,,,,,,540,21,Woman,Right,3,79,0.15,2,180,0,0,0.5738509000002523,['n'],1.7599844999999732,1.746,2071.1016355,,,,,540,21,Woman,Right,
,,,,,,,,,,,,,,,,,540,21,Woman,Right,3,50,0.15,1,180,-,180,0.42889800000011746,['n'],0.8392106999999669,1.292,2075.4014693,,,,,540,21,Woman,Right,
,,,,,,,,,,,,,,,,,540,21,Woman,Right,3,6,1,1,180,-,180,0.3456246000000647,['n'],0.7595273999995698,1.85,2080.1175382,,,,,540,21,Woman,Right,
,,,,,,,,,,,,,,,,,540,21,Woman,Right,3,58,0.15,1,180,-,0,0.4467907000002924,['n'],0.791755700000067,1.27,2084.1673869000006,,,,,540,21,Woman,Right,
,,,,,,,,,,,,,,,,,540,21,Woman,Right,3,14,0.4,1,180,-,180,0.24643170000035752,['n'],0.7362072000005355,1.826,2088.8842226000006,,,,,540,21,Woman,Right,
,,,,,,,,,,,,,,,,,540,21,Woman,Right,3,51,0.15,2,180,0,0,0.8860382000002573,['y'],0.8485841000001528,1.256,2093.4338681,,,,,540,21,Woman,Right,
,,,,,,,,,,,,,,,,,540,21,Woman,Right,3,36,0.4,1,0,-,0,0.37605299999995623,['n'],1.719503999999688,2.0,2098.1016044,,,,,540,21,Woman,Right,
,,,,,,,,,,,,,,,,,540,21,Woman,Right,3,13,0.4,2,0,180,180,0.9726350000000821,['y'],1.4236548999997467,1.3,2103.4519762,,,,,540,21,Woman,Right,
,,,,,,,,,,,,,,,,,540,21,Woman,Right,3,66,0.15,1,180,-,180,0.3016451999992569,['y'],2.536175000000185,1.38,2109.6170216,,,,,540,21,Woman,Right,
,,,,,,,,,,,,,,,,,540,21,Woman,Right,3,68,0.15,1,0,-,0,0.5361314000001585,['n'],0.5764295999997557,1.296,2113.4850172000006,,,,,540,21,Woman,Right,
,,,,,,,,,,,,,,,,,540,21,Woman,Right,3,78,0.15,1,180,-,180,0.7244227999999566,['y'],6.440219400000387,1.256,2123.8842001000003,,,,,540,21,Woman,Right,
,,,,,,,,,,,,,,,,,540,21,Woman,Right,3,61,0.15,2,0,180,180,1.446421100000407,['n'],1.4321743000000424,1.31,2129.8514272,,,,,540,21,Woman,Right,
,,,,,,,,,,,,,,,,,540,21,Woman,Right,3,74,0.15,1,180,-,180,0.5727397000000565,['y'],0.7919432999997298,1.362,2134.2341122,,,,,540,21,Woman,Right,
,,,,,,,,,,,,,,,,,540,21,Woman,Right,3,77,0.15,2,0,180,180,0.2963890999999421,['y'],0.8723994000001767,1.3639999999999999,2138.6845814,,,,,540,21,Woman,Right,
,,,,,,,,,,,,,,,,,540,21,Woman,Right,3,45,0.15,2,0,180,180,0.37156359999971755,['y'],3.9365367000000333,1.286,2145.9347921,,,,,540,21,Woman,Right,
,,,,,,,,,,,,,,,,,540,21,Woman,Right,3,1,1,2,0,180,180,0.2867770000002565,['y'],1.0487624999996115,2.0,2150.2335365999998,,,,,540,21,Woman,Right,
,,,,,,,,,,,,,,,,,540,21,Woman,Right,3,26,0.4,1,180,-,180,0.27128990000073827,['n'],0.9847163000004002,2.0,2154.301654,,,,,540,21,Woman,Right,
,,,,,,,,,,,,,,,,,540,21,Woman,Right,3,4,1,1,0,-,0,0.2623770999998669,['n'],6.592232399999375,1.358,2164.2670802000002,,,,,540,21,Woman,Right,
,,,,,,,,,,,,,,,,,540,21,Woman,Right,3,3,1,2,180,0,0,0.4213936999994985,['y'],0.872824799999762,2.0,2168.3514618,,,,,540,21,Woman,Right,
,,,,,,,,,,,,,,,,,540,21,Woman,Right,3,7,1,2,180,0,0,0.23675920000005135,['y'],0.6805768000003809,2.0,2171.9511082999998,,,,,540,21,Woman,Right,
,,,,,,,,,,,,,,,,,540,21,Woman,Right,3,70,0.15,1,180,-,180,0.34842979999939416,['n'],0.9360274999999092,1.696,2176.0511689000004,,,,,540,21,Woman,Right,
,,,,,,,,,,,,,,,,,540,21,Woman,Right,3,28,0.4,1,0,-,0,0.17577170000004116,['n'],0.6803240999997797,2.0,2179.4514299,,,,,540,21,Woman,Right,
,,,,,,,,,,,,,,,,,540,21,Woman,Right,3,57,0.15,2,0,180,0,0.3041785000004893,['n'],0.9849929000001794,2.0,2183.7682173000003,,,,,540,21,Woman,Right,
,,,,,,,,,,,,,,,,,540,21,Woman,Right,3,46,0.15,1,180,-,0,0.21828349999941565,['n'],3.528565399999934,1.81,2190.4514800000006,,,,,540,21,Woman,Right,
,,,,,,,,,,,,,,,,,540,21,Woman,Right,3,31,0.4,2,180,0,0,0.44549039999947126,['y'],0.8248203000002832,1.6059999999999999,2194.6838497,,,,,540,21,Woman,Right,
,,,,,,,,,,,,,,,,,540,21,Woman,Right,3,5,1,2,0,180,180,0.3207358999998178,['y'],0.793080600000394,1.812,2198.9847266000006,,,,,540,21,Woman,Right,
,,,,,,,,,,,,,,,,,540,21,Woman,Right,3,63,0.15,2,180,0,0,0.6493780999999217,['y'],1.2629892000004475,1.708,2203.8676890000006,,,,,540,21,Woman,Right,
,,,,,,,,,,,,,,,,,540,21,Woman,Right,3,55,0.15,2,180,0,0,0.5466577999995934,['y'],0.961008999999649,1.316,2208.4179604,,,,,540,21,Woman,Right,
,,,,,,,,,,,,,,,,,540,21,Woman,Right,4,76,0.15,1,0,-,0,1.9439092000002347,['y'],0.9532356999998228,1.326,2231.0008319,92.5,90.0,77.5,,540,21,Woman,Right,
,,,,,,,,,,,,,,,,,540,21,Woman,Right,4,64,0.15,1,0,-,0,0.5001278999998249,['n'],0.9050658999994994,1.716,2237.6341684,,,,,540,21,Woman,Right,
,,,,,,,,,,,,,,,,,540,21,Woman,Right,4,37,0.4,2,0,180,180,0.2698757999996815,['y'],0.6086762000004455,1.726,2241.3515336,,,,,540,21,Woman,Right,
,,,,,,,,,,,,,,,,,540,21,Woman,Right,4,72,0.15,1,0,-,0,0.43959240000003774,['y'],8.057125099999212,1.354,2252.868254,,,,,540,21,Woman,Right,
,,,,,,,,,,,,,,,,,540,21,Woman,Right,4,22,0.4,1,180,-,180,0.3028619999995499,['n'],0.6092143999994732,1.6400000000000001,2257.8848675,,,,,540,21,Woman,Right,
,,,,,,,,,,,,,,,,,540,21,Woman,Right,4,57,0.15,2,0,180,0,0.28469159999986005,['n'],0.7529782999999952,1.6440000000000001,2262.0681101,,,,,540,21,Woman,Right,
,,,,,,,,,,,,,,,,,540,21,Woman,Right,4,60,0.15,1,0,-,0,0.1488429000000906,['n'],0.609176099999786,1.708,2265.5007823000005,,,,,540,21,Woman,Right,
,,,,,,,,,,,,,,,,,540,21,Woman,Right,4,32,0.4,1,0,-,0,0.21262000000024273,['n'],2.6015416999998706,2.0,2271.6011061,,,,,540,21,Woman,Right,
,,,,,,,,,,,,,,,,,540,21,Woman,Right,4,2,1,1,180,-,180,0.3371667000001253,['n'],0.6889754999992874,1.99,2275.3673257,,,,,540,21,Woman,Right,
,,,,,,,,,,,,,,,,,540,21,Woman,Right,4,75,0.15,2,180,0,0,0.47015639999972336,['y'],0.7294243000005736,1.306,2279.4676467,,,,,540,21,Woman,Right,
,,,,,,,,,,,,,,,,,540,21,Woman,Right,4,65,0.15,2,0,180,0,0.2777800000003481,['n'],2.057048300000133,1.768,2284.4342627000005,,,,,540,21,Woman,Right,
,,,,,,,,,,,,,,,,,540,21,Woman,Right,4,53,0.15,2,0,180,0,0.30260569999973086,['n'],5.0815308999999615,1.764,2292.7342209,,,,,540,21,Woman,Right,
,,,,,,,,,,,,,,,,,540,21,Woman,Right,4,63,0.15,2,180,0,0,0.5708513999998104,['y'],0.5613630999996531,1.334,2296.9342744000005,,,,,540,21,Woman,Right,
,,,,,,,,,,,,,,,,,540,21,Woman,Right,4,0,1,1,0,-,0,0.28326640000068437,['n'],0.7291471999997157,2.0,2300.7180746000004,,,,,540,21,Woman,Right,
,,,,,,,,,,,,,,,,,540,21,Woman,Right,4,33,0.4,2,0,180,180,0.3872083999995084,['y'],3.1533589000000575,2.0,2307.6007716000004,,,,,540,21,Woman,Right,
,,,,,,,,,,,,,,,,,540,21,Woman,Right,4,23,0.4,2,180,0,0,0.28598429999965447,['y'],0.7375134000003527,2.0,2311.5180368,,,,,540,21,Woman,Right,
,,,,,,,,,,,,,,,,,540,21,Woman,Right,4,12,0.4,1,0,-,0,0.21971769999981916,['n'],0.6653974000000744,2.0,2315.2842291000006,,,,,540,21,Woman,Right,
,,,,,,,,,,,,,,,,,540,21,Woman,Right,4,70,0.15,1,180,-,180,0.22202500000003056,['n'],0.75369690000025,1.67,2319.2514419,,,,,540,21,Woman,Right,
,,,,,,,,,,,,,,,,,540,21,Woman,Right,4,27,0.4,2,180,0,0,0.29403980000006413,['y'],1.057735300000786,2.0,2323.4008486000002,,,,,540,21,Woman,Right,
,,,,,,,,,,,,,,,,,540,21,Woman,Right,4,69,0.15,2,0,180,0,0.48625889999948413,['n'],1.2975312999997186,1.732,2328.2680741000004,,,,,540,21,Woman,Right,
,,,,,,,,,,,,,,,,,540,21,Woman,Right,4,20,0.4,1,0,-,0,0.2634864000001471,['n'],3.088853100000051,1.81,2334.5180357,,,,,540,21,Woman,Right,
,,,,,,,,,,,,,,,,,540,21,Woman,Right,4,46,0.15,1,180,-,180,0.635247299999719,['n'],2.60992669999996,1.816,2340.8170850000006,,,,,540,21,Woman,Right,
,,,,,,,,,,,,,,,,,540,21,Woman,Right,4,29,0.4,2,0,180,180,0.3997324000001754,['n'],7.073463099999572,1.71,2351.2515966,,,,,540,21,Woman,Right,
,,,,,,,,,,,,,,,,,540,21,Woman,Right,4,4,1,1,0,-,0,0.3200294999996913,['n'],2.0179665000005116,1.752,2356.3181891000004,,,,,540,21,Woman,Right,
,,,,,,,,,,,,,,,,,540,21,Woman,Right,4,48,0.15,1,0,-,0,0.44454549999954907,['n'],0.5690509000005477,1.292,2360.0513580000006,,,,,540,21,Woman,Right,
,,,,,,,,,,,,,,,,,540,21,Woman,Right,4,59,0.15,2,180,0,0,0.9836700999994719,['n'],1.1055489999998827,1.228,2366.5014458000005,,,,,540,21,Woman,Right,
,,,,,,,,,,,,,,,,,540,21,Woman,Right,4,52,0.15,1,0,-,0,3.852322599999752,['n'],0.8412847999998121,1.28,2374.2012922000004,,,,,540,21,Woman,Right,
,,,,,,,,,,,,,,,,,540,21,Woman,Right,4,24,0.4,1,0,-,0,0.37576329999956215,['n'],0.625466200000119,1.834,2378.2009398,,,,,540,21,Woman,Right,
,,,,,,,,,,,,,,,,,540,21,Woman,Right,4,13,0.4,2,0,180,0,0.4414017999997668,['n'],0.889353100000335,1.24,2382.633723,,,,,540,21,Woman,Right,
,,,,,,,,,,,,,,,,,540,21,Woman,Right,4,42,0.4,1,180,-,180,0.3500423999994382,['n'],0.978154700000232,1.324,2389.3342038,,,,,540,21,Woman,Right,
,,,,,,,,,,,,,,,,,540,21,Woman,Right,4,15,0.4,2,180,0,180,0.2927188000003298,['n'],0.8818771999995079,1.284,2393.3179241,,,,,540,21,Woman,Right,
,,,,,,,,,,,,,,,,,540,21,Woman,Right,4,77,0.15,2,0,180,0,0.3613641000001735,['n'],0.7773256000000401,1.3479999999999999,2397.4510833000004,,,,,540,21,Woman,Right,
,,,,,,,,,,,,,,,,,540,21,Woman,Right,4,8,0.4,1,0,-,0,0.14075940000020637,['n'],2.050077699999747,1.724,2402.7681498,,,,,540,21,Woman,Right,
,,,,,,,,,,,,,,,,,540,21,Woman,Right,4,62,0.15,1,180,-,180,0.534862599999542,['n'],1.4095797999998467,1.712,2407.7509012,,,,,540,21,Woman,Right,
,,,,,,,,,,,,,,,,,540,21,Woman,Right,4,35,0.4,2,180,0,0,0.32865420000052836,['y'],2.450373299999228,2.0,2413.4677053000005,,,,,540,21,Woman,Right,
,,,,,,,,,,,,,,,,,540,21,Woman,Right,4,78,0.15,1,180,-,0,0.8217782000001534,['y'],3.2175876999999673,1.3439999999999999,2420.7013083,,,,,540,21,Woman,Right,
,,,,,,,,,,,,,,,,,540,21,Woman,Right,4,54,0.15,1,180,-,180,1.0365277999999307,['n'],1.505654699999468,1.31,2426.0341697000003,,,,,540,21,Woman,Right,
,,,,,,,,,,,,,,,,,540,21,Woman,Right,4,10,0.4,1,180,-,180,0.3659410000000207,['n'],1.5723580000003494,2.0,2430.9679096,,,,,540,21,Woman,Right,
,,,,,,,,,,,,,,,,,540,21,Woman,Right,4,71,0.15,2,180,0,0,1.5791334000005008,['y'],3.073811199999909,1.18,2439.2338356,,,,,540,21,Woman,Right,
,,,,,,,,,,,,,,,,,540,21,Woman,Right,4,58,0.15,1,180,-,180,0.3494852000003448,['n'],0.7834308999999848,1.812,2445.4178392000003,,,,,540,21,Woman,Right,
,,,,,,,,,,,,,,,,,540,21,Woman,Right,4,26,0.4,1,180,-,180,0.4581663999997545,['n'],0.706230200000391,1.728,2449.7842692000004,,,,,540,21,Woman,Right,
,,,,,,,,,,,,,,,,,540,21,Woman,Right,4,25,0.4,2,0,180,180,0.4204124999996566,['y'],1.1622459999998682,1.726,2454.3504289,,,,,540,21,Woman,Right,
,,,,,,,,,,,,,,,,,540,21,Woman,Right,4,74,0.15,1,180,-,0,0.586704400000599,['n'],1.00245410000025,1.308,2458.9015359000005,,,,,540,21,Woman,Right,
,,,,,,,,,,,,,,,,,540,21,Woman,Right,4,30,0.4,1,180,-,180,0.3397138000000268,['n'],4.5618976000005205,1.738,2466.6341893,,,,,540,21,Woman,Right,
,,,,,,,,,,,,,,,,,540,21,Woman,Right,4,56,0.15,1,0,-,0,0.26384409999991476,['n'],4.242515599999933,1.784,2474.0333845000005,,,,,540,21,Woman,Right,
,,,,,,,,,,,,,,,,,540,21,Woman,Right,4,45,0.15,2,0,180,0,0.3671496999995725,['y'],0.8100617000000057,1.274,2479.5182320000004,,,,,540,21,Woman,Right,
,,,,,,,,,,,,,,,,,540,21,Woman,Right,4,34,0.4,1,180,-,180,0.3234327999998641,['n'],0.8424369000003935,1.768,2483.8337131,,,,,540,21,Woman,Right,
,,,,,,,,,,,,,,,,,540,21,Woman,Right,4,40,0.4,1,0,-,0,0.2881666999992376,['n'],0.7624803999997312,1.718,2487.5502854000006,,,,,540,21,Woman,Right,
,,,,,,,,,,,,,,,,,540,21,Woman,Right,4,6,1,1,180,-,180,0.3081781000000774,['n'],1.4263403000004473,1.766,2494.5343529,,,,,540,21,Woman,Right,
,,,,,,,,,,,,,,,,,540,21,Woman,Right,4,61,0.15,2,0,180,0,0.28398620000007213,['n'],1.2425104000003557,1.746,2499.1178185,,,,,540,21,Woman,Right,
,,,,,,,,,,,,,,,,,540,21,Woman,Right,4,7,1,2,180,0,0,0.3960989999995945,['y'],1.0259206000000631,1.978,2503.7676743,,,,,540,21,Woman,Right,
,,,,,,,,,,,,,,,,,540,21,Woman,Right,4,1,1,2,0,180,180,0.23440260000006674,['y'],0.650090199999795,2.0,2507.4679554000004,,,,,540,21,Woman,Right,
,,,,,,,,,,,,,,,,,540,21,Woman,Right,4,11,0.4,2,180,0,0,0.32007639999937965,['y'],0.6186416999998983,2.0,2511.3503216999998,,,,,540,21,Woman,Right,
,,,,,,,,,,,,,,,,,540,21,Woman,Right,4,51,0.15,2,180,0,0,0.5834208999995099,['y'],1.2826779999995779,1.678,2516.3681379,,,,,540,21,Woman,Right,
,,,,,,,,,,,,,,,,,540,21,Woman,Right,4,55,0.15,2,180,0,0,0.5593923999995241,['y'],0.7385912999998254,1.742,2520.3343217,,,,,540,21,Woman,Right,
,,,,,,,,,,,,,,,,,540,21,Woman,Right,4,5,1,2,0,180,180,2.6757556000002296,['y'],1.8582980999999563,1.684,2527.9180909000006,,,,,540,21,Woman,Right,
,,,,,,,,,,,,,,,,,540,21,Woman,Right,4,44,0.15,1,0,-,0,0.7544743999997081,['n'],1.0190335000006598,1.752,2532.2839859000005,,,,,540,21,Woman,Right,
,,,,,,,,,,,,,,,,,540,21,Woman,Right,4,66,0.15,1,180,-,0,0.8531192000000374,['n'],0.7550799000000552,1.296,2536.9510735000003,,,,,540,21,Woman,Right,
,,,,,,,,,,,,,,,,,540,21,Woman,Right,4,14,0.4,1,180,-,0,1.3470250999998825,['y'],1.5625129999998535,1.322,2542.5837359000006,,,,,540,21,Woman,Right,
,,,,,,,,,,,,,,,,,540,21,Woman,Right,4,67,0.15,2,180,0,0,0.27215029999933904,['n'],0.6027438000000984,1.6320000000000001,2546.3012642000003,,,,,540,21,Woman,Right,
,,,,,,,,,,,,,,,,,540,21,Woman,Right,4,47,0.15,2,180,0,0,0.31650059999992664,['n'],0.6181719999995039,1.738,2549.8513103000005,,,,,540,21,Woman,Right,
,,,,,,,,,,,,,,,,,540,21,Woman,Right,4,49,0.15,2,0,180,180,0.8600191999994422,['y'],0.6670423999994455,1.246,2554.3181293,,,,,540,21,Woman,Right,
,,,,,,,,,,,,,,,,,540,21,Woman,Right,4,36,0.4,1,0,-,0,0.2762333000000581,['n'],0.6426110000002154,1.8780000000000001,2558.1677463000005,,,,,540,21,Woman,Right,
,,,,,,,,,,,,,,,,,540,21,Woman,Right,4,19,0.4,2,180,0,0,0.3974694999997155,['n'],1.098824699999568,1.83,2562.8016294,,,,,540,21,Woman,Right,
,,,,,,,,,,,,,,,,,540,21,Woman,Right,4,31,0.4,2,180,0,0,0.27243189999990136,['y'],4.483179400000154,1.71,2570.5840794000005,,,,,540,21,Woman,Right,
,,,,,,,,,,,,,,,,,540,21,Woman,Right,4,43,0.4,2,180,0,0,0.37367599999925005,['y'],0.6985526999997091,1.71,2574.4177636000004,,,,,540,21,Woman,Right,
,,,,,,,,,,,,,,,,,540,21,Woman,Right,4,3,1,2,180,0,0,0.2780280999995739,['y'],1.44310299999961,1.7,2578.8337686000004,,,,,540,21,Woman,Right,
,,,,,,,,,,,,,,,,,540,21,Woman,Right,4,68,0.15,1,0,-,0,0.6140574000000925,['n'],0.6111135999999533,1.316,2582.8001919,,,,,540,21,Woman,Right,
,,,,,,,,,,,,,,,,,540,21,Woman,Right,4,28,0.4,1,0,-,0,0.16225570000005973,['n'],3.586903199999142,1.6560000000000001,2589.4844554,,,,,540,21,Woman,Right,
,,,,,,,,,,,,,,,,,540,21,Woman,Right,4,39,0.4,2,180,0,0,0.4347024999997302,['y'],3.219062999999551,1.314,2596.3013481,,,,,540,21,Woman,Right,
,,,,,,,,,,,,,,,,,540,21,Woman,Right,4,38,0.4,1,180,-,180,0.4616325999995752,['n'],0.5387854000000516,2.0,2601.3015151,,,,,540,21,Woman,Right,
,,,,,,,,,,,,,,,,,540,21,Woman,Right,4,50,0.15,1,180,-,0,0.4289043999997375,['y'],1.0190955000007307,1.3639999999999999,2605.4510823,,,,,540,21,Woman,Right,
,,,,,,,,,,,,,,,,,540,21,Woman,Right,4,16,0.4,1,0,-,0,0.25589529999979277,['n'],0.4990035999999236,2.0,2609.0005212000005,,,,,540,21,Woman,Right,
,,,,,,,,,,,,,,,,,540,21,Woman,Right,4,17,0.4,2,0,180,0,0.3052642000002379,['n'],0.5632682000004934,1.696,2612.6843669,,,,,540,21,Woman,Right,
,,,,,,,,,,,,,,,,,540,21,Woman,Right,4,21,0.4,2,0,180,180,0.5356110000002445,['y'],1.0351725999998962,1.276,2617.0347289,,,,,540,21,Woman,Right,
,,,,,,,,,,,,,,,,,540,21,Woman,Right,4,41,0.4,2,0,180,180,0.3097048999998151,['y'],1.5548988000000463,1.788,2623.3347519999998,,,,,540,21,Woman,Right,
,,,,,,,,,,,,,,,,,540,21,Woman,Right,4,79,0.15,2,180,0,0,0.35616619999927934,['y'],1.0911012999995364,1.322,2627.5506025000004,,,,,540,21,Woman,Right,
,,,,,,,,,,,,,,,,,540,21,Woman,Right,4,9,0.4,2,0,180,180,0.2656712999996671,['y'],1.5790862999992896,1.778,2632.3841628,,,,,540,21,Woman,Right,
,,,,,,,,,,,,,,,,,540,21,Woman,Right,4,18,0.4,1,180,-,180,0.5860063000000082,['n'],0.6192595000002257,1.8479999999999999,2637.1015455000006,,,,,540,21,Woman,Right,
,,,,,,,,,,,,,,,,,540,21,Woman,Right,4,73,0.15,2,0,180,0,0.3565798999998151,['n'],6.8674113999995825,1.74,2647.6337492000002,,,,,540,21,Woman,Right,
,,,,,,,,,,,,,,,,,540,21,Woman,Right,5,63,0.15,2,180,0,180,1.8464241000001493,['y'],2.635031499999968,1.28,2665.8677699,80.0,87.5,62.5,,540,21,Woman,Right,
,,,,,,,,,,,,,,,,,540,21,Woman,Right,5,5,1,2,0,180,180,0.2439412000003358,['y'],0.9477117000005819,1.814,2670.1013569000006,,,,,540,21,Woman,Right,
,,,,,,,,,,,,,,,,,540,21,Woman,Right,5,44,0.15,1,0,-,0,0.23875860000043758,['n'],2.8514470999998593,1.746,2676.2835629,,,,,540,21,Woman,Right,
,,,,,,,,,,,,,,,,,540,21,Woman,Right,5,71,0.15,2,180,0,0,0.5107282999997551,['y'],0.7797233999999662,1.19,2680.2342083000003,,,,,540,21,Woman,Right,
,,,,,,,,,,,,,,,,,540,21,Woman,Right,5,6,1,1,180,-,180,0.300202000000354,['n'],0.5086207000003924,2.0,2684.2506687000005,,,,,540,21,Woman,Right,
,,,,,,,,,,,,,,,,,540,21,Woman,Right,5,54,0.15,1,180,-,0,1.566165500000352,['y'],1.2995527000002767,1.29,2690.9341802999998,,,,,540,21,Woman,Right,
,,,,,,,,,,,,,,,,,540,21,Woman,Right,5,18,0.4,1,180,-,180,0.35601279999991675,['n'],2.1471282000002248,1.95,2696.5676591,,,,,540,21,Woman,Right,
,,,,,,,,,,,,,,,,,540,21,Woman,Right,5,61,0.15,2,0,180,180,1.554066600000624,['n'],0.995509200000015,1.198,2701.7346679,,,,,540,21,Woman,Right,
,,,,,,,,,,,,,,,,,540,21,Woman,Right,5,43,0.4,2,180,0,0,0.5217381000002206,['y'],0.8118403999997099,1.68,2705.8337020999998,,,,,540,21,Woman,Right,
,,,,,,,,,,,,,,,,,540,21,Woman,Right,5,41,0.4,2,0,180,180,0.7581579999996393,['y'],0.8035171000001355,1.714,2710.2342464000003,,,,,540,21,Woman,Right,
,,,,,,,,,,,,,,,,,540,21,Woman,Right,5,79,0.15,2,180,0,0,1.3441556999996465,['y'],0.6838459000000512,1.274,2714.9170818000002,,,,,540,21,Woman,Right,
,,,,,,,,,,,,,,,,,540,21,Woman,Right,5,68,0.15,1,0,-,0,1.107506999999714,['n'],0.9878331999998409,1.266,2720.2177885,,,,,540,21,Woman,Right,
,,,,,,,,,,,,,,,,,540,21,Woman,Right,5,22,0.4,1,180,-,180,0.9037105999996129,['n'],3.6521786000002976,1.266,2727.9339322000005,,,,,540,21,Woman,Right,
,,,,,,,,,,,,,,,,,540,21,Woman,Right,5,74,0.15,1,180,-,0,1.3070688999996491,['y'],0.7555757000000085,1.276,2732.9850975,,,,,540,21,Woman,Right,
,,,,,,,,,,,,,,,,,540,21,Woman,Right,5,50,0.15,1,180,-,0,0.7768732000004093,['n'],0.8836479000001418,1.716,2737.2842804,,,,,540,21,Woman,Right,
,,,,,,,,,,,,,,,,,540,21,Woman,Right,5,37,0.4,2,0,180,180,0.42039479999948526,['y'],0.827994199999921,1.704,2741.267447,,,,,540,21,Woman,Right,
,,,,,,,,,,,,,,,,,540,21,Woman,Right,5,48,0.15,1,0,-,0,0.3993499999996857,['n'],3.890671199999815,1.26,2748.6674971,,,,,540,21,Woman,Right,
,,,,,,,,,,,,,,,,,540,21,Woman,Right,5,53,0.15,2,0,180,0,0.41305819999979576,['n'],0.6273267999995369,1.6,2753.0515367,,,,,540,21,Woman,Right,
,,,,,,,,,,,,,,,,,540,21,Woman,Right,5,77,0.15,2,0,180,180,0.43137600000045495,['n'],5.851655899999969,1.248,2762.0344608000005,,,,,540,21,Woman,Right,
,,,,,,,,,,,,,,,,,540,21,Woman,Right,5,70,0.15,1,180,-,0,0.7159707000000708,['y'],0.6279195999995864,1.3,2766.2007516000003,,,,,540,21,Woman,Right,
,,,,,,,,,,,,,,,,,540,21,Woman,Right,5,39,0.4,2,180,0,0,0.5214070000001811,['y'],0.6919467999996414,1.682,2770.0688958,,,,,540,21,Woman,Right,
,,,,,,,,,,,,,,,,,540,21,Woman,Right,5,58,0.15,1,180,-,180,0.5334963000004791,['n'],0.9319712999995318,1.312,2774.5508174000006,,,,,540,21,Woman,Right,
,,,,,,,,,,,,,,,,,540,21,Woman,Right,5,7,1,2,180,0,0,0.3703865000006772,['y'],0.7566176000000269,2.0,2778.2510557000005,,,,,540,21,Woman,Right,
,,,,,,,,,,,,,,,,,540,21,Woman,Right,5,57,0.15,2,0,180,0,1.8379326999993282,['y'],1.4200617000005877,1.282,2784.5838620000004,,,,,540,21,Woman,Right,
,,,,,,,,,,,,,,,,,540,21,Woman,Right,5,59,0.15,2,180,0,0,0.8329958000003899,['n'],3.3645904999993945,1.3519999999999999,2791.8348129000005,,,,,540,21,Woman,Right,
,,,,,,,,,,,,,,,,,540,21,Woman,Right,5,0,1,1,0,-,0,0.28723059999992984,['n'],0.499619299999722,2.0,2795.5009105,,,,,540,21,Woman,Right,
,,,,,,,,,,,,,,,,,540,21,Woman,Right,5,47,0.15,2,180,0,0,0.4387269999997443,['y'],0.8199010999996972,1.328,2799.4675504000006,,,,,540,21,Woman,Right,
,,,,,,,,,,,,,,,,,540,21,Woman,Right,5,76,0.15,1,0,-,0,0.383338100000401,['n'],4.370578599999135,1.688,2807.4847529,,,,,540,21,Woman,Right,
,,,,,,,,,,,,,,,,,540,21,Woman,Right,5,8,0.4,1,0,-,0,0.35919819999980973,['n'],1.5635802999995576,1.76,2812.1669429000003,,,,,540,21,Woman,Right,
,,,,,,,,,,,,,,,,,540,21,Woman,Right,5,14,0.4,1,180,-,180,0.4522041000000172,['n'],1.2359796999999162,1.722,2816.7341256,,,,,540,21,Woman,Right,
,,,,,,,,,,,,,,,,,540,21,Woman,Right,5,20,0.4,1,0,-,0,0.21051020000049903,['n'],0.9324212000001353,1.75,2820.5670581000004,,,,,540,21,Woman,Right,
,,,,,,,,,,,,,,,,,540,21,Woman,Right,5,13,0.4,2,0,180,180,0.5617564000003767,['y'],1.28457249999974,1.72,2825.1180366,,,,,540,21,Woman,Right,
,,,,,,,,,,,,,,,,,540,21,Woman,Right,5,29,0.4,2,0,180,180,0.4290411000001768,['y'],1.3405284999998912,1.692,2829.4343944,,,,,540,21,Woman,Right,
,,,,,,,,,,,,,,,,,540,21,Woman,Right,5,30,0.4,1,180,-,180,0.2616342999999688,['n'],1.3247236000006524,1.716,2833.6011281,,,,,540,21,Woman,Right,
,,,,,,,,,,,,,,,,,540,21,Woman,Right,5,21,0.4,2,0,180,180,0.3277354000001651,['y'],1.6366485999997167,1.726,2838.3511001000006,,,,,540,21,Woman,Right,
,,,,,,,,,,,,,,,,,540,21,Woman,Right,5,60,0.15,1,0,-,0,0.8897131000003355,['n'],1.6526019000002634,1.6600000000000001,2843.8675428000006,,,,,540,21,Woman,Right,
,,,,,,,,,,,,,,,,,540,21,Woman,Right,5,62,0.15,1,180,-,180,0.3042510000004768,['n'],1.0917976999999155,1.3599999999999999,2847.9015106000006,,,,,540,21,Woman,Right,
,,,,,,,,,,,,,,,,,540,21,Woman,Right,5,33,0.4,2,0,180,180,0.3493639999996958,['y'],0.7475920999995651,1.718,2852.6513431000003,,,,,540,21,Woman,Right,
,,,,,,,,,,,,,,,,,540,21,Woman,Right,5,49,0.15,2,0,180,180,0.5905154000001858,['y'],0.8765628000001016,1.298,2856.8007676000007,,,,,540,21,Woman,Right,
,,,,,,,,,,,,,,,,,540,21,Woman,Right,5,51,0.15,2,180,0,0,0.2799265000003288,['y'],0.8126554000000397,1.6520000000000001,2860.6008862,,,,,540,21,Woman,Right,
,,,,,,,,,,,,,,,,,540,21,Woman,Right,5,1,1,2,0,180,180,0.3586414999999761,['y'],1.5488724999995611,1.714,2865.1345112999998,,,,,540,21,Woman,Right,
,,,,,,,,,,,,,,,,,540,21,Woman,Right,5,4,1,1,0,-,0,0.31386100000054284,['n'],0.7880481000001964,1.642,2869.3847050000004,,,,,540,21,Woman,Right,
,,,,,,,,,,,,,,,,,540,21,Woman,Right,5,65,0.15,2,0,180,180,1.5240383000000293,['n'],1.1568459000000075,1.318,2875.2680573,,,,,540,21,Woman,Right,
,,,,,,,,,,,,,,,,,540,21,Woman,Right,5,52,0.15,1,0,-,0,0.2781710999997813,['n'],0.636606699999902,1.892,2878.7338928,,,,,540,21,Woman,Right,
,,,,,,,,,,,,,,,,,540,21,Woman,Right,5,35,0.4,2,180,0,0,0.38690909999968426,['y'],1.5722071999998661,2.0,2883.3844768,,,,,540,21,Woman,Right,
,,,,,,,,,,,,,,,,,540,21,Woman,Right,5,69,0.15,2,0,180,0,0.5782611000004181,['y'],3.7483328999996957,1.3559999999999999,2890.8509399000004,,,,,540,21,Woman,Right,
,,,,,,,,,,,,,,,,,540,21,Woman,Right,5,17,0.4,2,0,180,180,0.44093249999968975,['y'],0.964544699999351,1.65,2895.7509931000004,,,,,540,21,Woman,Right,
,,,,,,,,,,,,,,,,,540,21,Woman,Right,5,19,0.4,2,180,0,0,0.3514372999998159,['y'],0.6526662000005672,1.75,2899.3180391000005,,,,,540,21,Woman,Right,
,,,,,,,,,,,,,,,,,540,21,Woman,Right,5,2,1,1,180,-,180,0.4345180000000255,['n'],0.6608940999994957,1.932,2903.7173343000004,,,,,540,21,Woman,Right,
,,,,,,,,,,,,,,,,,540,21,Woman,Right,5,38,0.4,1,180,-,180,0.3399602999998024,['n'],0.6604251999997359,1.624,2907.4837139,,,,,540,21,Woman,Right,
,,,,,,,,,,,,,,,,,540,21,Woman,Right,5,56,0.15,1,0,-,0,0.31592490000002726,['n'],1.5499420999994982,1.672,2912.0845930000005,,,,,540,21,Woman,Right,
,,,,,,,,,,,,,,,,,540,21,Woman,Right,5,78,0.15,1,180,-,180,0.4211506999999983,['n'],0.8850887000007788,1.296,2916.1846875,,,,,540,21,Woman,Right,
,,,,,,,,,,,,,,,,,540,21,Woman,Right,5,15,0.4,2,180,0,0,0.305469500000072,['n'],2.2369649000002028,1.714,2921.5514156,,,,,540,21,Woman,Right,
,,,,,,,,,,,,,,,,,540,21,Woman,Right,5,40,0.4,1,0,-,0,0.2641676000002917,['n'],0.5246516000006523,1.736,2925.2849072999998,,,,,540,21,Woman,Right,
,,,,,,,,,,,,,,,,,540,21,Woman,Right,5,64,0.15,1,0,-,0,0.9084723000005397,['n'],1.213101800000004,1.26,2930.0342003000005,,,,,540,21,Woman,Right,
,,,,,,,,,,,,,,,,,540,21,Woman,Right,5,16,0.4,1,0,-,0,0.2554489999993166,['n'],0.7974226999995153,1.724,2933.7008535000004,,,,,540,21,Woman,Right,
,,,,,,,,,,,,,,,,,540,21,Woman,Right,5,9,0.4,2,0,180,0,0.31588620000002265,['n'],0.4850218000001405,2.0,2937.2341107,,,,,540,21,Woman,Right,
,,,,,,,,,,,,,,,,,540,21,Woman,Right,5,31,0.4,2,180,0,180,0.5655987999998615,['y'],1.3411341999999422,1.244,2941.9839589000003,,,,,540,21,Woman,Right,
,,,,,,,,,,,,,,,,,540,21,Woman,Right,5,75,0.15,2,180,0,0,0.7060324000003675,['n'],1.2126457999993363,1.256,2946.7841869000003,,,,,540,21,Woman,Right,
,,,,,,,,,,,,,,,,,540,21,Woman,Right,5,3,1,2,180,0,0,0.5461635999999999,['y'],0.6048447000002852,2.0,2950.417987,,,,,540,21,Woman,Right,
,,,,,,,,,,,,,,,,,540,21,Woman,Right,5,10,0.4,1,180,-,180,0.27215290000003733,['n'],0.6848315999995975,2.0,2954.0175624000003,,,,,540,21,Woman,Right,
,,,,,,,,,,,,,,,,,540,21,Woman,Right,5,12,0.4,1,0,-,0,0.3222968000000037,['n'],0.4848707999999533,2.0,2958.1337004000006,,,,,540,21,Woman,Right,
,,,,,,,,,,,,,,,,,540,21,Woman,Right,5,27,0.4,2,180,0,0,2.012274400000024,['n'],2.188619800000197,1.358,2966.2847026,,,,,540,21,Woman,Right,
,,,,,,,,,,,,,,,,,540,21,Woman,Right,5,36,0.4,1,0,-,0,0.2500027999994927,['n'],0.5016286000000036,2.0,2969.8005771,,,,,540,21,Woman,Right,
,,,,,,,,,,,,,,,,,540,21,Woman,Right,5,25,0.4,2,0,180,180,0.4016252000001259,['y'],1.285299600000144,1.684,2974.1012966,,,,,540,21,Woman,Right,
,,,,,,,,,,,,,,,,,540,21,Woman,Right,5,45,0.15,2,0,180,180,0.5976058999995075,['y'],2.8136076000000685,1.2,2980.3177190000006,,,,,540,21,Woman,Right,
,,,,,,,,,,,,,,,,,540,21,Woman,Right,5,66,0.15,1,180,-,180,0.4993537999998807,['y'],5.9901205999995,1.26,2989.6848685000004,,,,,540,21,Woman,Right,
,,,,,,,,,,,,,,,,,540,21,Woman,Right,5,46,0.15,1,180,-,180,0.6700436999999511,['y'],0.7971551999999065,1.276,2995.0676702,,,,,540,21,Woman,Right,
,,,,,,,,,,,,,,,,,540,21,Woman,Right,5,67,0.15,2,180,0,0,0.45486669999991136,['y'],0.813535100000081,1.6219999999999999,2998.9346975,,,,,540,21,Woman,Right,
,,,,,,,,,,,,,,,,,540,21,Woman,Right,5,23,0.4,2,180,0,0,0.6041629000001194,['y'],0.8616354999994655,1.67,3002.901384,,,,,540,21,Woman,Right,
,,,,,,,,,,,,,,,,,540,21,Woman,Right,5,73,0.15,2,0,180,180,0.5223009000001184,['y'],4.261826399999336,1.252,3010.4679205,,,,,540,21,Woman,Right,
,,,,,,,,,,,,,,,,,540,21,Woman,Right,5,42,0.4,1,180,-,180,0.5986579999998867,['n'],0.6851244999998016,1.268,3014.3505495,,,,,540,21,Woman,Right,
,,,,,,,,,,,,,,,,,540,21,Woman,Right,5,26,0.4,1,180,-,180,0.49957290000020294,['n'],0.8931058999996822,1.3399999999999999,3018.6508199,,,,,540,21,Woman,Right,
,,,,,,,,,,,,,,,,,540,21,Woman,Right,5,32,0.4,1,0,-,0,0.21426699999938137,['n'],1.3898845000003348,1.81,3022.9182140000003,,,,,540,21,Woman,Right,
,,,,,,,,,,,,,,,,,540,21,Woman,Right,5,55,0.15,2,180,0,180,0.3327566999996634,['n'],0.749373800000285,1.3399999999999999,3027.2833321,,,,,540,21,Woman,Right,
,,,,,,,,,,,,,,,,,540,21,Woman,Right,5,24,0.4,1,0,-,0,0.32624370000030467,['n'],0.43805580000025657,1.938,3030.7508197000006,,,,,540,21,Woman,Right,
,,,,,,,,,,,,,,,,,540,21,Woman,Right,5,34,0.4,1,180,-,180,0.17116700000042329,['n'],6.725615299999845,1.914,3040.3177152,,,,,540,21,Woman,Right,
,,,,,,,,,,,,,,,,,540,21,Woman,Right,5,72,0.15,1,0,-,0,0.2897575999995752,['n'],2.7255457999999635,1.82,3045.9343726000006,,,,,540,21,Woman,Right,
,,,,,,,,,,,,,,,,,540,21,Woman,Right,5,28,0.4,1,0,-,0,0.13040389999969193,['n'],1.0856828000005407,2.0,3049.8846678,,,,,540,21,Woman,Right,
,,,,,,,,,,,,,,,,,540,21,Woman,Right,5,11,0.4,2,180,0,0,0.6135152999995626,['y'],0.9260104999993928,2.0,3054.1013572,,,,,540,21,Woman,Right,
,,,,,,,,,,,,,,,,,,,,,,,,,,,,,,,,,86.25,87.5,75.0,2737.8459804,,,,,
