p_block,p_section,p_coherence,p_direction1,p_direction2,p_direction_response,p_direction_RT,p_change_response,p_change_RT,p_confidence,p_full_correct,p_without5_correct,p_full_total,p_without5_total,p_full_avg,p_witout5_avg,p_total_time,sub,age,sex,handedness,loop,trial randomization,coherence,condition,direction1,direction2,direction_response,direction_RT,change_response,change_RT,change_confidence,change_confidence_RT,block_direction_avg,block_stable_avg,block_change_avg,total_time,sub,age,sex,handedness,
1,1,1.0,0,-,0,3.572150299999521,-,-,-,,,,,,,,541,21,Woman,Right,,,,,,,,,,,,,,,,,541,21,Woman,Right,
1,1,1.0,0,-,0,2.960129799999777,-,-,-,,,,,,,,541,21,Woman,Right,,,,,,,,,,,,,,,,,541,21,Woman,Right,
1,1,1.0,180,-,180,1.0032607000002827,-,-,-,,,,,,,,541,21,Woman,Right,,,,,,,,,,,,,,,,,541,21,Woman,Right,
1,1,1.0,0,-,0,0.6852954999994836,-,-,-,,,,,,,,541,21,Woman,Right,,,,,,,,,,,,,,,,,541,21,Woman,Right,
1,1,1.0,0,-,0,0.924161599999934,-,-,-,,,,,,,,541,21,Woman,Right,,,,,,,,,,,,,,,,,541,21,Woman,Right,
1,1,1.0,0,-,0,0.5541090999995504,-,-,-,,,,,,,,541,21,Woman,Right,,,,,,,,,,,,,,,,,541,21,Woman,Right,
1,1,1.0,0,-,0,0.9096124999996391,-,-,-,,,,,,,,541,21,Woman,Right,,,,,,,,,,,,,,,,,541,21,Woman,Right,
1,1,1.0,180,-,180,0.3961155000006329,-,-,-,,,,,,,,541,21,Woman,Right,,,,,,,,,,,,,,,,,541,21,Woman,Right,
1,1,1.0,180,-,180,0.03152649999992718,-,-,-,,,,,,,,541,21,Woman,Right,,,,,,,,,,,,,,,,,541,21,Woman,Right,
1,1,1.0,180,-,180,0.3928615999993781,-,-,-,10,10,10,10,1.0,1.0,,541,21,Woman,Right,,,,,,,,,,,,,,,,,541,21,Woman,Right,
2,1,0.15,180,-,0,2.5071007999995345,-,-,-,,,,,,,,541,21,Woman,Right,,,,,,,,,,,,,,,,,541,21,Woman,Right,
2,1,0.4,180,-,180,0.6408406000000468,-,-,-,,,,,,,,541,21,Woman,Right,,,,,,,,,,,,,,,,,541,21,Woman,Right,
2,1,0.4,180,-,180,0.46500789999936387,-,-,-,,,,,,,,541,21,Woman,Right,,,,,,,,,,,,,,,,,541,21,Woman,Right,
2,1,0.15,0,-,0,0.44038090000049124,-,-,-,,,,,,,,541,21,Woman,Right,,,,,,,,,,,,,,,,,541,21,Woman,Right,
2,1,0.4,180,-,180,0.43310979999932897,-,-,-,,,,,,,,541,21,Woman,Right,,,,,,,,,,,,,,,,,541,21,Woman,Right,
2,1,0.15,0,-,0,0.4745305999995253,-,-,-,,,,,,,,541,21,Woman,Right,,,,,,,,,,,,,,,,,541,21,Woman,Right,
2,1,0.4,180,-,180,0.2732917000002999,-,-,-,,,,,,,,541,21,Woman,Right,,,,,,,,,,,,,,,,,541,21,Woman,Right,
2,1,0.4,0,-,0,0.40045199999985925,-,-,-,,,,,,,,541,21,Woman,Right,,,,,,,,,,,,,,,,,541,21,Woman,Right,
2,1,0.4,180,-,180,0.40243399999963003,-,-,-,,,,,,,,541,21,Woman,Right,,,,,,,,,,,,,,,,,541,21,Woman,Right,
2,1,0.4,180,-,0,0.6692418000002363,-,-,-,8,6,10,7,0.8,0.8571428571428571,,541,21,Woman,Right,,,,,,,,,,,,,,,,,541,21,Woman,Right,
3,2,1.0,0,180,180,2.57007590000012,['y'],2.1384964999997464,2,,,,,,,,541,21,Woman,Right,,,,,,,,,,,,,,,,,541,21,Woman,Right,
3,2,1.0,180,0,0,1.0000276999999187,['y'],1.1511509000001752,2.0,,,,,,,,541,21,Woman,Right,,,,,,,,,,,,,,,,,541,21,Woman,Right,
3,2,1.0,0,180,180,0.6205559999998513,['y'],0.4602049999994051,2.0,,,,,,,,541,21,Woman,Right,,,,,,,,,,,,,,,,,541,21,Woman,Right,
3,2,1.0,0,180,180,0.5486399000001256,['y'],0.6134556000006341,2.0,,,,,,,,541,21,Woman,Right,,,,,,,,,,,,,,,,,541,21,Woman,Right,
3,2,1.0,180,0,0,0.44405230000029405,['y'],0.4502553000002081,2.0,,,,,,,,541,21,Woman,Right,,,,,,,,,,,,,,,,,541,21,Woman,Right,
3,2,1.0,180,0,0,0.4779936999993879,['y'],2.0428188999994745,2.0,,,,,,,,541,21,Woman,Right,,,,,,,,,,,,,,,,,541,21,Woman,Right,
3,2,1.0,0,180,180,0.8014956999995775,['y'],0.46474450000005163,2.0,,,,,,,,541,21,Woman,Right,,,,,,,,,,,,,,,,,541,21,Woman,Right,
3,2,1.0,0,180,180,0.5699197000003551,['y'],0.4350192000001698,2.0,,,,,,,,541,21,Woman,Right,,,,,,,,,,,,,,,,,541,21,Woman,Right,
3,2,1.0,180,0,0,0.3682944000001953,['y'],1.264233900000363,2.0,,,,,,,,541,21,Woman,Right,,,,,,,,,,,,,,,,,541,21,Woman,Right,
3,2,1.0,180,0,0,0.47140810000018973,['y'],1.835846500000116,2.0,10,10,10,10,1.0,1.0,,541,21,Woman,Right,,,,,,,,,,,,,,,,,541,21,Woman,Right,
4,2,0.4,0,180,0,1.633549299999686,['y'],4.550468499999624,1.6219999999999999,,,,,,,,541,21,Woman,Right,,,,,,,,,,,,,,,,,541,21,Woman,Right,
4,2,0.4,180,0,0,3.313579199999367,['y'],2.100800700000036,1.728,,,,,,,,541,21,Woman,Right,,,,,,,,,,,,,,,,,541,21,Woman,Right,
4,2,0.15,180,0,180,3.0246845000001485,['n'],1.1754289000000426,1.226,,,,,,,,541,21,Woman,Right,,,,,,,,,,,,,,,,,541,21,Woman,Right,
4,2,0.4,180,0,0,1.5192177999997512,['y'],0.8579509000001053,1.3780000000000001,,,,,,,,541,21,Woman,Right,,,,,,,,,,,,,,,,,541,21,Woman,Right,
4,2,0.4,180,0,0,0.6132077000002027,['y'],0.9404542000002039,1.702,,,,,,,,541,21,Woman,Right,,,,,,,,,,,,,,,,,541,21,Woman,Right,
4,2,0.4,180,0,0,0.6012965999998414,['y'],0.6090494000000035,1.6360000000000001,,,,,,,,541,21,Woman,Right,,,,,,,,,,,,,,,,,541,21,Woman,Right,
4,2,0.4,0,180,180,0.4406090000002223,['y'],0.4863245000005918,1.874,,,,,,,,541,21,Woman,Right,,,,,,,,,,,,,,,,,541,21,Woman,Right,
4,2,0.4,0,180,180,1.1619701999998142,['n'],0.5388813999998092,1.244,,,,,,,,541,21,Woman,Right,,,,,,,,,,,,,,,,,541,21,Woman,Right,
4,2,0.15,180,0,180,1.0730985999998666,['y'],0.8536217000000761,1.28,,,,,,,,541,21,Woman,Right,,,,,,,,,,,,,,,,,541,21,Woman,Right,
4,2,0.15,0,180,180,1.7194479999998293,['y'],0.5859103000002506,1.226,7,6,10,7,0.7,0.8571428571428571,,541,21,Woman,Right,,,,,,,,,,,,,,,,,541,21,Woman,Right,
5,3,0.4,0,-,0,1.116058300000077,['n'],0.8781963000001269,1.686,,,,,,,,541,21,Woman,Right,,,,,,,,,,,,,,,,,541,21,Woman,Right,
5,3,0.15,0,180,180,1.0733234999997876,['y'],0.8290556000001743,1.288,,,,,,,,541,21,Woman,Right,,,,,,,,,,,,,,,,,541,21,Woman,Right,
5,3,1.0,0,-,0,0.3604589999995369,['n'],0.38611240000045655,2.0,,,,,,,,541,21,Woman,Right,,,,,,,,,,,,,,,,,541,21,Woman,Right,
5,3,1.0,180,0,0,1.0995449000001827,['y'],0.3124719000006735,2.0,,,,,,,,541,21,Woman,Right,,,,,,,,,,,,,,,,,541,21,Woman,Right,
5,3,0.15,0,-,0,1.599597200000062,['y'],0.32594199999948614,1.0,,,,,,,,541,21,Woman,Right,,,,,,,,,,,,,,,,,541,21,Woman,Right,
5,3,0.15,0,-,180,2.0590621000001192,['n'],0.8959125999999742,1.186,,,,,,,,541,21,Woman,Right,,,,,,,,,,,,,,,,,541,21,Woman,Right,
5,3,0.15,0,180,0,1.6834424999997282,['n'],2.8315528000002814,1.1440000000000001,,,,,,,,541,21,Woman,Right,,,,,,,,,,,,,,,,,541,21,Woman,Right,
5,3,1.0,0,-,0,0.4117319999995743,['n'],0.3232352999993964,2.0,,,,,,,,541,21,Woman,Right,,,,,,,,,,,,,,,,,541,21,Woman,Right,
5,3,1.0,0,-,180,0.6674502000005305,['n'],0.4475574999996752,1.1179999999999999,,,,,,,,541,21,Woman,Right,,,,,,,,,,,,,,,,,541,21,Woman,Right,
5,3,0.4,180,0,0,0.6015158999998675,['y'],0.2641567999999097,1.726,7,5,10,6,0.7,0.8333333333333334,,541,21,Woman,Right,,,,,,,,,,,,,,,,,541,21,Woman,Right,
,,,,,,,,,,,,,,,,5.7999995988211595e-06,541,21,Woman,Right,,,,,,,,,,,,,,,,,541,21,Woman,Right,
,,,,,,,,,,,,,,,,,541,21,Woman,Right,0,62,0.15,1,180,-,180,1.836818800000401,['n'],6.4913806000004115,1.202,326.1151187000005,,,,,541,21,Woman,Right,
,,,,,,,,,,,,,,,,,541,21,Woman,Right,0,40,0.4,1,0,-,0,0.6118433999999979,['n'],1.3322657999997318,1.274,332.0977284999999,,,,,541,21,Woman,Right,
,,,,,,,,,,,,,,,,,541,21,Woman,Right,0,68,0.15,1,0,-,180,2.6106018999998923,['n'],1.164286600000196,1.16,339.5483715999999,,,,,541,21,Woman,Right,
,,,,,,,,,,,,,,,,,541,21,Woman,Right,0,21,0.4,2,0,180,180,1.5134648000002926,['y'],1.043811800000185,1.722,345.1641745000006,,,,,541,21,Woman,Right,
,,,,,,,,,,,,,,,,,541,21,Woman,Right,0,35,0.4,2,180,0,0,0.6012767000001986,['y'],1.0122953999998572,1.724,350.2138531999999,,,,,541,21,Woman,Right,
,,,,,,,,,,,,,,,,,541,21,Woman,Right,0,64,0.15,1,0,-,180,1.990621099999771,['n'],0.9637431000001015,1.6480000000000001,356.8641471000001,,,,,541,21,Woman,Right,
,,,,,,,,,,,,,,,,,541,21,Woman,Right,0,38,0.4,1,180,-,180,1.4490177999996376,['n'],0.7943815999997241,1.31,363.0139027000005,,,,,541,21,Woman,Right,
,,,,,,,,,,,,,,,,,541,21,Woman,Right,0,67,0.15,2,180,0,0,1.5470775999992838,['y'],0.8916286999992735,1.232,369.0473767000003,,,,,541,21,Woman,Right,
,,,,,,,,,,,,,,,,,541,21,Woman,Right,0,22,0.4,1,180,-,0,0.6906178999997792,['y'],0.8277404999998907,1.276,374.16428950000045,,,,,541,21,Woman,Right,
,,,,,,,,,,,,,,,,,541,21,Woman,Right,0,16,0.4,1,0,-,0,0.6971039000000019,['n'],1.0999677999998312,1.6520000000000001,379.79783620000035,,,,,541,21,Woman,Right,
,,,,,,,,,,,,,,,,,541,21,Woman,Right,0,63,0.15,2,180,0,0,1.8602897999999186,['y'],1.0917216999996526,1.0,386.26462580000043,,,,,541,21,Woman,Right,
,,,,,,,,,,,,,,,,,541,21,Woman,Right,0,28,0.4,1,0,-,0,2.082723800000167,['n'],1.2790073000005577,1.244,393.1810906999999,,,,,541,21,Woman,Right,
,,,,,,,,,,,,,,,,,541,21,Woman,Right,0,5,1,2,0,180,180,0.49714289999974426,['y'],1.4676292999993166,2.0,398.4141552000001,,,,,541,21,Woman,Right,
,,,,,,,,,,,,,,,,,541,21,Woman,Right,0,26,0.4,1,180,-,180,0.5579475000004095,['n'],0.9639089000002059,1.672,403.18103260000044,,,,,541,21,Woman,Right,
,,,,,,,,,,,,,,,,,541,21,Woman,Right,0,39,0.4,2,180,0,0,0.4972039999993285,['y'],0.8915881000002628,1.8439999999999999,408.01402020000023,,,,,541,21,Woman,Right,
,,,,,,,,,,,,,,,,,541,21,Woman,Right,0,31,0.4,2,180,0,0,0.39248379999935423,['y'],0.85962279999967,1.782,412.8799546,,,,,541,21,Woman,Right,
,,,,,,,,,,,,,,,,,541,21,Woman,Right,0,18,0.4,1,180,-,180,1.4532819000005475,['n'],0.6919406000006347,1.63,418.4467676000004,,,,,541,21,Woman,Right,
,,,,,,,,,,,,,,,,,541,21,Woman,Right,0,50,0.15,1,180,-,0,0.4839340999997148,['y'],0.93148519999977,1.31,423.44753110000056,,,,,541,21,Woman,Right,
,,,,,,,,,,,,,,,,,541,21,Woman,Right,0,44,0.15,1,0,-,0,0.645582099999956,['n'],0.9320900000002439,1.704,428.4471481999999,,,,,541,21,Woman,Right,
,,,,,,,,,,,,,,,,,541,21,Woman,Right,0,11,0.4,2,180,0,0,0.32391350000034436,['y'],1.035840300000018,1.768,433.5466986000001,,,,,541,21,Woman,Right,
,,,,,,,,,,,,,,,,,541,21,Woman,Right,0,61,0.15,2,0,180,180,1.21796170000016,['n'],0.8838255999999092,1.73,439.06411220000064,,,,,541,21,Woman,Right,
,,,,,,,,,,,,,,,,,541,21,Woman,Right,0,36,0.4,1,0,-,0,2.268520699999499,['n'],0.7635826999994606,1.0,445.03087529999993,,,,,541,21,Woman,Right,
,,,,,,,,,,,,,,,,,541,21,Woman,Right,0,74,0.15,1,180,-,180,1.5661136999997325,['n'],0.8589518999997381,1.8,451.2802270000002,,,,,541,21,Woman,Right,
,,,,,,,,,,,,,,,,,541,21,Woman,Right,0,33,0.4,2,0,180,180,1.628588800000216,['y'],0.7159714999997959,1.166,457.0144823999999,,,,,541,21,Woman,Right,
,,,,,,,,,,,,,,,,,541,21,Woman,Right,0,75,0.15,2,180,0,0,0.44277080000028946,['y'],1.2597680999997465,1.338,462.12956290000056,,,,,541,21,Woman,Right,
,,,,,,,,,,,,,,,,,541,21,Woman,Right,0,20,0.4,1,0,-,0,0.7508739000004425,['n'],0.8043526999999813,1.232,466.9966473000004,,,,,541,21,Woman,Right,
,,,,,,,,,,,,,,,,,541,21,Woman,Right,0,30,0.4,1,180,-,180,1.2147070000000895,['n'],0.9554305000001477,1.748,472.97984929999984,,,,,541,21,Woman,Right,
,,,,,,,,,,,,,,,,,541,21,Woman,Right,0,6,1,1,180,-,180,1.0069769000001543,['n'],0.47559430000001157,2.0,477.64707420000013,,,,,541,21,Woman,Right,
,,,,,,,,,,,,,,,,,541,21,Woman,Right,0,53,0.15,2,0,180,180,0.5307949999996708,['y'],0.8922091000004002,1.76,483.21278820000043,,,,,541,21,Woman,Right,
,,,,,,,,,,,,,,,,,541,21,Woman,Right,0,55,0.15,2,180,0,180,0.9900163000002067,['n'],0.6997104000001855,1.22,488.09695530000045,,,,,541,21,Woman,Right,
,,,,,,,,,,,,,,,,,541,21,Woman,Right,0,65,0.15,2,0,180,180,0.460920200000146,['y'],0.8919501999998829,1.666,492.7629616000004,,,,,541,21,Woman,Right,
,,,,,,,,,,,,,,,,,541,21,Woman,Right,0,19,0.4,2,180,0,0,0.49937279999994644,['y'],0.6915988999999172,1.6600000000000001,496.92952930000047,,,,,541,21,Woman,Right,
,,,,,,,,,,,,,,,,,541,21,Woman,Right,0,9,0.4,2,0,180,180,0.3391781999998784,['y'],0.6278155999998489,1.748,501.0298745,,,,,541,21,Woman,Right,
,,,,,,,,,,,,,,,,,541,21,Woman,Right,0,73,0.15,2,0,180,180,1.4801556000002165,['y'],0.7716417000001456,1.194,506.2467099000005,,,,,541,21,Woman,Right,
,,,,,,,,,,,,,,,,,541,21,Woman,Right,0,13,0.4,2,0,180,180,0.359559999999874,['y'],1.3795345000007728,1.72,511.07918190000055,,,,,541,21,Woman,Right,
,,,,,,,,,,,,,,,,,541,21,Woman,Right,0,57,0.15,2,0,180,180,2.1098258000001806,['y'],1.5959169000007023,1.158,517.8125052000005,,,,,541,21,Woman,Right,
,,,,,,,,,,,,,,,,,541,21,Woman,Right,0,47,0.15,2,180,0,0,0.8081094000008306,['n'],1.059572300000582,1.256,522.9634917000003,,,,,541,21,Woman,Right,
,,,,,,,,,,,,,,,,,541,21,Woman,Right,0,24,0.4,1,0,-,0,0.7303743000002214,['n'],0.7001308000008066,1.192,527.7126622000005,,,,,541,21,Woman,Right,
,,,,,,,,,,,,,,,,,541,21,Woman,Right,0,77,0.15,2,0,180,180,3.6125209000001632,['y'],0.3953585999997813,1.0,535.0462278000005,,,,,541,21,Woman,Right,
,,,,,,,,,,,,,,,,,541,21,Woman,Right,0,48,0.15,1,0,-,0,2.5329876000005243,['n'],2.0489605000002484,1.112,543.4623030000002,,,,,541,21,Woman,Right,
,,,,,,,,,,,,,,,,,541,21,Woman,Right,0,69,0.15,2,0,180,180,2.3256372000005285,['n'],1.1240768999996362,1.0,550.5296422000001,,,,,541,21,Woman,Right,
,,,,,,,,,,,,,,,,,541,21,Woman,Right,0,51,0.15,2,180,0,0,5.635330899999644,['n'],1.043354299999919,1.0,560.2954557000003,,,,,541,21,Woman,Right,
,,,,,,,,,,,,,,,,,541,21,Woman,Right,0,45,0.15,2,0,180,0,0.9089596999992864,['n'],1.123324799999864,1.0,566.4789679000005,,,,,541,21,Woman,Right,
,,,,,,,,,,,,,,,,,541,21,Woman,Right,0,12,0.4,1,0,-,0,1.2629269999997632,['n'],1.212029000000257,1.0,571.7962259000005,,,,,541,21,Woman,Right,
,,,,,,,,,,,,,,,,,541,21,Woman,Right,0,76,0.15,1,0,-,0,0.7695882999996684,['n'],0.6682866999999533,1.0,576.3460241000002,,,,,541,21,Woman,Right,
,,,,,,,,,,,,,,,,,541,21,Woman,Right,0,1,1,2,0,180,180,1.3248375000002852,['y'],0.44368250000025,2.0,581.2126985000004,,,,,541,21,Woman,Right,
,,,,,,,,,,,,,,,,,541,21,Woman,Right,0,79,0.15,2,180,0,0,1.8832056000001103,['n'],0.9154827000002115,1.078,587.0614550999999,,,,,541,21,Woman,Right,
,,,,,,,,,,,,,,,,,541,21,Woman,Right,0,32,0.4,1,0,-,0,0.45997429999988526,['n'],1.5236254000001281,1.296,592.7959050999998,,,,,541,21,Woman,Right,
,,,,,,,,,,,,,,,,,541,21,Woman,Right,0,78,0.15,1,180,-,180,0.3658704999998008,['n'],0.8915337999997064,1.424,598.4621259000005,,,,,541,21,Woman,Right,
,,,,,,,,,,,,,,,,,541,21,Woman,Right,0,58,0.15,1,180,-,0,1.4945260000004055,['n'],0.52399239999977,1.0,603.4290677999998,,,,,541,21,Woman,Right,
,,,,,,,,,,,,,,,,,541,21,Woman,Right,0,2,1,1,180,-,180,0.5064400000001115,['n'],0.619781200000034,2.0,607.5281086000005,,,,,541,21,Woman,Right,
,,,,,,,,,,,,,,,,,541,21,Woman,Right,0,60,0.15,1,0,-,0,1.838189300000522,['n'],0.7477826000003915,1.0,613.0620726000006,,,,,541,21,Woman,Right,
,,,,,,,,,,,,,,,,,541,21,Woman,Right,0,43,0.4,2,180,0,0,0.6950858000000153,['n'],1.244187299999794,1.4140000000000001,618.6279378999998,,,,,541,21,Woman,Right,
,,,,,,,,,,,,,,,,,541,21,Woman,Right,0,14,0.4,1,180,-,180,0.4087133000002723,['n'],2.9398559999999634,1.646,625.5454068999998,,,,,541,21,Woman,Right,
,,,,,,,,,,,,,,,,,541,21,Woman,Right,0,8,0.4,1,0,-,0,1.149333100000149,['n'],0.7715705999999045,1.28,630.6621163,,,,,541,21,Woman,Right,
,,,,,,,,,,,,,,,,,541,21,Woman,Right,0,72,0.15,1,0,-,180,0.8452832000002672,['n'],0.6916744999998627,1.518,635.5778394999998,,,,,541,21,Woman,Right,
,,,,,,,,,,,,,,,,,541,21,Woman,Right,0,54,0.15,1,180,-,0,0.6940286999997625,['n'],1.1957328999997117,1.0,640.1121490000005,,,,,541,21,Woman,Right,
,,,,,,,,,,,,,,,,,541,21,Woman,Right,0,37,0.4,2,0,180,180,0.45392899999933434,['n'],1.0756598000007216,1.612,644.9289323000003,,,,,541,21,Woman,Right,
,,,,,,,,,,,,,,,,,541,21,Woman,Right,0,17,0.4,2,0,180,180,1.812104999999974,['y'],0.42805029999999533,1.722,650.1617018000006,,,,,541,21,Woman,Right,
,,,,,,,,,,,,,,,,,541,21,Woman,Right,0,7,1,2,180,0,0,1.2285265999998956,['y'],0.37208670000018174,1.998,654.7449333000004,,,,,541,21,Woman,Right,
,,,,,,,,,,,,,,,,,541,21,Woman,Right,0,34,0.4,1,180,-,180,0.6218399999997928,['n'],0.6201516000000993,1.658,659.0949662000003,,,,,541,21,Woman,Right,
,,,,,,,,,,,,,,,,,541,21,Woman,Right,0,10,0.4,1,180,-,180,0.4697142000004533,['n'],0.5880675999997038,1.658,663.0945885000001,,,,,541,21,Woman,Right,
,,,,,,,,,,,,,,,,,541,21,Woman,Right,0,59,0.15,2,180,0,0,1.1693279999999504,['y'],0.35624229999939416,1.62,667.7786075000004,,,,,541,21,Woman,Right,
,,,,,,,,,,,,,,,,,541,21,Woman,Right,0,56,0.15,1,0,-,180,1.0077210999997988,['n'],0.3477668999994421,1.174,672.0445850000006,,,,,541,21,Woman,Right,
,,,,,,,,,,,,,,,,,541,21,Woman,Right,0,23,0.4,2,180,0,0,1.0739172000003236,['y'],0.323947799999587,1.71,676.5617977000002,,,,,541,21,Woman,Right,
,,,,,,,,,,,,,,,,,541,21,Woman,Right,0,27,0.4,2,180,0,0,1.1484993999993094,['y'],0.31560199999967153,1.768,681.2778271000006,,,,,541,21,Woman,Right,
,,,,,,,,,,,,,,,,,541,21,Woman,Right,0,25,0.4,2,0,180,180,1.0818556999993234,['y'],0.30771119999917573,1.77,686.0284621999999,,,,,541,21,Woman,Right,
,,,,,,,,,,,,,,,,,541,21,Woman,Right,0,0,1,1,0,-,180,1.7665861000004952,['y'],0.3300202000000354,1.73,691.3122793000002,,,,,541,21,Woman,Right,
,,,,,,,,,,,,,,,,,541,21,Woman,Right,0,52,0.15,1,0,-,180,2.023933300000863,['n'],0.3074845000001005,1.0,696.3278588000003,,,,,541,21,Woman,Right,
,,,,,,,,,,,,,,,,,541,21,Woman,Right,0,42,0.4,1,180,-,180,0.4757893999994849,['n'],1.0357966000001397,1.494,700.7782754,,,,,541,21,Woman,Right,
,,,,,,,,,,,,,,,,,541,21,Woman,Right,0,49,0.15,2,0,180,180,0.569996700000047,['n'],0.6602046999996674,1.404,705.9442184,,,,,541,21,Woman,Right,
,,,,,,,,,,,,,,,,,541,21,Woman,Right,0,66,0.15,1,180,-,180,0.6055058000001736,['n'],1.9721973000005164,1.0,712.4110603999998,,,,,541,21,Woman,Right,
,,,,,,,,,,,,,,,,,541,21,Woman,Right,0,4,1,1,0,-,0,0.9443601000002673,['n'],0.3159328000001551,2.0,716.8111939,,,,,541,21,Woman,Right,
,,,,,,,,,,,,,,,,,541,21,Woman,Right,0,46,0.15,1,180,-,180,0.6333834999995815,['n'],0.7351109000001088,1.298,721.4110961000006,,,,,541,21,Woman,Right,
,,,,,,,,,,,,,,,,,541,21,Woman,Right,0,71,0.15,2,180,0,0,1.1017230999996173,['y'],0.37980100000004313,1.738,725.8446930999999,,,,,541,21,Woman,Right,
,,,,,,,,,,,,,,,,,541,21,Woman,Right,0,29,0.4,2,0,180,180,2.2611096999999063,['n'],0.275739199999407,1.534,731.5774396000006,,,,,541,21,Woman,Right,
,,,,,,,,,,,,,,,,,541,21,Woman,Right,0,70,0.15,1,180,-,180,0.9086867000005441,['n'],0.307289899999887,1.6320000000000001,735.8443660000003,,,,,541,21,Woman,Right,
,,,,,,,,,,,,,,,,,541,21,Woman,Right,0,41,0.4,2,0,180,180,2.2453832999999577,['y'],0.3638960999996925,1.204,741.3104578000002,,,,,541,21,Woman,Right,
,,,,,,,,,,,,,,,,,541,21,Woman,Right,0,3,1,2,180,0,0,1.4011348000003636,['y'],0.3320905999999013,2.0,745.7944161000005,,,,,541,21,Woman,Right,
,,,,,,,,,,,,,,,,,541,21,Woman,Right,0,15,0.4,2,180,0,0,0.8234043999991627,['y'],0.44357159999981377,2.0,749.6930460000003,,,,,541,21,Woman,Right,
,,,,,,,,,,,,,,,,,541,21,Woman,Right,1,63,0.15,2,180,0,0,1.1158876999998029,['n'],0.7529936000000816,1.292,780.6270074000004,85.0,92.5,72.5,,541,21,Woman,Right,
,,,,,,,,,,,,,,,,,541,21,Woman,Right,1,34,0.4,1,180,-,180,0.835796900000787,['n'],0.5239467999999761,1.3,785.6606884000003,,,,,541,21,Woman,Right,
,,,,,,,,,,,,,,,,,541,21,Woman,Right,1,40,0.4,1,0,-,0,0.45254099999965547,['n'],0.9080243000007613,1.6099999999999999,789.9773407000002,,,,,541,21,Woman,Right,
,,,,,,,,,,,,,,,,,541,21,Woman,Right,1,75,0.15,2,180,0,180,1.7323658999994223,['n'],0.33203729999968346,1.0,794.9431507999998,,,,,541,21,Woman,Right,
,,,,,,,,,,,,,,,,,541,21,Woman,Right,1,48,0.15,1,0,-,0,0.49797450000005483,['n'],0.7721655999994255,1.3319999999999999,799.4102609000001,,,,,541,21,Woman,Right,
,,,,,,,,,,,,,,,,,541,21,Woman,Right,1,64,0.15,1,0,-,0,0.7269384000001082,['n'],0.42799599999943894,1.286,803.4772920000005,,,,,541,21,Woman,Right,
,,,,,,,,,,,,,,,,,541,21,Woman,Right,1,37,0.4,2,0,180,180,2.0339675000004718,['y'],0.47529190000022936,1.18,808.7271534000001,,,,,541,21,Woman,Right,
,,,,,,,,,,,,,,,,,541,21,Woman,Right,1,18,0.4,1,180,-,180,0.6500226999996812,['n'],0.3705987000003006,1.694,812.6427863999997,,,,,541,21,Woman,Right,
,,,,,,,,,,,,,,,,,541,21,Woman,Right,1,19,0.4,2,180,0,0,1.7405235999995057,['y'],0.307843600000524,1.346,817.9771873999998,,,,,541,21,Woman,Right,
,,,,,,,,,,,,,,,,,541,21,Woman,Right,1,79,0.15,2,180,0,180,1.411012199999277,['n'],0.2437835000000632,1.0,822.5930693,,,,,541,21,Woman,Right,
,,,,,,,,,,,,,,,,,541,21,Woman,Right,1,2,1,1,180,-,180,1.4152533999995285,['n'],0.2758432000000539,2.0,827.4424571,,,,,541,21,Woman,Right,
,,,,,,,,,,,,,,,,,541,21,Woman,Right,1,39,0.4,2,180,0,0,0.9969500999995944,['y'],0.26736560000063037,2.0,831.2602201999998,,,,,541,21,Woman,Right,
,,,,,,,,,,,,,,,,,541,21,Woman,Right,1,49,0.15,2,0,180,180,0.9086735999999291,['n'],0.24363149999953748,1.71,835.0925642000002,,,,,541,21,Woman,Right,
,,,,,,,,,,,,,,,,,541,21,Woman,Right,1,15,0.4,2,180,0,0,1.119289199999912,['y'],0.26763089999985823,1.68,839.5930771000003,,,,,541,21,Woman,Right,
,,,,,,,,,,,,,,,,,541,21,Woman,Right,1,41,0.4,2,0,180,180,1.4395269999995435,['y'],0.28399760000047536,1.68,839.5930771000003,,,,,541,21,Woman,Right,
,,,,,,,,,,,,,,,,,541,21,Woman,Right,1,54,0.15,1,180,-,180,0.9485072999996191,['n'],0.2840470000001005,1.714,848.5594863000006,,,,,541,21,Woman,Right,
,,,,,,,,,,,,,,,,,541,21,Woman,Right,1,26,0.4,1,180,-,180,1.1093370999997205,['n'],0.29158259999985603,1.6400000000000001,853.1096468000005,,,,,541,21,Woman,Right,
,,,,,,,,,,,,,,,,,541,21,Woman,Right,1,76,0.15,1,0,-,180,1.407557500000621,['n'],0.23557100000016362,1.0,857.4597843000001,,,,,541,21,Woman,Right,
,,,,,,,,,,,,,,,,,541,21,Woman,Right,1,12,0.4,1,0,-,0,1.5796307999999044,['n'],0.25218800000038755,1.3439999999999999,862.3760247,,,,,541,21,Woman,Right,
,,,,,,,,,,,,,,,,,541,21,Woman,Right,1,55,0.15,2,180,0,180,1.8392228000002433,['n'],0.22743110000010347,1.0,867.3260962000004,,,,,541,21,Woman,Right,
,,,,,,,,,,,,,,,,,541,21,Woman,Right,1,66,0.15,1,180,-,180,0.7946663000002445,['n'],0.9802159999999276,1.22,872.0265604000006,,,,,541,21,Woman,Right,
,,,,,,,,,,,,,,,,,541,21,Woman,Right,1,11,0.4,2,180,0,0,0.8063926999993782,['y'],0.19572629999947821,1.73,875.9922467000006,,,,,541,21,Woman,Right,
,,,,,,,,,,,,,,,,,541,21,Woman,Right,1,56,0.15,1,0,-,180,0.638907499999732,['n'],0.37967529999968974,1.1,879.8430967000004,,,,,541,21,Woman,Right,
,,,,,,,,,,,,,,,,,541,21,Woman,Right,1,51,0.15,2,180,0,180,0.9571904000003997,['n'],0.21991299999990588,1.096,884.5427275000002,,,,,541,21,Woman,Right,
,,,,,,,,,,,,,,,,,541,21,Woman,Right,1,67,0.15,2,180,0,0,1.8152878000000783,['y'],0.2675257999999303,1.0,889.4925907000006,,,,,541,21,Woman,Right,
,,,,,,,,,,,,,,,,,541,21,Woman,Right,1,13,0.4,2,0,180,180,1.1959139999999024,['y'],0.22760459999972227,1.764,894.7260691000001,,,,,541,21,Woman,Right,
,,,,,,,,,,,,,,,,,541,21,Woman,Right,1,53,0.15,2,0,180,180,2.4490507000000434,['y'],0.3875763000005463,1.226,900.4083015000006,,,,,541,21,Woman,Right,
,,,,,,,,,,,,,,,,,541,21,Woman,Right,1,21,0.4,2,0,180,180,1.333645799999431,['y'],0.2918749000000389,1.158,904.7918426000006,,,,,541,21,Woman,Right,
,,,,,,,,,,,,,,,,,541,21,Woman,Right,1,35,0.4,2,180,0,0,0.4139223000001948,['y'],0.291698400000314,2.0,908.4095246000006,,,,,541,21,Woman,Right,
,,,,,,,,,,,,,,,,,541,21,Woman,Right,1,44,0.15,1,0,-,180,0.5661053000003449,['y'],0.2517587000002095,1.0,912.5091905999998,,,,,541,21,Woman,Right,
,,,,,,,,,,,,,,,,,541,21,Woman,Right,1,58,0.15,1,180,-,180,1.0032965000000331,['n'],0.2754193999999188,1.286,918.3586396000001,,,,,541,21,Woman,Right,
,,,,,,,,,,,,,,,,,541,21,Woman,Right,1,0,1,1,0,-,0,1.0244112000000314,['n'],0.2833504999998695,2.0,922.4425606000004,,,,,541,21,Woman,Right,
,,,,,,,,,,,,,,,,,541,21,Woman,Right,1,72,0.15,1,0,-,0,2.79170189999968,['y'],0.8353975999998511,1.0,928.6925089000006,,,,,541,21,Woman,Right,
,,,,,,,,,,,,,,,,,541,21,Woman,Right,1,32,0.4,1,0,-,0,1.6503591000000597,['n'],0.2379067000001669,1.714,933.4755510000005,,,,,541,21,Woman,Right,
,,,,,,,,,,,,,,,,,541,21,Woman,Right,1,25,0.4,2,0,180,180,2.2102923000002193,['y'],0.4115172000001621,1.77,938.8592192000006,,,,,541,21,Woman,Right,
,,,,,,,,,,,,,,,,,541,21,Woman,Right,1,29,0.4,2,0,180,180,1.118652199999815,['y'],0.3151440999999977,1.754,943.1092097000001,,,,,541,21,Woman,Right,
,,,,,,,,,,,,,,,,,541,21,Woman,Right,1,47,0.15,2,180,0,180,1.2912857999999687,['n'],0.23530579999987822,1.246,947.5086298000006,,,,,541,21,Woman,Right,
,,,,,,,,,,,,,,,,,541,21,Woman,Right,1,65,0.15,2,0,180,180,1.9161589000004824,['y'],0.33116749999953754,1.742,952.5253346999998,,,,,541,21,Woman,Right,
,,,,,,,,,,,,,,,,,541,21,Woman,Right,1,68,0.15,1,0,-,180,1.7057754000006753,['n'],0.8116273000005094,1.146,958.1922885000004,,,,,541,21,Woman,Right,
,,,,,,,,,,,,,,,,,541,21,Woman,Right,1,28,0.4,1,0,-,0,1.0499564000001556,['n'],0.4436780000005456,1.688,962.8757722,,,,,541,21,Woman,Right,
,,,,,,,,,,,,,,,,,541,21,Woman,Right,1,4,1,1,0,-,0,1.6383734000000914,['n'],0.8675938999995196,1.696,968.5089490999999,,,,,541,21,Woman,Right,
,,,,,,,,,,,,,,,,,541,21,Woman,Right,1,71,0.15,2,180,0,180,0.7564703000007285,['n'],0.355782900000122,1.226,972.3416355999998,,,,,541,21,Woman,Right,
,,,,,,,,,,,,,,,,,541,21,Woman,Right,1,30,0.4,1,180,-,180,0.4830642999995689,['n'],0.587566500000321,2.0,976.3419799000003,,,,,541,21,Woman,Right,
,,,,,,,,,,,,,,,,,541,21,Woman,Right,1,45,0.15,2,0,180,180,0.651648699999896,['n'],0.5954468999998426,1.312,980.2917176999999,,,,,541,21,Woman,Right,
,,,,,,,,,,,,,,,,,541,21,Woman,Right,1,57,0.15,2,0,180,180,1.0529786000006425,['n'],0.32347370000024966,1.24,984.4421748000004,,,,,541,21,Woman,Right,
,,,,,,,,,,,,,,,,,541,21,Woman,Right,1,20,0.4,1,0,-,180,0.6021148999998331,['n'],0.2595976000002338,1.24,988.3088468000005,,,,,541,21,Woman,Right,
,,,,,,,,,,,,,,,,,541,21,Woman,Right,1,60,0.15,1,0,-,180,2.0828585999997813,['n'],0.26117249999970227,1.0,993.5747222999998,,,,,541,21,Woman,Right,
,,,,,,,,,,,,,,,,,541,21,Woman,Right,1,3,1,2,180,0,0,1.1285988999998153,['y'],0.23553850000007515,2.0,998.2086274000003,,,,,541,21,Woman,Right,
,,,,,,,,,,,,,,,,,541,21,Woman,Right,1,10,0.4,1,180,-,180,0.7395696000003227,['n'],0.24303409999993164,2.0,1003.0584330000002,,,,,541,21,Woman,Right,
,,,,,,,,,,,,,,,,,541,21,Woman,Right,1,24,0.4,1,0,-,0,1.747907099999793,['n'],0.6032446999997774,1.292,1008.3575645000001,,,,,541,21,Woman,Right,
,,,,,,,,,,,,,,,,,541,21,Woman,Right,1,22,0.4,1,180,-,180,0.8904182000005676,['n'],0.2597795000001497,1.768,1012.1904377000001,,,,,541,21,Woman,Right,
,,,,,,,,,,,,,,,,,541,21,Woman,Right,1,52,0.15,1,0,-,180,1.0234835999999632,['n'],0.21980900000016845,1.0,1016.1081224,,,,,541,21,Woman,Right,
,,,,,,,,,,,,,,,,,541,21,Woman,Right,1,50,0.15,1,180,-,0,1.3753053000000364,['n'],1.195690000000468,1.0,1022.0746118000006,,,,,541,21,Woman,Right,
,,,,,,,,,,,,,,,,,541,21,Woman,Right,1,42,0.4,1,180,-,180,0.6404034000006504,['n'],0.22770929999933287,1.206,1026.1083454,,,,,541,21,Woman,Right,
,,,,,,,,,,,,,,,,,541,21,Woman,Right,1,36,0.4,1,0,-,0,0.9105967000004966,['n'],0.2516270000005534,1.15,1031.2073795000006,,,,,541,21,Woman,Right,
,,,,,,,,,,,,,,,,,541,21,Woman,Right,1,69,0.15,2,0,180,0,0.7467579000003752,['n'],0.5715169999994032,1.678,1036.7582243000006,,,,,541,21,Woman,Right,
,,,,,,,,,,,,,,,,,541,21,Woman,Right,1,33,0.4,2,0,180,180,1.0613782999998875,['y'],1.523545699999886,1.748,1043.2416684,,,,,541,21,Woman,Right,
,,,,,,,,,,,,,,,,,541,21,Woman,Right,1,43,0.4,2,180,0,0,1.7131796000003305,['y'],0.3951139000000694,1.724,1048.4745879000002,,,,,541,21,Woman,Right,
,,,,,,,,,,,,,,,,,541,21,Woman,Right,1,16,0.4,1,0,-,0,1.0797216000000844,['n'],0.23558610000054614,1.67,1052.8238612000005,,,,,541,21,Woman,Right,
,,,,,,,,,,,,,,,,,541,21,Woman,Right,1,5,1,2,0,180,180,0.8822567000006529,['y'],0.2678124000003663,2.0,1056.5409883000002,,,,,541,21,Woman,Right,
,,,,,,,,,,,,,,,,,541,21,Woman,Right,1,9,0.4,2,0,180,180,1.0439408000002004,['y'],0.22724469999957364,2.0,1061.0077167999998,,,,,541,21,Woman,Right,
,,,,,,,,,,,,,,,,,541,21,Woman,Right,1,6,1,1,180,-,180,0.5366722999997364,['n'],0.29927279999992606,2.0,1064.7409632,,,,,541,21,Woman,Right,
,,,,,,,,,,,,,,,,,541,21,Woman,Right,1,78,0.15,1,180,-,180,1.1234572000003027,['n'],0.24381149999953777,1.0,1068.8740535000006,,,,,541,21,Woman,Right,
,,,,,,,,,,,,,,,,,541,21,Woman,Right,1,74,0.15,1,180,-,0,1.255770599999778,['n'],0.21152249999977357,1.0,1073.0739552000005,,,,,541,21,Woman,Right,
,,,,,,,,,,,,,,,,,541,21,Woman,Right,1,70,0.15,1,180,-,180,0.6635457000002134,['n'],0.31576790000053734,1.584,1077.4583878000003,,,,,541,21,Woman,Right,
,,,,,,,,,,,,,,,,,541,21,Woman,Right,1,1,1,2,0,180,180,0.7818462000004729,['y'],0.13970470000003843,2.0,1080.9573365000006,,,,,541,21,Woman,Right,
,,,,,,,,,,,,,,,,,541,21,Woman,Right,1,31,0.4,2,180,0,0,0.9008365999998205,['y'],0.13923370000065916,2.0,1084.5401579,,,,,541,21,Woman,Right,
,,,,,,,,,,,,,,,,,541,21,Woman,Right,1,46,0.15,1,180,-,180,0.6775848999996015,['n'],0.18756050000047253,1.17,1088.2078305000005,,,,,541,21,Woman,Right,
,,,,,,,,,,,,,,,,,541,21,Woman,Right,1,17,0.4,2,0,180,180,0.8472289999999703,['y'],0.13951600000018516,1.718,1092.3409831999998,,,,,541,21,Woman,Right,
,,,,,,,,,,,,,,,,,541,21,Woman,Right,1,7,1,2,180,0,0,0.5988624999999956,['y'],0.0673636000001352,2.0,1096.8910577000006,,,,,541,21,Woman,Right,
,,,,,,,,,,,,,,,,,541,21,Woman,Right,1,38,0.4,1,180,-,180,1.0313790000000154,['n'],0.6918203999994148,1.714,1101.3731124000005,,,,,541,21,Woman,Right,
,,,,,,,,,,,,,,,,,541,21,Woman,Right,1,73,0.15,2,0,180,180,1.4521498999993128,['n'],0.17938359999971,1.0,1105.6906968000003,,,,,541,21,Woman,Right,
,,,,,,,,,,,,,,,,,541,21,Woman,Right,1,77,0.15,2,0,180,180,1.03113089999988,['y'],0.1718713000000207,1.544,1110.2399176999998,,,,,541,21,Woman,Right,
,,,,,,,,,,,,,,,,,541,21,Woman,Right,1,14,0.4,1,180,-,0,0.9502454999992551,['y'],0.32025829999929556,1.052,1114.1905334000003,,,,,541,21,Woman,Right,
,,,,,,,,,,,,,,,,,541,21,Woman,Right,1,59,0.15,2,180,0,180,0.7480305999997654,['n'],0.15554420000080427,1.176,1117.8072794,,,,,541,21,Woman,Right,
,,,,,,,,,,,,,,,,,541,21,Woman,Right,1,23,0.4,2,180,0,0,0.9079486999999062,['y'],0.13918090000061056,1.6640000000000001,1121.6409825,,,,,541,21,Woman,Right,
,,,,,,,,,,,,,,,,,541,21,Woman,Right,1,8,0.4,1,0,-,180,0.4902056000000812,['n'],0.4116550000007919,1.6099999999999999,1125.8570500000005,,,,,541,21,Woman,Right,
,,,,,,,,,,,,,,,,,541,21,Woman,Right,1,61,0.15,2,0,180,180,0.7693859000000884,['n'],0.14775209999970684,1.5819999999999999,1129.4573691000005,,,,,541,21,Woman,Right,
,,,,,,,,,,,,,,,,,541,21,Woman,Right,1,62,0.15,1,180,-,180,0.4871800999999323,['n'],0.17928250000022672,1.282,1132.9408165000004,,,,,541,21,Woman,Right,
,,,,,,,,,,,,,,,,,541,21,Woman,Right,1,27,0.4,2,180,0,0,2.773872200000369,['y'],0.23546080000051006,1.25,1138.8728069,,,,,541,21,Woman,Right,
,,,,,,,,,,,,,,,,,541,21,Woman,Right,2,25,0.4,2,0,180,180,1.9905727000004845,['n'],2.107647900000302,1.0,1165.7734209,76.25,92.5,65.0,,541,21,Woman,Right,
,,,,,,,,,,,,,,,,,541,21,Woman,Right,2,30,0.4,1,180,-,180,1.231129000000692,['n'],0.1390809000004083,1.552,1170.3070758000003,,,,,541,21,Woman,Right,
,,,,,,,,,,,,,,,,,541,21,Woman,Right,2,77,0.15,2,0,180,180,2.649026000000049,['y'],0.1954359999999724,1.1219999999999999,1175.7723520999998,,,,,541,21,Woman,Right,
,,,,,,,,,,,,,,,,,541,21,Woman,Right,2,49,0.15,2,0,180,180,0.7720560999996451,['n'],0.14788790000056906,1.0,1179.4393101000005,,,,,541,21,Woman,Right,
,,,,,,,,,,,,,,,,,541,21,Woman,Right,2,46,0.15,1,180,-,180,2.0430139000000054,['y'],0.4195822000001499,1.0,1184.5409952999998,,,,,541,21,Woman,Right,
,,,,,,,,,,,,,,,,,541,21,Woman,Right,2,75,0.15,2,180,0,180,0.8703823000005286,['n'],0.19541320000007545,1.1139999999999999,1188.3400295000001,,,,,541,21,Woman,Right,
,,,,,,,,,,,,,,,,,541,21,Woman,Right,2,37,0.4,2,0,180,0,1.452841599999374,['n'],0.17199040000014065,1.272,1192.7554830999998,,,,,541,21,Woman,Right,
,,,,,,,,,,,,,,,,,541,21,Woman,Right,2,32,0.4,1,0,-,0,0.9411704000003738,['n'],0.16316919999917445,1.126,1196.5725618000006,,,,,541,21,Woman,Right,
,,,,,,,,,,,,,,,,,541,21,Woman,Right,2,11,0.4,2,180,0,180,1.333045299999867,['n'],0.15607019999970362,1.146,1200.78874,,,,,541,21,Woman,Right,
,,,,,,,,,,,,,,,,,541,21,Woman,Right,2,53,0.15,2,0,180,180,1.755547800000386,['y'],0.45184340000014345,1.0,1205.4723932000006,,,,,541,21,Woman,Right,
,,,,,,,,,,,,,,,,,541,21,Woman,Right,2,34,0.4,1,180,-,180,0.5446162000007462,['n'],0.18751290000000154,2.0,1208.823254,,,,,541,21,Woman,Right,
,,,,,,,,,,,,,,,,,541,21,Woman,Right,2,42,0.4,1,180,-,180,0.5786508000001049,['n'],0.16360970000005182,2.0,1212.3222061000006,,,,,541,21,Woman,Right,
,,,,,,,,,,,,,,,,,541,21,Woman,Right,2,29,0.4,2,0,180,180,0.7997012999994695,['y'],0.18765059999986988,2.0,1215.7893142000003,,,,,541,21,Woman,Right,
,,,,,,,,,,,,,,,,,541,21,Woman,Right,2,74,0.15,1,180,-,180,0.508908099999644,['n'],0.15497790000063105,1.0,1219.0891351999999,,,,,541,21,Woman,Right,
,,,,,,,,,,,,,,,,,541,21,Woman,Right,2,27,0.4,2,180,0,0,1.3039375000007567,['y'],0.41196320000017295,2.0,1223.3727453000001,,,,,541,21,Woman,Right,
,,,,,,,,,,,,,,,,,541,21,Woman,Right,2,66,0.15,1,180,-,180,0.6138554999997723,['n'],0.17190740000023652,1.756,1226.7232277000003,,,,,541,21,Woman,Right,
,,,,,,,,,,,,,,,,,541,21,Woman,Right,2,13,0.4,2,0,180,180,2.767235399999663,['y'],0.21960070000022824,1.3940000000000001,1232.605278,,,,,541,21,Woman,Right,
,,,,,,,,,,,,,,,,,541,21,Woman,Right,2,72,0.15,1,0,-,180,0.573301000000356,['n'],1.0196869000001243,1.18,1237.2898265000003,,,,,541,21,Woman,Right,
,,,,,,,,,,,,,,,,,541,21,Woman,Right,2,48,0.15,1,0,-,180,2.83486559999983,['y'],0.17939559999922494,1.0,1242.6559451000003,,,,,541,21,Woman,Right,
,,,,,,,,,,,,,,,,,541,21,Woman,Right,2,38,0.4,1,180,-,180,0.6437095000001136,['n'],0.1794782999995732,1.73,1246.2554559,,,,,541,21,Woman,Right,
,,,,,,,,,,,,,,,,,541,21,Woman,Right,2,44,0.15,1,0,-,0,1.0415508999994927,['n'],1.1075415000004796,1.55,1251.3226911000002,,,,,541,21,Woman,Right,
,,,,,,,,,,,,,,,,,541,21,Woman,Right,2,52,0.15,1,0,-,0,1.1123023000000103,['n'],0.17142779999994673,1.6059999999999999,1255.2555805000002,,,,,541,21,Woman,Right,
,,,,,,,,,,,,,,,,,541,21,Woman,Right,2,3,1,2,180,0,0,1.0243755999999848,['y'],0.21124869999948714,2.0,1262.7384374000003,,,,,541,21,Woman,Right,
,,,,,,,,,,,,,,,,,541,21,Woman,Right,2,7,1,2,180,0,0,0.5678109999998924,['y'],0.1794143000006443,2.0,1265.8721928000004,,,,,541,21,Woman,Right,
,,,,,,,,,,,,,,,,,541,21,Woman,Right,2,40,0.4,1,0,-,180,0.5616853000001356,['n'],0.14753079999991314,1.462,1269.0720360000005,,,,,541,21,Woman,Right,
,,,,,,,,,,,,,,,,,541,21,Woman,Right,2,64,0.15,1,0,-,0,0.8999713000002885,['n'],0.14713440000014089,1.0,1272.6383228000004,,,,,541,21,Woman,Right,
,,,,,,,,,,,,,,,,,541,21,Woman,Right,2,4,1,1,0,-,0,1.5615944000001036,['n'],0.20366769999964163,2.0,1277.6388470000002,,,,,541,21,Woman,Right,
,,,,,,,,,,,,,,,,,541,21,Woman,Right,2,28,0.4,1,0,-,0,0.8743957999995473,['n'],0.1314620000002833,1.216,1281.3720137,,,,,541,21,Woman,Right,
,,,,,,,,,,,,,,,,,541,21,Woman,Right,2,41,0.4,2,0,180,180,2.6687848999999915,['y'],0.29922850000002654,1.216,1281.3720137,,,,,541,21,Woman,Right,
,,,,,,,,,,,,,,,,,541,21,Woman,Right,2,76,0.15,1,0,-,180,0.4203723999999056,['n'],2.9798029000003226,1.5,1291.8886807,,,,,541,21,Woman,Right,
,,,,,,,,,,,,,,,,,541,21,Woman,Right,2,68,0.15,1,0,-,180,1.7839625999995405,['y'],0.3398661000001084,1.17,1297.8890437,,,,,541,21,Woman,Right,
,,,,,,,,,,,,,,,,,541,21,Woman,Right,2,23,0.4,2,180,0,0,0.887348899999779,['y'],0.14765500000066822,1.208,1301.5727133,,,,,541,21,Woman,Right,
,,,,,,,,,,,,,,,,,541,21,Woman,Right,2,67,0.15,2,180,0,180,1.0781234999994922,['n'],0.235949800000526,1.254,1307.2223744000003,,,,,541,21,Woman,Right,
,,,,,,,,,,,,,,,,,541,21,Woman,Right,2,21,0.4,2,0,180,180,0.7246001000003162,['y'],0.1955336000000898,2.0,1310.5726683000003,,,,,541,21,Woman,Right,
,,,,,,,,,,,,,,,,,541,21,Woman,Right,2,54,0.15,1,180,-,180,0.6867426000007981,['n'],0.1878884999996444,1.222,1314.0881473999998,,,,,541,21,Woman,Right,
,,,,,,,,,,,,,,,,,541,21,Woman,Right,2,18,0.4,1,180,-,180,0.44932779999999184,['n'],0.6195765000002211,1.716,1318.3715427000006,,,,,541,21,Woman,Right,
,,,,,,,,,,,,,,,,,541,21,Woman,Right,2,8,0.4,1,0,-,180,0.921044400000028,['y'],0.17145939999954862,1.6179999999999999,1325.8215523999997,,,,,541,21,Woman,Right,
,,,,,,,,,,,,,,,,,541,21,Woman,Right,2,35,0.4,2,180,0,0,1.0756648999995377,['y'],0.13949999999931606,1.714,1329.8045706000003,,,,,541,21,Woman,Right,
,,,,,,,,,,,,,,,,,541,21,Woman,Right,2,15,0.4,2,180,0,0,0.7007480000002033,['y'],0.19530130000021018,1.738,1333.4056649000004,,,,,541,21,Woman,Right,
,,,,,,,,,,,,,,,,,541,21,Woman,Right,2,17,0.4,2,0,180,180,0.5887483999995311,['y'],0.16379870000037045,1.804,1336.7878120000005,,,,,541,21,Woman,Right,
,,,,,,,,,,,,,,,,,541,21,Woman,Right,2,36,0.4,1,0,-,0,0.8690223999992668,['n'],0.20359589999952732,1.736,1340.5223348999998,,,,,541,21,Woman,Right,
,,,,,,,,,,,,,,,,,541,21,Woman,Right,2,61,0.15,2,0,180,0,1.3108566000000792,['n'],0.21986960000049294,1.218,1344.7720476000004,,,,,541,21,Woman,Right,
,,,,,,,,,,,,,,,,,541,21,Woman,Right,2,59,0.15,2,180,0,0,0.6924976000000242,['n'],0.17152030000033847,1.274,1348.7711316000004,,,,,541,21,Woman,Right,
,,,,,,,,,,,,,,,,,541,21,Woman,Right,2,70,0.15,1,180,-,180,1.8857146000000284,['y'],0.1956890999999814,1.274,1348.7711316000004,,,,,541,21,Woman,Right,
,,,,,,,,,,,,,,,,,541,21,Woman,Right,2,79,0.15,2,180,0,0,0.6154458999999406,['n'],0.1558765999998286,1.6680000000000001,1357.1886295000004,,,,,541,21,Woman,Right,
,,,,,,,,,,,,,,,,,541,21,Woman,Right,2,73,0.15,2,0,180,180,0.6208201999997982,['n'],0.17988249999962136,1.712,1360.8046085000005,,,,,541,21,Woman,Right,
,,,,,,,,,,,,,,,,,541,21,Woman,Right,2,60,0.15,1,0,-,0,0.5633914000000004,['n'],0.1720906999998988,1.5859999999999999,1364.5041413,,,,,541,21,Woman,Right,
,,,,,,,,,,,,,,,,,541,21,Woman,Right,2,0,1,1,0,-,0,0.7921215000005759,['n'],0.17107450000003155,2.0,1368.1724426,,,,,541,21,Woman,Right,
,,,,,,,,,,,,,,,,,541,21,Woman,Right,2,9,0.4,2,0,180,180,0.7981778000003033,['n'],0.18742459999975836,1.732,1372.6542882000003,,,,,541,21,Woman,Right,
,,,,,,,,,,,,,,,,,541,21,Woman,Right,2,20,0.4,1,0,-,0,1.5827926000001753,['n'],0.6993971000001693,1.838,1377.9883209999998,,,,,541,21,Woman,Right,
,,,,,,,,,,,,,,,,,541,21,Woman,Right,2,22,0.4,1,180,-,180,0.48703130000012607,['n'],0.23516259999996691,1.812,1381.5045206000004,,,,,541,21,Woman,Right,
,,,,,,,,,,,,,,,,,541,21,Woman,Right,2,78,0.15,1,180,-,0,0.9631060000001526,['n'],0.22718650000024354,1.766,1385.5716039,,,,,541,21,Woman,Right,
,,,,,,,,,,,,,,,,,541,21,Woman,Right,2,55,0.15,2,180,0,0,0.727191999999377,['n'],0.21934290000081091,1.804,1389.2885704,,,,,541,21,Woman,Right,
,,,,,,,,,,,,,,,,,541,21,Woman,Right,2,50,0.15,1,180,-,0,0.5037020999998276,['n'],0.21940030000041588,1.764,1392.9708926000003,,,,,541,21,Woman,Right,
,,,,,,,,,,,,,,,,,541,21,Woman,Right,2,56,0.15,1,0,-,0,0.7011664999999994,['n'],0.1795851999995648,1.798,1396.937113,,,,,541,21,Woman,Right,
,,,,,,,,,,,,,,,,,541,21,Woman,Right,2,5,1,2,0,180,180,0.9667302999996537,['y'],0.20378659999914817,2.0,1400.7375743000002,,,,,541,21,Woman,Right,
,,,,,,,,,,,,,,,,,541,21,Woman,Right,2,33,0.4,2,0,180,180,1.6961910999998508,['y'],0.3716679999997723,1.76,1405.5709715000003,,,,,541,21,Woman,Right,
,,,,,,,,,,,,,,,,,541,21,Woman,Right,2,43,0.4,2,180,0,0,0.759558100000504,['y'],0.13162340000053518,1.772,1409.2213404000004,,,,,541,21,Woman,Right,
,,,,,,,,,,,,,,,,,541,21,Woman,Right,2,10,0.4,1,180,-,180,0.5498360000001412,['n'],0.17956890000004933,1.768,1412.6553570000005,,,,,541,21,Woman,Right,
,,,,,,,,,,,,,,,,,541,21,Woman,Right,2,2,1,1,180,-,180,0.6668453000002046,['n'],0.1880323999994289,2.0,1416.1207197000003,,,,,541,21,Woman,Right,
,,,,,,,,,,,,,,,,,541,21,Woman,Right,2,45,0.15,2,0,180,180,1.0323401000005106,['y'],0.17188609999993787,2.0,1416.1207197000003,,,,,541,21,Woman,Right,
,,,,,,,,,,,,,,,,,541,21,Woman,Right,2,26,0.4,1,180,-,0,0.9898565000003146,['y'],0.21953880000000936,1.214,1424.9713375000001,,,,,541,21,Woman,Right,
,,,,,,,,,,,,,,,,,541,21,Woman,Right,2,63,0.15,2,180,0,0,0.710106900000028,['y'],0.20405940000000555,1.178,1428.8548354000004,,,,,541,21,Woman,Right,
,,,,,,,,,,,,,,,,,541,21,Woman,Right,2,51,0.15,2,180,0,180,0.6838422999999239,['n'],0.21944270000039978,1.0,1432.8038793000005,,,,,541,21,Woman,Right,
,,,,,,,,,,,,,,,,,541,21,Woman,Right,2,39,0.4,2,180,0,0,0.6252614000004542,['y'],0.1715833999996903,2.0,1436.4378000000006,,,,,541,21,Woman,Right,
,,,,,,,,,,,,,,,,,541,21,Woman,Right,2,12,0.4,1,0,-,180,0.7669143000002805,['n'],0.1937578000006397,1.296,1440.2211038000005,,,,,541,21,Woman,Right,
,,,,,,,,,,,,,,,,,541,21,Woman,Right,2,57,0.15,2,0,180,180,0.9880962000006548,['y'],0.25157020000006014,1.226,1444.2870069,,,,,541,21,Woman,Right,
,,,,,,,,,,,,,,,,,541,21,Woman,Right,2,58,0.15,1,180,-,180,0.8091529000002993,['n'],0.20349699999951554,1.694,1448.2543876999998,,,,,541,21,Woman,Right,
,,,,,,,,,,,,,,,,,541,21,Woman,Right,2,62,0.15,1,180,-,180,0.7477374999998574,['n'],0.20356509999965056,1.142,1452.0542272000002,,,,,541,21,Woman,Right,
,,,,,,,,,,,,,,,,,541,21,Woman,Right,2,16,0.4,1,0,-,0,1.043690499999684,['n'],0.21938980000049924,1.676,1456.2380441000005,,,,,541,21,Woman,Right,
,,,,,,,,,,,,,,,,,541,21,Woman,Right,2,1,1,2,0,180,180,0.7880768000004537,['y'],0.17156580000028043,2.0,1460.0872467,,,,,541,21,Woman,Right,
,,,,,,,,,,,,,,,,,541,21,Woman,Right,2,24,0.4,1,0,-,0,0.7081422999999631,['n'],0.21923229999993055,1.778,1463.9535935000004,,,,,541,21,Woman,Right,
,,,,,,,,,,,,,,,,,541,21,Woman,Right,2,47,0.15,2,180,0,180,0.576581599999372,['n'],0.1791715999997905,1.788,1467.6702421999998,,,,,541,21,Woman,Right,
,,,,,,,,,,,,,,,,,541,21,Woman,Right,2,65,0.15,2,0,180,180,0.5766371999998228,['n'],0.17990019999979268,1.808,1471.3375256999998,,,,,541,21,Woman,Right,
,,,,,,,,,,,,,,,,,541,21,Woman,Right,2,6,1,1,180,-,180,0.5997810999997455,['n'],0.1789574000003995,2.0,1474.8868843999999,,,,,541,21,Woman,Right,
,,,,,,,,,,,,,,,,,541,21,Woman,Right,2,69,0.15,2,0,180,0,0.8030796000002738,['n'],0.17172990000017307,1.78,1478.8207966999998,,,,,541,21,Woman,Right,
,,,,,,,,,,,,,,,,,541,21,Woman,Right,2,19,0.4,2,180,0,0,1.7493214000005537,['y'],1.7793493999997736,1.6320000000000001,1485.8863281000004,,,,,541,21,Woman,Right,
,,,,,,,,,,,,,,,,,541,21,Woman,Right,2,14,0.4,1,180,-,180,0.6921860000002198,['n'],0.1954569999998057,1.756,1489.6533165,,,,,541,21,Woman,Right,
,,,,,,,,,,,,,,,,,541,21,Woman,Right,2,31,0.4,2,180,0,0,0.6695272999995723,['y'],0.20316099999945436,1.596,1493.2535402000003,,,,,541,21,Woman,Right,
,,,,,,,,,,,,,,,,,541,21,Woman,Right,2,71,0.15,2,180,0,180,0.45266669999909936,['n'],0.19543940000039584,1.678,1496.802487,,,,,541,21,Woman,Right,
,,,,,,,,,,,,,,,,,541,21,Woman,Right,3,74,0.15,1,180,-,180,1.5686223000002428,['n'],1.94790169999942,1.678,1496.802487,76.25,85.0,57.5,,541,21,Woman,Right,
,,,,,,,,,,,,,,,,,541,21,Woman,Right,3,75,0.15,2,180,0,180,0.6126754999995683,['n'],1.1157389999998486,1.262,1528.8198962000006,,,,,541,21,Woman,Right,
,,,,,,,,,,,,,,,,,541,21,Woman,Right,3,25,0.4,2,0,180,180,1.29118440000002,['y'],0.21934149999924557,2.0,1533.0030179000005,,,,,541,21,Woman,Right,
,,,,,,,,,,,,,,,,,541,21,Woman,Right,3,33,0.4,2,0,180,180,0.9109303999994154,['y'],0.17148809999980585,1.984,1536.8534670999998,,,,,541,21,Woman,Right,
,,,,,,,,,,,,,,,,,541,21,Woman,Right,3,9,0.4,2,0,180,180,3.0214012000005823,['y'],0.20388199999979406,1.756,1542.9191468,,,,,541,21,Woman,Right,
,,,,,,,,,,,,,,,,,541,21,Woman,Right,3,66,0.15,1,180,-,180,0.5804864000001544,['n'],0.1873924999999872,1.822,1546.5868214000002,,,,,541,21,Woman,Right,
,,,,,,,,,,,,,,,,,541,21,Woman,Right,3,31,0.4,2,180,0,0,1.0231056000002354,['y'],0.20356689999971422,1.824,1550.8033070000001,,,,,541,21,Woman,Right,
,,,,,,,,,,,,,,,,,541,21,Woman,Right,3,53,0.15,2,0,180,180,0.5675366000004942,['n'],0.17125180000039109,1.752,1554.4366163000004,,,,,541,21,Woman,Right,
,,,,,,,,,,,,,,,,,541,21,Woman,Right,3,19,0.4,2,180,0,0,0.5503748999999516,['y'],0.2036606000001484,1.698,1558.0862747,,,,,541,21,Woman,Right,
,,,,,,,,,,,,,,,,,541,21,Woman,Right,3,0,1,1,0,-,0,0.7157783000002382,['y'],0.2116905000002589,1.0,1563.869910800001,,,,,541,21,Woman,Right,
,,,,,,,,,,,,,,,,,541,21,Woman,Right,3,42,0.4,1,180,-,180,0.6770797000008315,['n'],0.21172069999920495,2.0,1569.2360739000005,,,,,541,21,Woman,Right,
,,,,,,,,,,,,,,,,,541,21,Woman,Right,3,72,0.15,1,0,-,0,1.030623900000137,['n'],0.2035439999999653,1.6440000000000001,1573.5194745,,,,,541,21,Woman,Right,
,,,,,,,,,,,,,,,,,541,21,Woman,Right,3,27,0.4,2,180,0,0,0.7308367999994516,['y'],0.18750480000016978,2.0,1578.2692266999993,,,,,541,21,Woman,Right,
,,,,,,,,,,,,,,,,,541,21,Woman,Right,3,16,0.4,1,0,-,180,0.5982464000007894,['n'],0.19563659999948868,1.79,1582.469431800001,,,,,541,21,Woman,Right,
,,,,,,,,,,,,,,,,,541,21,Woman,Right,3,38,0.4,1,180,-,180,0.6284170999988419,['n'],0.18718469999839726,1.79,1582.469431800001,,,,,541,21,Woman,Right,
,,,,,,,,,,,,,,,,,541,21,Woman,Right,3,10,0.4,1,180,-,180,1.4455266000004485,['n'],0.4994599000001472,1.5,1591.6806614999996,,,,,541,21,Woman,Right,
,,,,,,,,,,,,,,,,,541,21,Woman,Right,3,2,1,1,180,-,180,0.6073357000004762,['n'],1.2437810000010359,1.82,1598.3351933000004,,,,,541,21,Woman,Right,
,,,,,,,,,,,,,,,,,541,21,Woman,Right,3,11,0.4,2,180,0,0,1.0499486000007892,['n'],0.21943540000029316,1.82,1598.3351933000004,,,,,541,21,Woman,Right,
,,,,,,,,,,,,,,,,,541,21,Woman,Right,3,15,0.4,2,180,0,0,2.9315556999990804,['y'],0.20365579999997863,1.0,1609.186201200001,,,,,541,21,Woman,Right,
,,,,,,,,,,,,,,,,,541,21,Woman,Right,3,41,0.4,2,0,180,180,1.7363679000009142,['y'],0.23550280000017665,1.318,1614.1191396999993,,,,,541,21,Woman,Right,
,,,,,,,,,,,,,,,,,541,21,Woman,Right,3,40,0.4,1,0,-,0,0.9780582000003051,['n'],0.2033811000001151,1.758,1618.7350128999997,,,,,541,21,Woman,Right,
,,,,,,,,,,,,,,,,,541,21,Woman,Right,3,51,0.15,2,180,0,180,1.9954987000000983,['n'],0.21110289999887755,1.25,1623.9857837999998,,,,,541,21,Woman,Right,
,,,,,,,,,,,,,,,,,541,21,Woman,Right,3,32,0.4,1,0,-,0,1.118606699999873,['n'],0.21951649999937217,1.702,1628.5192773999997,,,,,541,21,Woman,Right,
,,,,,,,,,,,,,,,,,541,21,Woman,Right,3,22,0.4,1,180,-,0,0.8513948999989225,['y'],0.18753730000025826,1.264,1632.6357044999995,,,,,541,21,Woman,Right,
,,,,,,,,,,,,,,,,,541,21,Woman,Right,3,3,1,2,180,0,0,0.8297239999992598,['y'],0.17188239999995858,2.0,1636.6025216999997,,,,,541,21,Woman,Right,
,,,,,,,,,,,,,,,,,541,21,Woman,Right,3,59,0.15,2,180,0,0,1.1851934999995137,['n'],0.19532559999970545,1.764,1640.7348066000004,,,,,541,21,Woman,Right,
,,,,,,,,,,,,,,,,,541,21,Woman,Right,3,65,0.15,2,0,180,0,2.6268036000001302,['n'],1.019537300000593,1.142,1647.719234700001,,,,,541,21,Woman,Right,
,,,,,,,,,,,,,,,,,541,21,Woman,Right,3,73,0.15,2,0,180,180,0.5975455999996484,['n'],0.1792199999999866,1.202,1651.3686647999994,,,,,541,21,Woman,Right,
,,,,,,,,,,,,,,,,,541,21,Woman,Right,3,23,0.4,2,180,0,0,0.6969938999991427,['y'],0.2192620000005263,1.88,1655.5186315,,,,,541,21,Woman,Right,
,,,,,,,,,,,,,,,,,541,21,Woman,Right,3,4,1,1,0,-,0,0.6557727999988856,['y'],0.20368349999989732,1.82,1659.3853153999999,,,,,541,21,Woman,Right,
,,,,,,,,,,,,,,,,,541,21,Woman,Right,3,8,0.4,1,0,-,180,0.7983070999998745,['n'],0.17951689999972587,1.774,1663.5186248,,,,,541,21,Woman,Right,
,,,,,,,,,,,,,,,,,541,21,Woman,Right,3,26,0.4,1,180,-,180,0.8500170999996044,['n'],2.51529440000013,2.0,1669.8357112000003,,,,,541,21,Woman,Right,
,,,,,,,,,,,,,,,,,541,21,Woman,Right,3,68,0.15,1,0,-,0,0.5203359000006458,['n'],0.17939389999992272,1.13,1673.2177196000002,,,,,541,21,Woman,Right,
,,,,,,,,,,,,,,,,,541,21,Woman,Right,3,50,0.15,1,180,-,180,8.99800839999989,['n'],0.3394386999989365,1.0,1685.4853950999996,,,,,541,21,Woman,Right,
,,,,,,,,,,,,,,,,,541,21,Woman,Right,3,29,0.4,2,0,180,180,0.9318368000003829,['n'],0.1955178000007436,1.0,1685.4853950999996,,,,,541,21,Woman,Right,
,,,,,,,,,,,,,,,,,541,21,Woman,Right,3,1,1,2,0,180,180,1.208227999999508,['y'],0.3478419000002759,1.5,1694.0407115999997,,,,,541,21,Woman,Right,
,,,,,,,,,,,,,,,,,541,21,Woman,Right,3,57,0.15,2,0,180,180,0.5845860999997967,['n'],0.17937139999958163,1.176,1698.5349130999994,,,,,541,21,Woman,Right,
,,,,,,,,,,,,,,,,,541,21,Woman,Right,3,64,0.15,1,0,-,0,0.5715390000004845,['n'],0.18737940000028175,1.236,1705.167577700001,,,,,541,21,Woman,Right,
,,,,,,,,,,,,,,,,,541,21,Woman,Right,3,69,0.15,2,0,180,0,1.3796189000004233,['n'],0.20318179999958375,1.208,1709.5350389000005,,,,,541,21,Woman,Right,
,,,,,,,,,,,,,,,,,541,21,Woman,Right,3,20,0.4,1,0,-,0,0.6429128999989189,['n'],0.20333249999930558,1.1360000000000001,1713.2031720999994,,,,,541,21,Woman,Right,
,,,,,,,,,,,,,,,,,541,21,Woman,Right,3,13,0.4,2,0,180,180,1.498134099998424,['y'],0.4115951000003406,1.724,1717.835038100001,,,,,541,21,Woman,Right,
,,,,,,,,,,,,,,,,,541,21,Woman,Right,3,54,0.15,1,180,-,0,0.7415033999986917,['n'],0.17949310000039986,1.724,1717.835038100001,,,,,541,21,Woman,Right,
,,,,,,,,,,,,,,,,,541,21,Woman,Right,3,44,0.15,1,0,-,0,0.6600186999985453,['n'],0.19529839999995602,1.5,1725.6569097000001,,,,,541,21,Woman,Right,
,,,,,,,,,,,,,,,,,541,21,Woman,Right,3,36,0.4,1,0,-,0,2.979734400001689,['n'],0.3953280999994604,1.044,1732.8676867000004,,,,,541,21,Woman,Right,
,,,,,,,,,,,,,,,,,541,21,Woman,Right,3,63,0.15,2,180,0,0,1.3015016000008472,['n'],0.28345810000064375,1.044,1732.8676867000004,,,,,541,21,Woman,Right,
,,,,,,,,,,,,,,,,,541,21,Woman,Right,3,34,0.4,1,180,-,180,0.5762789000000339,['n'],0.2117463000013231,1.728,1741.5341939,,,,,541,21,Woman,Right,
,,,,,,,,,,,,,,,,,541,21,Woman,Right,3,70,0.15,1,180,-,180,0.6205357999988337,['n'],0.2194474000007176,1.72,1745.2508960999994,,,,,541,21,Woman,Right,
,,,,,,,,,,,,,,,,,541,21,Woman,Right,3,28,0.4,1,0,-,0,0.5580083000004379,['n'],0.3160587000002124,1.6560000000000001,1749.7512173000005,,,,,541,21,Woman,Right,
,,,,,,,,,,,,,,,,,541,21,Woman,Right,3,17,0.4,2,0,180,180,1.231411599999774,['y'],0.24390800000037416,1.6560000000000001,1749.7512173000005,,,,,541,21,Woman,Right,
,,,,,,,,,,,,,,,,,541,21,Woman,Right,3,5,1,2,0,180,180,0.8923346999999922,['y'],0.21171739999954298,1.998,1757.5513440000004,,,,,541,21,Woman,Right,
,,,,,,,,,,,,,,,,,541,21,Woman,Right,3,79,0.15,2,180,0,180,2.8605687000017497,['n'],0.9316453999999794,1.248,1764.5015212999997,,,,,541,21,Woman,Right,
,,,,,,,,,,,,,,,,,541,21,Woman,Right,3,37,0.4,2,0,180,180,0.9265005000015663,['y'],0.20339529999910155,1.248,1764.5015212999997,,,,,541,21,Woman,Right,
,,,,,,,,,,,,,,,,,541,21,Woman,Right,3,71,0.15,2,180,0,180,1.8263291999992362,['n'],0.22780259999854024,1.528,1773.800997200001,,,,,541,21,Woman,Right,
,,,,,,,,,,,,,,,,,541,21,Woman,Right,3,52,0.15,1,0,-,0,0.9522596999995585,['n'],0.19542189999992843,1.528,1773.800997200001,,,,,541,21,Woman,Right,
,,,,,,,,,,,,,,,,,541,21,Woman,Right,3,49,0.15,2,0,180,180,0.586420999999973,['n'],0.17167220000010275,1.794,1781.5512050000007,,,,,541,21,Woman,Right,
,,,,,,,,,,,,,,,,,541,21,Woman,Right,3,35,0.4,2,180,0,0,1.1796973000000435,['y'],0.9313985999997385,1.662,1787.1843798,,,,,541,21,Woman,Right,
,,,,,,,,,,,,,,,,,541,21,Woman,Right,3,6,1,1,180,-,180,0.5212986999995337,['n'],0.17169510000167065,1.722,1791.0672416000007,,,,,541,21,Woman,Right,
,,,,,,,,,,,,,,,,,541,21,Woman,Right,3,48,0.15,1,0,-,0,0.8013135000001057,['n'],0.211467499999344,1.15,1794.7523606999994,,,,,541,21,Woman,Right,
,,,,,,,,,,,,,,,,,541,21,Woman,Right,3,56,0.15,1,0,-,180,0.9560901000004378,['n'],0.1957910000000993,1.08,1798.7165089,,,,,541,21,Woman,Right,
,,,,,,,,,,,,,,,,,541,21,Woman,Right,3,7,1,2,180,0,0,2.237526400000206,['y'],0.21161080000092625,2.0,1803.9494421000009,,,,,541,21,Woman,Right,
,,,,,,,,,,,,,,,,,541,21,Woman,Right,3,58,0.15,1,180,-,180,1.0842467000002216,['n'],0.26772300000084215,1.6680000000000001,1807.9342762999995,,,,,541,21,Woman,Right,
,,,,,,,,,,,,,,,,,541,21,Woman,Right,3,47,0.15,2,180,0,180,0.5566118999995524,['n'],0.21995380000043951,1.186,1811.5175067999999,,,,,541,21,Woman,Right,
,,,,,,,,,,,,,,,,,541,21,Woman,Right,3,45,0.15,2,0,180,0,1.3980859000002965,['n'],0.23527400000057241,1.162,1816.1009611,,,,,541,21,Woman,Right,
,,,,,,,,,,,,,,,,,541,21,Woman,Right,3,43,0.4,2,180,0,0,1.4761847000008856,['y'],0.37158959999942454,1.3780000000000001,1821.2338129000009,,,,,541,21,Woman,Right,
,,,,,,,,,,,,,,,,,541,21,Woman,Right,3,77,0.15,2,0,180,180,0.5932873000001564,['n'],0.27524970000013127,1.478,1824.8673239000009,,,,,541,21,Woman,Right,
,,,,,,,,,,,,,,,,,541,21,Woman,Right,3,62,0.15,1,180,-,180,0.6874244000009639,['n'],0.2599601999991137,1.274,1828.6000367999995,,,,,541,21,Woman,Right,
,,,,,,,,,,,,,,,,,541,21,Woman,Right,3,21,0.4,2,0,180,180,0.728228100000706,['y'],0.19598210000003746,1.274,1828.6000367999995,,,,,541,21,Woman,Right,
,,,,,,,,,,,,,,,,,541,21,Woman,Right,3,46,0.15,1,180,-,180,1.1543935999998212,['n'],0.19498179999936838,1.12,1836.300975000001,,,,,541,21,Woman,Right,
,,,,,,,,,,,,,,,,,541,21,Woman,Right,3,18,0.4,1,180,-,180,0.5654747999997198,['n'],0.1953393000003416,1.684,1841.9009142000004,,,,,541,21,Woman,Right,
,,,,,,,,,,,,,,,,,541,21,Woman,Right,3,24,0.4,1,0,-,180,0.9995177999990119,['n'],0.22745140000006359,1.192,1845.9169907000005,,,,,541,21,Woman,Right,
,,,,,,,,,,,,,,,,,541,21,Woman,Right,3,67,0.15,2,180,0,0,0.5662417000003188,['n'],0.19531950000055076,1.6320000000000001,1850.5339068000003,,,,,541,21,Woman,Right,
,,,,,,,,,,,,,,,,,541,21,Woman,Right,3,39,0.4,2,180,0,0,0.8050375000002532,['y'],0.23590120000153547,1.676,1854.5000248000006,,,,,541,21,Woman,Right,
,,,,,,,,,,,,,,,,,541,21,Woman,Right,3,55,0.15,2,180,0,0,1.5328525000004447,['n'],0.22719139999935578,1.676,1854.5000248000006,,,,,541,21,Woman,Right,
,,,,,,,,,,,,,,,,,541,21,Woman,Right,3,60,0.15,1,0,-,0,0.7802209000001312,['n'],0.1796455000003334,1.5,1861.9765718999997,,,,,541,21,Woman,Right,
,,,,,,,,,,,,,,,,,541,21,Woman,Right,3,78,0.15,1,180,-,180,0.6684775999983685,['n'],0.19582049999917217,1.13,1866.9002625000003,,,,,541,21,Woman,Right,
,,,,,,,,,,,,,,,,,541,21,Woman,Right,3,76,0.15,1,0,-,0,0.7120716000008542,['n'],0.21948239999983343,1.248,1870.7988976000006,,,,,541,21,Woman,Right,
,,,,,,,,,,,,,,,,,541,21,Woman,Right,3,12,0.4,1,0,-,0,0.5632684000011068,['n'],0.2115336999995634,1.16,1874.8165507000003,,,,,541,21,Woman,Right,
,,,,,,,,,,,,,,,,,541,21,Woman,Right,3,30,0.4,1,180,-,180,0.5369941999997536,['n'],0.21953209999992396,1.688,1878.3663413999993,,,,,541,21,Woman,Right,
,,,,,,,,,,,,,,,,,541,21,Woman,Right,3,14,0.4,1,180,-,180,0.6693849999992381,['n'],0.24327269999957934,1.726,1882.0836800999996,,,,,541,21,Woman,Right,
,,,,,,,,,,,,,,,,,541,21,Woman,Right,3,61,0.15,2,0,180,180,1.4136980999992375,['n'],0.2354780000005121,1.748,1887.4997780000003,,,,,541,21,Woman,Right,
,,,,,,,,,,,,,,,,,541,21,Woman,Right,4,6,1,1,180,-,180,1.0832882000013342,['n'],0.3715867999999318,2.0,1904.7836213,82.5,92.5,50.0,,541,21,Woman,Right,
,,,,,,,,,,,,,,,,,541,21,Woman,Right,4,13,0.4,2,0,180,180,1.2195183999992878,['y'],0.41970600000058766,1.232,1909.1328844000009,,,,,541,21,Woman,Right,
,,,,,,,,,,,,,,,,,541,21,Woman,Right,4,55,0.15,2,180,0,0,1.3106485999996949,['n'],0.2916500999999698,1.71,1913.5331171999997,,,,,541,21,Woman,Right,
,,,,,,,,,,,,,,,,,541,21,Woman,Right,4,39,0.4,2,180,0,0,0.7805778000001737,['y'],0.2593238999997993,1.696,1918.449824100001,,,,,541,21,Woman,Right,
,,,,,,,,,,,,,,,,,541,21,Woman,Right,4,5,1,2,0,180,180,0.8164139999989857,['y'],0.23134599999866623,1.696,1918.449824100001,,,,,541,21,Woman,Right,
,,,,,,,,,,,,,,,,,541,21,Woman,Right,4,33,0.4,2,0,180,180,0.8849938999992446,['y'],0.1953512000000046,2.0,1925.7660786000006,,,,,541,21,Woman,Right,
,,,,,,,,,,,,,,,,,541,21,Woman,Right,4,23,0.4,2,180,0,0,0.47801929999877757,['y'],0.17117139999936626,1.684,1929.1325079000007,,,,,541,21,Woman,Right,
,,,,,,,,,,,,,,,,,541,21,Woman,Right,4,34,0.4,1,180,-,180,0.5014141999999993,['n'],0.18748989999949117,1.684,1929.1325079000007,,,,,541,21,Woman,Right,
,,,,,,,,,,,,,,,,,541,21,Woman,Right,4,70,0.15,1,180,-,180,0.610559300001114,['n'],0.19519860000036715,1.22,1935.7660736999997,,,,,541,21,Woman,Right,
,,,,,,,,,,,,,,,,,541,21,Woman,Right,4,56,0.15,1,0,-,0,0.6459992000000057,['n'],0.2119552999993175,1.22,1935.7660736999997,,,,,541,21,Woman,Right,
,,,,,,,,,,,,,,,,,541,21,Woman,Right,4,73,0.15,2,0,180,180,0.5141318999994837,['n'],0.21163180000075954,1.1,1942.4660255999997,,,,,541,21,Woman,Right,
,,,,,,,,,,,,,,,,,541,21,Woman,Right,4,25,0.4,2,0,180,180,1.4317711000003328,['y'],0.20353960000102234,1.728,1946.6152849,,,,,541,21,Woman,Right,
,,,,,,,,,,,,,,,,,541,21,Woman,Right,4,75,0.15,2,180,0,180,2.0598769999996875,['n'],0.21943479999936244,1.728,1946.6152849,,,,,541,21,Woman,Right,
,,,,,,,,,,,,,,,,,541,21,Woman,Right,4,35,0.4,2,180,0,0,1.7085047000000486,['y'],0.2114813000007416,1.0,1955.7657257,,,,,541,21,Woman,Right,
,,,,,,,,,,,,,,,,,541,21,Woman,Right,4,26,0.4,1,180,-,180,0.9097753999994893,['n'],1.0593097000000853,1.0,1955.7657257,,,,,541,21,Woman,Right,
,,,,,,,,,,,,,,,,,541,21,Woman,Right,4,44,0.15,1,0,-,0,0.5236060999995971,['n'],0.21942720000151894,1.752,1964.0153664,,,,,541,21,Woman,Right,
,,,,,,,,,,,,,,,,,541,21,Woman,Right,4,7,1,2,180,0,0,0.5881093999996665,['y'],0.20309640000050422,2.0,1967.5492523000003,,,,,541,21,Woman,Right,
,,,,,,,,,,,,,,,,,541,21,Woman,Right,4,14,0.4,1,180,-,180,0.6059939999995549,['n'],0.22736620000068797,1.752,1971.1320255,,,,,541,21,Woman,Right,
,,,,,,,,,,,,,,,,,541,21,Woman,Right,4,49,0.15,2,0,180,180,0.6078438000004098,['n'],0.21925910000027216,1.1400000000000001,1974.5149183000003,,,,,541,21,Woman,Right,
,,,,,,,,,,,,,,,,,541,21,Woman,Right,4,54,0.15,1,180,-,180,0.44010870000056457,['n'],0.259305100000347,1.0,1977.6823305000007,,,,,541,21,Woman,Right,
,,,,,,,,,,,,,,,,,541,21,Woman,Right,4,67,0.15,2,180,0,180,1.4603740999991714,['n'],0.21129199999995762,1.0,1982.0984830000007,,,,,541,21,Woman,Right,
,,,,,,,,,,,,,,,,,541,21,Woman,Right,4,40,0.4,1,0,-,0,0.649272499998915,['n'],0.29109240000070713,1.0,1982.0984830000007,,,,,541,21,Woman,Right,
,,,,,,,,,,,,,,,,,541,21,Woman,Right,4,51,0.15,2,180,0,180,0.4306314999994356,['n'],0.22773579999920912,1.068,1989.1322358999996,,,,,541,21,Woman,Right,
,,,,,,,,,,,,,,,,,541,21,Woman,Right,4,46,0.15,1,180,-,0,1.5007101000010152,['n'],0.21182569999837142,1.726,1993.5827230999994,,,,,541,21,Woman,Right,
,,,,,,,,,,,,,,,,,541,21,Woman,Right,4,19,0.4,2,180,0,0,0.9161466999994445,['y'],0.2514599000005546,1.692,1997.4651246000003,,,,,541,21,Woman,Right,
,,,,,,,,,,,,,,,,,541,21,Woman,Right,4,71,0.15,2,180,0,180,0.6029099999996106,['n'],0.21938570000020263,1.692,1997.4651246000003,,,,,541,21,Woman,Right,
,,,,,,,,,,,,,,,,,541,21,Woman,Right,4,9,0.4,2,0,180,180,0.5455763999998453,['n'],0.26786279999942053,1.5,2003.3449805999999,,,,,541,21,Woman,Right,
,,,,,,,,,,,,,,,,,541,21,Woman,Right,4,0,1,1,0,-,0,0.6801266000002215,['n'],0.18713300000126765,2.0,2010.4322805000002,,,,,541,21,Woman,Right,
,,,,,,,,,,,,,,,,,541,21,Woman,Right,4,41,0.4,2,0,180,180,1.857197899998937,['y'],0.4034566000009363,1.0,2015.3658096000008,,,,,541,21,Woman,Right,
,,,,,,,,,,,,,,,,,541,21,Woman,Right,4,50,0.15,1,180,-,180,0.5669846000000689,['n'],0.19454489999952784,1.67,2018.6481352,,,,,541,21,Woman,Right,
,,,,,,,,,,,,,,,,,541,21,Woman,Right,4,4,1,1,0,-,0,0.5628336999998282,['n'],0.18709060000037425,2.0,2022.4985332000006,,,,,541,21,Woman,Right,
,,,,,,,,,,,,,,,,,541,21,Woman,Right,4,30,0.4,1,180,-,180,0.42415689999870665,['n'],0.22714799999994284,2.0,2025.9318193999998,,,,,541,21,Woman,Right,
,,,,,,,,,,,,,,,,,541,21,Woman,Right,4,52,0.15,1,0,-,180,0.42177339999943797,['n'],0.21965139999883831,1.808,2030.0486401000007,,,,,541,21,Woman,Right,
,,,,,,,,,,,,,,,,,541,21,Woman,Right,4,22,0.4,1,180,-,180,0.4184823999985383,['n'],0.2676331000002392,1.794,2033.5473885000001,,,,,541,21,Woman,Right,
,,,,,,,,,,,,,,,,,541,21,Woman,Right,4,21,0.4,2,0,180,180,1.0052378000000317,['y'],0.23558219999904395,2.0,2037.4818523000004,,,,,541,21,Woman,Right,
,,,,,,,,,,,,,,,,,541,21,Woman,Right,4,78,0.15,1,180,-,180,0.9139763000002858,['n'],0.23545259999991686,2.0,2037.4818523000004,,,,,541,21,Woman,Right,
,,,,,,,,,,,,,,,,,541,21,Woman,Right,4,79,0.15,2,180,0,180,0.42409070000030624,['n'],0.21157169999969483,1.672,2044.9485350999994,,,,,541,21,Woman,Right,
,,,,,,,,,,,,,,,,,541,21,Woman,Right,4,17,0.4,2,0,180,180,1.4943551999986084,['y'],0.21937400000024354,1.762,2049.3985134999994,,,,,541,21,Woman,Right,
,,,,,,,,,,,,,,,,,541,21,Woman,Right,4,31,0.4,2,180,0,0,1.9651821999996173,['y'],0.25129180000112683,1.762,2049.3985134999994,,,,,541,21,Woman,Right,
,,,,,,,,,,,,,,,,,541,21,Woman,Right,4,37,0.4,2,0,180,180,1.6192353000005824,['y'],0.2356921999999031,1.5,2057.9688840999997,,,,,541,21,Woman,Right,
,,,,,,,,,,,,,,,,,541,21,Woman,Right,4,57,0.15,2,0,180,0,2.1411233999988326,['n'],0.2671147999990353,1.0,2064.2818639000006,,,,,541,21,Woman,Right,
,,,,,,,,,,,,,,,,,541,21,Woman,Right,4,29,0.4,2,0,180,180,1.0584361000001081,['y'],0.227328299999499,1.696,2068.981855000001,,,,,541,21,Woman,Right,
,,,,,,,,,,,,,,,,,541,21,Woman,Right,4,42,0.4,1,180,-,180,0.5250474999993457,['n'],0.23555110000052082,1.696,2068.981855000001,,,,,541,21,Woman,Right,
,,,,,,,,,,,,,,,,,541,21,Woman,Right,4,28,0.4,1,0,-,0,1.0486636000005092,['n'],0.2119172000002436,1.5,2075.8249738999993,,,,,541,21,Woman,Right,
,,,,,,,,,,,,,,,,,541,21,Woman,Right,4,27,0.4,2,180,0,0,0.9139300999995612,['y'],0.22720579999986512,1.5,2079.8888013999995,,,,,541,21,Woman,Right,
,,,,,,,,,,,,,,,,,541,21,Woman,Right,4,32,0.4,1,0,-,0,0.7398038999999699,['n'],0.21953080000093905,1.18,2084.513896200001,,,,,541,21,Woman,Right,
,,,,,,,,,,,,,,,,,541,21,Woman,Right,4,59,0.15,2,180,0,180,0.5843862999990961,['n'],0.25168789999952423,1.1560000000000001,2088.1151056999997,,,,,541,21,Woman,Right,
,,,,,,,,,,,,,,,,,541,21,Woman,Right,4,24,0.4,1,0,-,0,0.9297088000002987,['n'],0.1953047000006336,1.218,2091.9482345000006,,,,,541,21,Woman,Right,
,,,,,,,,,,,,,,,,,541,21,Woman,Right,4,45,0.15,2,0,180,180,0.8955372999989777,['n'],0.2516895000007935,1.216,2095.7143251000007,,,,,541,21,Woman,Right,
,,,,,,,,,,,,,,,,,541,21,Woman,Right,4,58,0.15,1,180,-,0,0.5834625000006781,['n'],0.22925599999871338,1.226,2099.5968466000004,,,,,541,21,Woman,Right,
,,,,,,,,,,,,,,,,,541,21,Woman,Right,4,48,0.15,1,0,-,180,1.554772999999841,['n'],0.29946949999975914,1.1480000000000001,2104.1815171999997,,,,,541,21,Woman,Right,
,,,,,,,,,,,,,,,,,541,21,Woman,Right,4,69,0.15,2,0,180,0,1.173792699999467,['n'],0.24300640000001295,1.18,2108.547904600001,,,,,541,21,Woman,Right,
,,,,,,,,,,,,,,,,,541,21,Woman,Right,4,62,0.15,1,180,-,180,0.5636676999984047,['n'],0.2276713999999629,1.1480000000000001,2112.1481133999996,,,,,541,21,Woman,Right,
,,,,,,,,,,,,,,,,,541,21,Woman,Right,4,64,0.15,1,0,-,0,0.6511173999988387,['n'],0.28377050000017334,1.192,2116.2977925999994,,,,,541,21,Woman,Right,
,,,,,,,,,,,,,,,,,541,21,Woman,Right,4,1,1,2,0,180,180,1.0216915000000881,['y'],0.2192656999995961,2.0,2120.6468723999997,,,,,541,21,Woman,Right,
,,,,,,,,,,,,,,,,,541,21,Woman,Right,4,47,0.15,2,180,0,180,0.5076988000000711,['n'],0.21136370000021998,1.0,2123.997260000001,,,,,541,21,Woman,Right,
,,,,,,,,,,,,,,,,,541,21,Woman,Right,4,38,0.4,1,180,-,180,0.4516968000007182,['n'],0.21153589999994438,1.0,2123.997260000001,,,,,541,21,Woman,Right,
,,,,,,,,,,,,,,,,,541,21,Woman,Right,4,65,0.15,2,0,180,180,0.6045902999994723,['n'],0.24354769999990822,1.5,2129.9448788,,,,,541,21,Woman,Right,
,,,,,,,,,,,,,,,,,541,21,Woman,Right,4,74,0.15,1,180,-,180,0.5456690000009985,['n'],0.2354403999997885,1.5,2133.7607657,,,,,541,21,Woman,Right,
,,,,,,,,,,,,,,,,,541,21,Woman,Right,4,43,0.4,2,180,0,0,1.2160163999997167,['y'],0.2063021000012668,1.5,2137.952754500001,,,,,541,21,Woman,Right,
,,,,,,,,,,,,,,,,,541,21,Woman,Right,4,61,0.15,2,0,180,0,2.0972519000006287,['n'],0.19531959999949322,1.5,2143.072897500001,,,,,541,21,Woman,Right,
,,,,,,,,,,,,,,,,,541,21,Woman,Right,4,36,0.4,1,0,-,0,0.41833730000143987,['n'],0.19514620000154537,2.0,2147.2302714000007,,,,,541,21,Woman,Right,
,,,,,,,,,,,,,,,,,541,21,Woman,Right,4,53,0.15,2,0,180,180,0.41989120000107505,['n'],0.20362239999849407,1.774,2150.6798604000005,,,,,541,21,Woman,Right,
,,,,,,,,,,,,,,,,,541,21,Woman,Right,4,76,0.15,1,0,-,180,1.2732021000010718,['n'],0.21144810000077996,1.0,2154.7810105,,,,,541,21,Woman,Right,
,,,,,,,,,,,,,,,,,541,21,Woman,Right,4,16,0.4,1,0,-,0,0.6626553000005515,['n'],0.2274717000000237,1.706,2158.830299,,,,,541,21,Woman,Right,
,,,,,,,,,,,,,,,,,541,21,Woman,Right,4,60,0.15,1,0,-,180,0.38018820000070264,['n'],0.23556789999929606,1.706,2158.830299,,,,,541,21,Woman,Right,
,,,,,,,,,,,,,,,,,541,21,Woman,Right,4,20,0.4,1,0,-,0,0.42406210000081046,['n'],0.23532689999956347,1.774,2166.197577,,,,,541,21,Woman,Right,
,,,,,,,,,,,,,,,,,541,21,Woman,Right,4,12,0.4,1,0,-,0,0.4305942999999388,['n'],0.21133610000106273,1.79,2170.1975276000003,,,,,541,21,Woman,Right,
,,,,,,,,,,,,,,,,,541,21,Woman,Right,4,63,0.15,2,180,0,0,1.1166028000006918,['y'],0.23539999999957217,1.066,2174.279947600001,,,,,541,21,Woman,Right,
,,,,,,,,,,,,,,,,,541,21,Woman,Right,4,66,0.15,1,180,-,180,0.44271440000011353,['n'],0.23520129999997152,1.732,2177.7130186000004,,,,,541,21,Woman,Right,
,,,,,,,,,,,,,,,,,541,21,Woman,Right,4,8,0.4,1,0,-,0,0.7700099000012415,['n'],0.27554240000063146,1.734,2181.5307678,,,,,541,21,Woman,Right,
,,,,,,,,,,,,,,,,,541,21,Woman,Right,4,11,0.4,2,180,0,0,0.7523122000002331,['y'],0.21125560000109544,1.674,2185.096732000001,,,,,541,21,Woman,Right,
,,,,,,,,,,,,,,,,,541,21,Woman,Right,4,68,0.15,1,0,-,180,0.5108964999999444,['n'],0.21943889999965904,1.764,2188.7805703000004,,,,,541,21,Woman,Right,
,,,,,,,,,,,,,,,,,541,21,Woman,Right,4,2,1,1,180,-,180,0.45507240000006277,['n'],0.21921560000009777,2.0,2192.0302237000005,,,,,541,21,Woman,Right,
,,,,,,,,,,,,,,,,,541,21,Woman,Right,4,18,0.4,1,180,-,180,0.9500182000010682,['n'],0.2188561999992089,2.0,2192.0302237000005,,,,,541,21,Woman,Right,
,,,,,,,,,,,,,,,,,541,21,Woman,Right,4,3,1,2,180,0,0,0.7669681999996101,['y'],0.24207930000011402,2.0,2199.4634385,,,,,541,21,Woman,Right,
,,,,,,,,,,,,,,,,,541,21,Woman,Right,4,15,0.4,2,180,0,0,0.7160537999989174,['y'],0.2356737999998586,1.67,2202.8800488000006,,,,,541,21,Woman,Right,
,,,,,,,,,,,,,,,,,541,21,Woman,Right,4,10,0.4,1,180,-,180,0.5962699000010616,['n'],0.23523390000082145,1.782,2206.229810400001,,,,,541,21,Woman,Right,
,,,,,,,,,,,,,,,,,541,21,Woman,Right,4,77,0.15,2,0,180,180,0.6281478000000789,['n'],0.2116836000004696,1.732,2209.6965647999996,,,,,541,21,Woman,Right,
,,,,,,,,,,,,,,,,,541,21,Woman,Right,4,72,0.15,1,0,-,180,1.1117431000002398,['n'],0.21145940000133123,1.798,2213.7131345999996,,,,,541,21,Woman,Right,
,,,,,,,,,,,,,,,,,541,21,Woman,Right,5,40,0.4,1,0,-,0,3.120093600000473,['n'],0.17916829999921902,1.798,2213.7131345999996,77.5,100.0,55.0,,541,21,Woman,Right,
,,,,,,,,,,,,,,,,,541,21,Woman,Right,5,34,0.4,1,180,-,180,0.5843743000004906,['n'],0.18761079999967478,1.752,2239.9798371000006,,,,,541,21,Woman,Right,
,,,,,,,,,,,,,,,,,541,21,Woman,Right,5,23,0.4,2,180,0,0,1.2790077999998175,['y'],0.25196950000099605,1.294,2244.562905,,,,,541,21,Woman,Right,
,,,,,,,,,,,,,,,,,541,21,Woman,Right,5,30,0.4,1,180,-,180,0.40034449999984645,['n'],0.24326079999991634,1.79,2247.9456843,,,,,541,21,Woman,Right,
,,,,,,,,,,,,,,,,,541,21,Woman,Right,5,11,0.4,2,180,0,0,1.6654121999999916,['y'],0.2274970000016765,1.79,2247.9456843,,,,,541,21,Woman,Right,
,,,,,,,,,,,,,,,,,541,21,Woman,Right,5,63,0.15,2,180,0,0,0.41855519999990065,['n'],0.20373230000041076,1.5,2256.7849290999993,,,,,541,21,Woman,Right,
,,,,,,,,,,,,,,,,,541,21,Woman,Right,5,43,0.4,2,180,0,0,0.9396538000000874,['y'],0.21946199999911187,1.0979999999999999,2261.5122770999997,,,,,541,21,Woman,Right,
,,,,,,,,,,,,,,,,,541,21,Woman,Right,5,39,0.4,2,180,0,0,0.9380285999995976,['y'],0.21169639999970968,1.086,2265.2465323999995,,,,,541,21,Woman,Right,
,,,,,,,,,,,,,,,,,541,21,Woman,Right,5,49,0.15,2,0,180,0,0.7725491000001057,['n'],0.2352511000008235,1.086,2265.2465323999995,,,,,541,21,Woman,Right,
,,,,,,,,,,,,,,,,,541,21,Woman,Right,5,12,0.4,1,0,-,0,0.5177399000003788,['n'],0.19556890000058047,1.5,2271.2092353,,,,,541,21,Woman,Right,
,,,,,,,,,,,,,,,,,541,21,Woman,Right,5,48,0.15,1,0,-,180,0.29515919999903417,['n'],0.23547940000025847,1.5,2274.393197100001,,,,,541,21,Woman,Right,
,,,,,,,,,,,,,,,,,541,21,Woman,Right,5,41,0.4,2,0,180,180,0.6991868000004615,['n'],0.19555870000112918,1.5,2278.0571425000007,,,,,541,21,Woman,Right,
,,,,,,,,,,,,,,,,,541,21,Woman,Right,5,72,0.15,1,0,-,0,0.5211228000007395,['n'],0.24308369999926072,1.162,2282.6124081000007,,,,,541,21,Woman,Right,
,,,,,,,,,,,,,,,,,541,21,Woman,Right,5,18,0.4,1,180,-,180,0.44601150000016787,['n'],0.23533160000079079,1.162,2282.6124081000007,,,,,541,21,Woman,Right,
,,,,,,,,,,,,,,,,,541,21,Woman,Right,5,35,0.4,2,180,0,180,0.3754886999995506,['n'],0.5238379000002169,1.5,2288.7449963999998,,,,,541,21,Woman,Right,
,,,,,,,,,,,,,,,,,541,21,Woman,Right,5,44,0.15,1,0,-,0,0.8319774999999936,['n'],0.22734959999979765,1.728,2294.095470200001,,,,,541,21,Woman,Right,
,,,,,,,,,,,,,,,,,541,21,Woman,Right,5,6,1,1,180,-,180,0.3459763999999268,['n'],0.24343749999934516,2.0,2297.2627531000007,,,,,541,21,Woman,Right,
,,,,,,,,,,,,,,,,,541,21,Woman,Right,5,66,0.15,1,180,-,180,0.4838999000003241,['n'],0.1875564999991184,2.0,2300.6297253000002,,,,,541,21,Woman,Right,
,,,,,,,,,,,,,,,,,541,21,Woman,Right,5,22,0.4,1,180,-,180,0.34168680000038876,['n'],0.25136489999931655,1.774,2303.8789331,,,,,541,21,Woman,Right,
,,,,,,,,,,,,,,,,,541,21,Woman,Right,5,13,0.4,2,0,180,180,2.1241720999987592,['n'],0.20328719999997702,1.774,2303.8789331,,,,,541,21,Woman,Right,
,,,,,,,,,,,,,,,,,541,21,Woman,Right,5,79,0.15,2,180,0,180,0.41738679999980377,['n'],0.195675900000424,1.782,2312.0794393999995,,,,,541,21,Woman,Right,
,,,,,,,,,,,,,,,,,541,21,Woman,Right,5,10,0.4,1,180,-,180,0.30012770000030287,['n'],0.21921339999971678,1.8,2315.162112000001,,,,,541,21,Woman,Right,
,,,,,,,,,,,,,,,,,541,21,Woman,Right,5,37,0.4,2,0,180,180,2.4161514999996143,['y'],0.44341979999990144,1.8,2315.162112000001,,,,,541,21,Woman,Right,
,,,,,,,,,,,,,,,,,541,21,Woman,Right,5,4,1,1,0,-,0,0.350636699999086,['n'],0.17964819999906467,2.0,2324.0457982,,,,,541,21,Woman,Right,
,,,,,,,,,,,,,,,,,541,21,Woman,Right,5,36,0.4,1,0,-,180,0.6859359000009135,['n'],0.20357490000060352,1.192,2327.4955942999995,,,,,541,21,Woman,Right,
,,,,,,,,,,,,,,,,,541,21,Woman,Right,5,54,0.15,1,180,-,180,0.49193990000094345,['n'],0.26745950000076846,1.6139999999999999,2331.4289868000005,,,,,541,21,Woman,Right,
,,,,,,,,,,,,,,,,,541,21,Woman,Right,5,65,0.15,2,0,180,0,0.7661600000010367,['n'],0.1475922999998147,1.234,2335.6788871,,,,,541,21,Woman,Right,
,,,,,,,,,,,,,,,,,541,21,Woman,Right,5,73,0.15,2,0,180,0,0.8326679000001604,['n'],0.22520319999966887,1.258,2339.4624751,,,,,541,21,Woman,Right,
,,,,,,,,,,,,,,,,,541,21,Woman,Right,5,62,0.15,1,180,-,180,0.7155065999995713,['n'],0.2117242999993323,1.0,2342.778619900001,,,,,541,21,Woman,Right,
,,,,,,,,,,,,,,,,,541,21,Woman,Right,5,5,1,2,0,180,180,0.8388807999999699,['y'],0.17883919999985665,2.0,2346.3787581999995,,,,,541,21,Woman,Right,
,,,,,,,,,,,,,,,,,541,21,Woman,Right,5,24,0.4,1,0,-,0,0.4412181000006967,['n'],0.2033744000000297,1.73,2349.728151800001,,,,,541,21,Woman,Right,
,,,,,,,,,,,,,,,,,541,21,Woman,Right,5,15,0.4,2,180,0,0,0.9634747000000061,['y'],0.1629424000002473,1.158,2353.2626905000006,,,,,541,21,Woman,Right,
,,,,,,,,,,,,,,,,,541,21,Woman,Right,5,64,0.15,1,0,-,0,0.44511229999989155,['n'],0.19547109999984968,1.714,2356.8111777999993,,,,,541,21,Woman,Right,
,,,,,,,,,,,,,,,,,541,21,Woman,Right,5,20,0.4,1,0,-,0,0.3681336999998166,['n'],0.2112622000004194,1.732,2359.9125808,,,,,541,21,Woman,Right,
,,,,,,,,,,,,,,,,,541,21,Woman,Right,5,26,0.4,1,180,-,180,0.39541860000099405,['n'],0.20331140000052983,1.764,2363.1622837999994,,,,,541,21,Woman,Right,
,,,,,,,,,,,,,,,,,541,21,Woman,Right,5,67,0.15,2,180,0,0,1.063855099999273,['n'],0.17155060000004596,1.0,2366.845631700001,,,,,541,21,Woman,Right,
,,,,,,,,,,,,,,,,,541,21,Woman,Right,5,1,1,2,0,180,180,0.7335167999990517,['y'],0.17906269999912183,2.0,2370.329369100001,,,,,541,21,Woman,Right,
,,,,,,,,,,,,,,,,,541,21,Woman,Right,5,59,0.15,2,180,0,180,1.9718325000012555,['n'],0.17883640000036394,1.3,2376.0617374000003,,,,,541,21,Woman,Right,
,,,,,,,,,,,,,,,,,541,21,Woman,Right,5,7,1,2,180,0,0,0.6660367999993468,['y'],0.16468690000147035,1.768,2379.7450629999994,,,,,541,21,Woman,Right,
,,,,,,,,,,,,,,,,,541,21,Woman,Right,5,69,0.15,2,0,180,180,0.673859700000321,['n'],0.24297279999882448,1.768,2379.7450629999994,,,,,541,21,Woman,Right,
,,,,,,,,,,,,,,,,,541,21,Woman,Right,5,21,0.4,2,0,180,0,2.8824745000001712,['n'],0.20374080000146932,1.0,2389.395500400001,,,,,541,21,Woman,Right,
,,,,,,,,,,,,,,,,,541,21,Woman,Right,5,9,0.4,2,0,180,180,1.3288245000003371,['y'],0.18737179999880027,1.718,2393.6112642,,,,,541,21,Woman,Right,
,,,,,,,,,,,,,,,,,541,21,Woman,Right,5,19,0.4,2,180,0,0,0.9268595000012283,['n'],0.18727279999984603,1.278,2397.5942370000002,,,,,541,21,Woman,Right,
,,,,,,,,,,,,,,,,,541,21,Woman,Right,5,28,0.4,1,0,-,180,0.5855516999999963,['n'],0.25136940000083996,1.1520000000000001,2401.012002300001,,,,,541,21,Woman,Right,
,,,,,,,,,,,,,,,,,541,21,Woman,Right,5,2,1,1,180,-,180,1.3684104999992996,['n'],0.20311039999978675,2.0,2405.3608247,,,,,541,21,Woman,Right,
,,,,,,,,,,,,,,,,,541,21,Woman,Right,5,77,0.15,2,0,180,180,1.2815601000002061,['n'],0.2669597000003705,1.0939999999999999,2409.845157500001,,,,,541,21,Woman,Right,
,,,,,,,,,,,,,,,,,541,21,Woman,Right,5,52,0.15,1,0,-,0,0.5137778000007529,['n'],0.18757520000144723,1.1139999999999999,2413.8289388000003,,,,,541,21,Woman,Right,
,,,,,,,,,,,,,,,,,541,21,Woman,Right,5,51,0.15,2,180,0,180,0.7248279999985243,['n'],0.21959500000048138,1.708,2418.194755200001,,,,,541,21,Woman,Right,
,,,,,,,,,,,,,,,,,541,21,Woman,Right,5,53,0.15,2,0,180,0,2.4080635999998776,['n'],0.21939889999885054,1.0,2423.2942637000006,,,,,541,21,Woman,Right,
,,,,,,,,,,,,,,,,,541,21,Woman,Right,5,57,0.15,2,0,180,180,1.8690492999994603,['y'],0.435406000000512,1.0,2423.2942637000006,,,,,541,21,Woman,Right,
,,,,,,,,,,,,,,,,,541,21,Woman,Right,5,61,0.15,2,0,180,0,0.7873587000012776,['n'],0.2353938999985985,1.612,2432.0272577999995,,,,,541,21,Woman,Right,
,,,,,,,,,,,,,,,,,541,21,Woman,Right,5,14,0.4,1,180,-,180,0.5354447000008804,['n'],0.20330009999997856,1.694,2435.2771623,,,,,541,21,Woman,Right,
,,,,,,,,,,,,,,,,,541,21,Woman,Right,5,27,0.4,2,180,0,0,0.836020800001279,['y'],0.21993320000001404,1.1219999999999999,2438.9270110000007,,,,,541,21,Woman,Right,
,,,,,,,,,,,,,,,,,541,21,Woman,Right,5,60,0.15,1,0,-,180,1.468396300000677,['y'],2.170942799999466,1.1219999999999999,2438.9270110000007,,,,,541,21,Woman,Right,
,,,,,,,,,,,,,,,,,541,21,Woman,Right,5,76,0.15,1,0,-,0,0.6938504999998258,['n'],0.2193726000004972,1.5,2448.456910600001,,,,,541,21,Woman,Right,
,,,,,,,,,,,,,,,,,541,21,Woman,Right,5,46,0.15,1,180,-,180,0.46346510000148555,['n'],0.2193626000007498,1.5,2451.9768563000007,,,,,541,21,Woman,Right,
,,,,,,,,,,,,,,,,,541,21,Woman,Right,5,78,0.15,1,180,-,180,0.4407742000003054,['n'],0.20337800000015704,1.804,2456.1442054999998,,,,,541,21,Woman,Right,
,,,,,,,,,,,,,,,,,541,21,Woman,Right,5,3,1,2,180,0,0,0.6582634999995207,['y'],0.1955634000005375,2.0,2459.4784205000005,,,,,541,21,Woman,Right,
,,,,,,,,,,,,,,,,,541,21,Woman,Right,5,8,0.4,1,0,-,0,0.5559651000003214,['n'],0.2196960000001127,2.0,2462.8773728999995,,,,,541,21,Woman,Right,
,,,,,,,,,,,,,,,,,541,21,Woman,Right,5,50,0.15,1,180,-,180,0.48473009999906935,['n'],0.21923830000014277,1.822,2466.1606796999995,,,,,541,21,Woman,Right,
,,,,,,,,,,,,,,,,,541,21,Woman,Right,5,55,0.15,2,180,0,180,0.38735929999893415,['n'],0.22725460000037856,1.6280000000000001,2469.3112145000005,,,,,541,21,Woman,Right,
,,,,,,,,,,,,,,,,,541,21,Woman,Right,5,56,0.15,1,0,-,180,0.523534899999504,['n'],0.22751419999985956,1.206,2472.7602118000004,,,,,541,21,Woman,Right,
,,,,,,,,,,,,,,,,,541,21,Woman,Right,5,16,0.4,1,0,-,0,0.3795023000002402,['n'],0.24368859999958659,1.782,2475.9446385,,,,,541,21,Woman,Right,
,,,,,,,,,,,,,,,,,541,21,Woman,Right,5,31,0.4,2,180,0,180,0.4662072999999509,['n'],0.2755758999992395,1.8479999999999999,2479.8108021,,,,,541,21,Woman,Right,
,,,,,,,,,,,,,,,,,541,21,Woman,Right,5,42,0.4,1,180,-,180,1.0510319000004529,['n'],0.23550280000017665,1.8479999999999999,2479.8108021,,,,,541,21,Woman,Right,
,,,,,,,,,,,,,,,,,541,21,Woman,Right,5,0,1,1,0,-,0,0.5077051999996911,['n'],0.2676185999989684,2.0,2487.4774007999995,,,,,541,21,Woman,Right,
,,,,,,,,,,,,,,,,,541,21,Woman,Right,5,70,0.15,1,180,-,180,0.5006119999998191,['n'],0.22740820000035455,1.206,2490.9108196000007,,,,,541,21,Woman,Right,
,,,,,,,,,,,,,,,,,541,21,Woman,Right,5,75,0.15,2,180,0,180,0.3401269999994838,['n'],0.22743099999934202,1.742,2494.0937927999994,,,,,541,21,Woman,Right,
,,,,,,,,,,,,,,,,,541,21,Woman,Right,5,47,0.15,2,180,0,180,0.5006022999987181,['n'],0.25137249999897904,1.716,2497.4102637000005,,,,,541,21,Woman,Right,
,,,,,,,,,,,,,,,,,541,21,Woman,Right,5,17,0.4,2,0,180,180,1.4670505999984016,['y'],0.20109649999903922,1.716,2497.4102637000005,,,,,541,21,Woman,Right,
,,,,,,,,,,,,,,,,,541,21,Woman,Right,5,45,0.15,2,0,180,180,0.48707590000049095,['n'],0.2595266000007541,1.768,2504.9776384000006,,,,,541,21,Woman,Right,
,,,,,,,,,,,,,,,,,541,21,Woman,Right,5,58,0.15,1,180,-,180,0.3231460999995761,['n'],0.25123270000040065,1.746,2508.0275513999995,,,,,541,21,Woman,Right,
,,,,,,,,,,,,,,,,,541,21,Woman,Right,5,71,0.15,2,180,0,180,0.3191188000000693,['n'],0.2758195999995223,1.78,2511.1931680000007,,,,,541,21,Woman,Right,
,,,,,,,,,,,,,,,,,541,21,Woman,Right,5,25,0.4,2,0,180,180,0.6081935000001977,['n'],0.2913164000001416,1.78,2511.1931680000007,,,,,541,21,Woman,Right,
,,,,,,,,,,,,,,,,,541,21,Woman,Right,5,33,0.4,2,0,180,180,0.8755312000012054,['n'],0.25905469999997877,1.784,2518.1439638,,,,,541,21,Woman,Right,
,,,,,,,,,,,,,,,,,541,21,Woman,Right,5,32,0.4,1,0,-,180,1.4034591999989061,['n'],0.2512012000006507,1.8,2522.510300500001,,,,,541,21,Woman,Right,
,,,,,,,,,,,,,,,,,541,21,Woman,Right,5,38,0.4,1,180,-,180,1.3466611000003468,['n'],0.25163960000099905,1.8599999999999999,2526.8430368,,,,,541,21,Woman,Right,
,,,,,,,,,,,,,,,,,541,21,Woman,Right,5,68,0.15,1,0,-,180,1.648079599999619,['n'],1.8592877999999473,1.8599999999999999,2526.8430368,,,,,541,21,Woman,Right,
,,,,,,,,,,,,,,,,,541,21,Woman,Right,5,74,0.15,1,180,-,180,2.0009782999986783,['n'],0.21150800000032177,1.5,2536.8890937999995,,,,,541,21,Woman,Right,
,,,,,,,,,,,,,,,,,541,21,Woman,Right,5,29,0.4,2,0,180,180,1.1644796999989921,['y'],0.25936259999980393,1.5,2541.0170573999994,,,,,541,21,Woman,Right,
,,,,,,,,,,,,,,,,,,,,,,,,,,,,,,,,,72.5,97.5,37.5,2238.2248224000004,,,,,
