p_block,p_section,p_coherence,p_direction1,p_direction2,p_direction_response,p_direction_RT,p_change_response,p_change_RT,p_confidence,p_full_correct,p_without5_correct,p_full_total,p_without5_total,p_full_avg,p_witout5_avg,p_total_time,sub,age,sex,handedness,loop,trial randomization,coherence,condition,direction1,direction2,direction_response,direction_RT,change_response,change_RT,change_confidence,change_confidence_RT,block_direction_avg,block_stable_avg,block_change_avg,total_time,sub,age,sex,handedness,
1,1,1.0,0,-,0,0.24385219999999208,-,-,-,,,,,,,,522,26,Woman,Right,,,,,,,,,,,,,,,,,522,26,Woman,Right,
1,1,1.0,180,-,180,0.724937700000055,-,-,-,,,,,,,,522,26,Woman,Right,,,,,,,,,,,,,,,,,522,26,Woman,Right,
1,1,1.0,0,-,0,0.9381717999999637,-,-,-,,,,,,,,522,26,Woman,Right,,,,,,,,,,,,,,,,,522,26,Woman,Right,
1,1,1.0,180,-,180,0.27865169999995487,-,-,-,,,,,,,,522,26,Woman,Right,,,,,,,,,,,,,,,,,522,26,Woman,Right,
1,1,1.0,180,-,0,0.01677039999981389,-,-,-,,,,,,,,522,26,Woman,Right,,,,,,,,,,,,,,,,,522,26,Woman,Right,
1,1,1.0,180,-,0,0.7033071000000746,-,-,-,,,,,,,,522,26,Woman,Right,,,,,,,,,,,,,,,,,522,26,Woman,Right,
1,1,1.0,0,-,0,0.05334519999996701,-,-,-,,,,,,,,522,26,Woman,Right,,,,,,,,,,,,,,,,,522,26,Woman,Right,
1,1,1.0,0,-,0,0.036688899999944624,-,-,-,,,,,,,,522,26,Woman,Right,,,,,,,,,,,,,,,,,522,26,Woman,Right,
1,1,1.0,0,-,180,0.2861043000000336,-,-,-,,,,,,,,522,26,Woman,Right,,,,,,,,,,,,,,,,,522,26,Woman,Right,
1,1,1.0,0,-,0,0.01677109999991444,-,-,-,,,,,,,,522,26,Woman,Right,,,,,,,,,,,,,,,,,522,26,Woman,Right,
1,1,1.0,0,-,0,0.09400529999993523,-,-,-,,,,,,,,522,26,Woman,Right,,,,,,,,,,,,,,,,,522,26,Woman,Right,
1,1,1.0,180,-,180,0.3894228000001476,-,-,-,,,,,,,,522,26,Woman,Right,,,,,,,,,,,,,,,,,522,26,Woman,Right,
1,1,1.0,180,-,0,0.32874730000003183,-,-,-,,,,,,,,522,26,Woman,Right,,,,,,,,,,,,,,,,,522,26,Woman,Right,
1,1,1.0,0,-,0,0.18189080000001923,-,-,-,,,,,,,,522,26,Woman,Right,,,,,,,,,,,,,,,,,522,26,Woman,Right,
1,1,1.0,180,-,180,0.016736999999920954,-,-,-,,,,,,,,522,26,Woman,Right,,,,,,,,,,,,,,,,,522,26,Woman,Right,
1,1,1.0,0,-,0,0.058604999999943175,-,-,-,,,,,,,,522,26,Woman,Right,,,,,,,,,,,,,,,,,522,26,Woman,Right,
1,1,1.0,0,-,180,0.3630080000000362,-,-,-,,,,,,,,522,26,Woman,Right,,,,,,,,,,,,,,,,,522,26,Woman,Right,
1,1,1.0,0,-,0,0.1425590999999713,-,-,-,,,,,,,,522,26,Woman,Right,,,,,,,,,,,,,,,,,522,26,Woman,Right,
1,1,1.0,0,-,0,0.01974560000007841,-,-,-,,,,,,,,522,26,Woman,Right,,,,,,,,,,,,,,,,,522,26,Woman,Right,
1,1,1.0,180,-,180,0.09269019999987904,-,-,-,8,8,10,10,0.8,0.8,,522,26,Woman,Right,,,,,,,,,,,,,,,,,522,26,Woman,Right,
2,1,0.4,0,-,0,0.43528889999993226,-,-,-,,,,,,,,522,26,Woman,Right,,,,,,,,,,,,,,,,,522,26,Woman,Right,
2,1,0.15,0,-,0,0.5159221999999772,-,-,-,,,,,,,,522,26,Woman,Right,,,,,,,,,,,,,,,,,522,26,Woman,Right,
2,1,0.15,180,-,180,0.6574066999999104,-,-,-,,,,,,,,522,26,Woman,Right,,,,,,,,,,,,,,,,,522,26,Woman,Right,
2,1,0.4,0,-,0,0.3451629999999568,-,-,-,,,,,,,,522,26,Woman,Right,,,,,,,,,,,,,,,,,522,26,Woman,Right,
2,1,0.15,180,-,0,0.3098334999999679,-,-,-,,,,,,,,522,26,Woman,Right,,,,,,,,,,,,,,,,,522,26,Woman,Right,
2,1,0.15,0,-,180,0.4521234999999706,-,-,-,,,,,,,,522,26,Woman,Right,,,,,,,,,,,,,,,,,522,26,Woman,Right,
2,1,0.4,0,-,0,0.19604489999983343,-,-,-,,,,,,,,522,26,Woman,Right,,,,,,,,,,,,,,,,,522,26,Woman,Right,
2,1,0.4,180,-,180,0.6945994999998675,-,-,-,,,,,,,,522,26,Woman,Right,,,,,,,,,,,,,,,,,522,26,Woman,Right,
2,1,0.15,180,-,180,0.389437899999848,-,-,-,,,,,,,,522,26,Woman,Right,,,,,,,,,,,,,,,,,522,26,Woman,Right,
2,1,0.4,0,-,180,0.38401070000008986,-,-,-,7,4,10,5,0.7,0.8,,522,26,Woman,Right,,,,,,,,,,,,,,,,,522,26,Woman,Right,
3,2,1.0,180,0,180,1.8159492999998292,['y'],2.640705999999909,1.626,,,,,,,,522,26,Woman,Right,,,,,,,,,,,,,,,,,522,26,Woman,Right,
3,2,1.0,0,180,0,1.0477759000000333,['y'],1.7760964999999942,1.6480000000000001,,,,,,,,522,26,Woman,Right,,,,,,,,,,,,,,,,,522,26,Woman,Right,
3,2,1.0,180,0,180,0.5905075000000579,['n'],2.297107800000049,1.254,,,,,,,,522,26,Woman,Right,,,,,,,,,,,,,,,,,522,26,Woman,Right,
3,2,1.0,0,180,0,0.3121600000001763,['n'],0.941332999999986,1.222,,,,,,,,522,26,Woman,Right,,,,,,,,,,,,,,,,,522,26,Woman,Right,
3,2,1.0,0,180,180,1.4272796000000199,['y'],1.355039700000134,1.734,,,,,,,,522,26,Woman,Right,,,,,,,,,,,,,,,,,522,26,Woman,Right,
3,2,1.0,180,0,0,1.2139808000001722,['y'],1.1914944000000105,1.824,,,,,,,,522,26,Woman,Right,,,,,,,,,,,,,,,,,522,26,Woman,Right,
3,2,1.0,180,0,180,0.6302394000001641,['y'],1.239483600000085,1.5939999999999999,,,,,,,,522,26,Woman,Right,,,,,,,,,,,,,,,,,522,26,Woman,Right,
3,2,1.0,0,180,180,1.927851099999998,['y'],0.8446378000001005,1.8940000000000001,,,,,,,,522,26,Woman,Right,,,,,,,,,,,,,,,,,522,26,Woman,Right,
3,2,1.0,180,0,180,1.3422957000000224,['y'],0.3705955000000358,1.684,,,,,,,,522,26,Woman,Right,,,,,,,,,,,,,,,,,522,26,Woman,Right,
3,2,1.0,180,0,180,1.0410561000001053,['y'],0.5605148000001918,1.696,,,,,,,,522,26,Woman,Right,,,,,,,,,,,,,,,,,522,26,Woman,Right,
3,2,1.0,180,0,180,0.4966084000000137,['y'],0.6224436000002243,1.672,,,,,,,,522,26,Woman,Right,,,,,,,,,,,,,,,,,522,26,Woman,Right,
3,2,1.0,0,180,180,0.4013807999999699,['y'],0.8838671000000886,1.87,,,,,,,,522,26,Woman,Right,,,,,,,,,,,,,,,,,522,26,Woman,Right,
3,2,1.0,0,180,180,1.5562933000001067,['y'],0.4795150999998441,1.904,,,,,,,,522,26,Woman,Right,,,,,,,,,,,,,,,,,522,26,Woman,Right,
3,2,1.0,0,180,180,1.3760164999998779,['y'],0.43448599999965154,1.896,,,,,,,,522,26,Woman,Right,,,,,,,,,,,,,,,,,522,26,Woman,Right,
3,2,1.0,0,180,180,1.0629229000001033,['y'],0.709779200000412,1.88,,,,,,,,522,26,Woman,Right,,,,,,,,,,,,,,,,,522,26,Woman,Right,
3,2,1.0,0,180,180,1.2836800999998559,['y'],0.7817672999999559,1.966,,,,,,,,522,26,Woman,Right,,,,,,,,,,,,,,,,,522,26,Woman,Right,
3,2,1.0,0,180,180,0.9098883999999998,['y'],0.6185447000002569,1.934,,,,,,,,522,26,Woman,Right,,,,,,,,,,,,,,,,,522,26,Woman,Right,
3,2,1.0,0,180,180,1.0260746999997536,['y'],0.5541051999998672,1.932,,,,,,,,522,26,Woman,Right,,,,,,,,,,,,,,,,,522,26,Woman,Right,
3,2,1.0,180,0,180,0.5270442999999432,['y'],0.05942579999964437,1.948,,,,,,,,522,26,Woman,Right,,,,,,,,,,,,,,,,,522,26,Woman,Right,
3,2,1.0,180,0,180,2.3778142000001026,['y'],1.1562191999996685,1.93,,,,,,,,522,26,Woman,Right,,,,,,,,,,,,,,,,,522,26,Woman,Right,
3,2,1.0,180,0,0,1.6638810999997986,['y'],0.8389909000002262,1.914,,,,,,,,522,26,Woman,Right,,,,,,,,,,,,,,,,,522,26,Woman,Right,
3,2,1.0,0,180,180,1.5611395000000812,['y'],0.5243882999998277,1.72,,,,,,,,522,26,Woman,Right,,,,,,,,,,,,,,,,,522,26,Woman,Right,
3,2,1.0,0,180,180,0.5690356000000065,['y'],0.7792812000002414,1.726,,,,,,,,522,26,Woman,Right,,,,,,,,,,,,,,,,,522,26,Woman,Right,
3,2,1.0,180,0,180,0.4915765000000647,['n'],2.033670499999971,1.23,,,,,,,,522,26,Woman,Right,,,,,,,,,,,,,,,,,522,26,Woman,Right,
3,2,1.0,180,0,0,1.2484075000002122,['y'],0.5525186999998368,1.8599999999999999,,,,,,,,522,26,Woman,Right,,,,,,,,,,,,,,,,,522,26,Woman,Right,
3,2,1.0,180,0,180,0.8765291999998226,['y'],0.3705502000002525,1.732,,,,,,,,522,26,Woman,Right,,,,,,,,,,,,,,,,,522,26,Woman,Right,
3,2,1.0,0,180,180,0.5595524000000296,['y'],0.6348147000003337,1.8519999999999999,,,,,,,,522,26,Woman,Right,,,,,,,,,,,,,,,,,522,26,Woman,Right,
3,2,1.0,180,0,180,0.5701395999999477,['y'],0.909534800000074,1.88,,,,,,,,522,26,Woman,Right,,,,,,,,,,,,,,,,,522,26,Woman,Right,
3,2,1.0,0,180,180,0.6143480000000636,['y'],0.5595726000001378,1.8599999999999999,,,,,,,,522,26,Woman,Right,,,,,,,,,,,,,,,,,522,26,Woman,Right,
3,2,1.0,0,180,180,0.5336681000003409,['y'],0.275664499999948,1.904,,,,,,,,522,26,Woman,Right,,,,,,,,,,,,,,,,,522,26,Woman,Right,
3,2,1.0,0,180,180,0.551379999999881,['y'],0.49013600000034785,1.912,,,,,,,,522,26,Woman,Right,,,,,,,,,,,,,,,,,522,26,Woman,Right,
3,2,1.0,180,0,0,1.4738710000001447,['y'],0.8802163000000292,1.8820000000000001,,,,,,,,522,26,Woman,Right,,,,,,,,,,,,,,,,,522,26,Woman,Right,
3,2,1.0,180,0,180,0.6417613999997229,['y'],0.6413493999998536,1.884,,,,,,,,522,26,Woman,Right,,,,,,,,,,,,,,,,,522,26,Woman,Right,
3,2,1.0,180,0,0,2.5259672000001956,['y'],0.48224270000036995,1.916,,,,,,,,522,26,Woman,Right,,,,,,,,,,,,,,,,,522,26,Woman,Right,
3,2,1.0,0,180,180,0.3110326000000896,['y'],0.46007769999960146,1.8439999999999999,,,,,,,,522,26,Woman,Right,,,,,,,,,,,,,,,,,522,26,Woman,Right,
3,2,1.0,180,0,180,0.3853229999999712,['y'],0.619519500000024,1.8780000000000001,,,,,,,,522,26,Woman,Right,,,,,,,,,,,,,,,,,522,26,Woman,Right,
3,2,1.0,0,180,180,2.005258199999844,['y'],0.27825460000030944,1.92,,,,,,,,522,26,Woman,Right,,,,,,,,,,,,,,,,,522,26,Woman,Right,
3,2,1.0,0,180,180,0.5013515999999072,['y'],0.4984903000004124,1.924,,,,,,,,522,26,Woman,Right,,,,,,,,,,,,,,,,,522,26,Woman,Right,
3,2,1.0,0,180,180,1.3856943000000683,['y'],0.2105293999998139,1.942,,,,,,,,522,26,Woman,Right,,,,,,,,,,,,,,,,,522,26,Woman,Right,
3,2,1.0,180,0,180,0.4124183999997513,['y'],0.10853530000031242,1.924,,,,,,,,522,26,Woman,Right,,,,,,,,,,,,,,,,,522,26,Woman,Right,
3,2,1.0,0,180,180,0.4266950999999608,['y'],0.5806394999999611,1.912,,,,,,,,522,26,Woman,Right,,,,,,,,,,,,,,,,,522,26,Woman,Right,
3,2,1.0,180,0,0,0.8013331000001926,['n'],0.705735999999888,1.642,,,,,,,,522,26,Woman,Right,,,,,,,,,,,,,,,,,522,26,Woman,Right,
3,2,1.0,0,180,0,2.861895999999888,['y'],1.1020073999998203,1.702,,,,,,,,522,26,Woman,Right,,,,,,,,,,,,,,,,,522,26,Woman,Right,
3,2,1.0,180,0,180,0.6359747999999854,['y'],0.30703029999995124,1.866,,,,,,,,522,26,Woman,Right,,,,,,,,,,,,,,,,,522,26,Woman,Right,
3,2,1.0,0,180,180,0.4220433000000412,['y'],0.5354219999999259,1.928,,,,,,,,522,26,Woman,Right,,,,,,,,,,,,,,,,,522,26,Woman,Right,
3,2,1.0,180,0,180,0.6633142000000589,['y'],1.4865491999998994,1.914,,,,,,,,522,26,Woman,Right,,,,,,,,,,,,,,,,,522,26,Woman,Right,
3,2,1.0,180,0,180,0.45243729999992865,['y'],0.5960163999998258,1.8900000000000001,,,,,,,,522,26,Woman,Right,,,,,,,,,,,,,,,,,522,26,Woman,Right,
3,2,1.0,180,0,180,0.452147800000148,['y'],1.9788579999999456,1.888,,,,,,,,522,26,Woman,Right,,,,,,,,,,,,,,,,,522,26,Woman,Right,
3,2,1.0,180,0,180,0.8116150000000744,['y'],0.6201403999998547,1.9020000000000001,,,,,,,,522,26,Woman,Right,,,,,,,,,,,,,,,,,522,26,Woman,Right,
3,2,1.0,0,180,180,0.49603109999998196,['y'],0.23777520000021468,1.928,,,,,,,,522,26,Woman,Right,,,,,,,,,,,,,,,,,522,26,Woman,Right,
3,2,1.0,180,0,180,0.4739979000000858,['y'],0.17621210000015708,1.924,,,,,,,,522,26,Woman,Right,,,,,,,,,,,,,,,,,522,26,Woman,Right,
3,2,1.0,0,180,180,0.775572099999863,['y'],0.7053241999997226,1.92,,,,,,,,522,26,Woman,Right,,,,,,,,,,,,,,,,,522,26,Woman,Right,
3,2,1.0,180,0,0,1.0282757999998466,['y'],2.620438699999795,1.946,,,,,,,,522,26,Woman,Right,,,,,,,,,,,,,,,,,522,26,Woman,Right,
3,2,1.0,180,0,180,0.5936314999999013,['y'],0.891751000000113,1.956,,,,,,,,522,26,Woman,Right,,,,,,,,,,,,,,,,,522,26,Woman,Right,
3,2,1.0,0,180,180,0.5629051999999319,['y'],0.7822267000001375,1.936,,,,,,,,522,26,Woman,Right,,,,,,,,,,,,,,,,,522,26,Woman,Right,
3,2,1.0,0,180,180,0.5768775000001369,['y'],1.0670485000000554,1.968,,,,,,,,522,26,Woman,Right,,,,,,,,,,,,,,,,,522,26,Woman,Right,
3,2,1.0,0,180,0,0.5421243000000686,['y'],0.43365200000016557,1.934,,,,,,,,522,26,Woman,Right,,,,,,,,,,,,,,,,,522,26,Woman,Right,
3,2,1.0,0,180,180,0.5160345999997844,['y'],1.0006929999999556,1.896,,,,,,,,522,26,Woman,Right,,,,,,,,,,,,,,,,,522,26,Woman,Right,
3,2,1.0,180,0,180,4.159273299999768,['y'],0.04170120000026145,1.98,,,,,,,,522,26,Woman,Right,,,,,,,,,,,,,,,,,522,26,Woman,Right,
3,2,1.0,180,0,0,0.6202665999999226,['y'],0.4519332999998369,1.924,,,,,,,,522,26,Woman,Right,,,,,,,,,,,,,,,,,522,26,Woman,Right,
3,2,1.0,180,0,0,0.809812200000124,['y'],0.3714466999999786,1.962,,,,,,,,522,26,Woman,Right,,,,,,,,,,,,,,,,,522,26,Woman,Right,
3,2,1.0,0,180,180,0.6503999000001386,['y'],0.5383385000000089,1.928,,,,,,,,522,26,Woman,Right,,,,,,,,,,,,,,,,,522,26,Woman,Right,
3,2,1.0,180,0,0,0.6649473999996189,['y'],0.6318724000002476,1.93,,,,,,,,522,26,Woman,Right,,,,,,,,,,,,,,,,,522,26,Woman,Right,
3,2,1.0,0,180,180,0.37686040000016874,['y'],0.5398856000001615,1.938,,,,,,,,522,26,Woman,Right,,,,,,,,,,,,,,,,,522,26,Woman,Right,
3,2,1.0,0,180,180,0.5658317000002171,['y'],0.4640865000001213,1.95,,,,,,,,522,26,Woman,Right,,,,,,,,,,,,,,,,,522,26,Woman,Right,
3,2,1.0,180,0,180,0.5034132999999201,['y'],0.21259370000007038,1.94,,,,,,,,522,26,Woman,Right,,,,,,,,,,,,,,,,,522,26,Woman,Right,
3,2,1.0,0,180,180,0.599304100000154,['y'],0.5050810000002457,1.922,,,,,,,,522,26,Woman,Right,,,,,,,,,,,,,,,,,522,26,Woman,Right,
3,2,1.0,180,0,0,1.2311274999997295,['y'],0.8559194999997999,1.962,,,,,,,,522,26,Woman,Right,,,,,,,,,,,,,,,,,522,26,Woman,Right,
3,2,1.0,0,180,180,1.1389281000001574,['y'],2.453985200000261,1.926,,,,,,,,522,26,Woman,Right,,,,,,,,,,,,,,,,,522,26,Woman,Right,
3,2,1.0,180,0,0,0.9950067999998282,['y'],0.5404488000003767,1.942,9,9,10,10,0.9,0.9,,522,26,Woman,Right,,,,,,,,,,,,,,,,,522,26,Woman,Right,
4,2,0.4,180,0,0,2.3330049000001054,['y'],3.1041503999999804,1.802,,,,,,,,522,26,Woman,Right,,,,,,,,,,,,,,,,,522,26,Woman,Right,
4,2,0.4,180,0,180,1.1035305999998855,['y'],0.3095244000001003,1.9060000000000001,,,,,,,,522,26,Woman,Right,,,,,,,,,,,,,,,,,522,26,Woman,Right,
4,2,0.4,0,180,180,1.0271059000001515,['y'],0.7160595000000285,1.932,,,,,,,,522,26,Woman,Right,,,,,,,,,,,,,,,,,522,26,Woman,Right,
4,2,0.15,180,0,180,2.5439840999997614,['y'],0.9318880999999237,1.942,,,,,,,,522,26,Woman,Right,,,,,,,,,,,,,,,,,522,26,Woman,Right,
4,2,0.15,0,180,180,1.8971701000000394,['y'],1.0775840000001153,1.944,,,,,,,,522,26,Woman,Right,,,,,,,,,,,,,,,,,522,26,Woman,Right,
4,2,0.4,0,180,180,0.9917977999998584,['y'],0.6415129000001798,1.916,,,,,,,,522,26,Woman,Right,,,,,,,,,,,,,,,,,522,26,Woman,Right,
4,2,0.4,180,0,180,1.795252000000346,['y'],0.5482273000002351,1.964,,,,,,,,522,26,Woman,Right,,,,,,,,,,,,,,,,,522,26,Woman,Right,
4,2,0.15,180,0,0,0.992847299999994,['y'],0.6661395999999513,1.948,,,,,,,,522,26,Woman,Right,,,,,,,,,,,,,,,,,522,26,Woman,Right,
4,2,0.15,180,0,0,0.8482566000002407,['y'],0.3598360999999386,1.306,,,,,,,,522,26,Woman,Right,,,,,,,,,,,,,,,,,522,26,Woman,Right,
4,2,0.4,0,180,0,1.3802427999999054,['y'],0.6143968000001223,1.6640000000000001,,,,,,,,522,26,Woman,Right,,,,,,,,,,,,,,,,,522,26,Woman,Right,
4,2,0.4,0,180,180,0.4802775000002839,['y'],0.5910672999998496,1.514,,,,,,,,522,26,Woman,Right,,,,,,,,,,,,,,,,,522,26,Woman,Right,
4,2,0.15,180,0,180,0.9598234000000048,['y'],0.5542220000002089,1.822,,,,,,,,522,26,Woman,Right,,,,,,,,,,,,,,,,,522,26,Woman,Right,
4,2,0.15,180,0,0,0.40120299999989584,['y'],1.1223987999997007,1.826,,,,,,,,522,26,Woman,Right,,,,,,,,,,,,,,,,,522,26,Woman,Right,
4,2,0.4,180,0,180,0.3492863999999827,['y'],0.4562610000002678,1.836,,,,,,,,522,26,Woman,Right,,,,,,,,,,,,,,,,,522,26,Woman,Right,
4,2,0.15,180,0,0,0.41903369999999995,['y'],1.539322799999809,1.836,,,,,,,,522,26,Woman,Right,,,,,,,,,,,,,,,,,522,26,Woman,Right,
4,2,0.15,180,0,180,0.6818069000000833,['y'],0.7677942000000257,1.76,,,,,,,,522,26,Woman,Right,,,,,,,,,,,,,,,,,522,26,Woman,Right,
4,2,0.4,180,0,0,1.1297230000000127,['y'],0.5108147999999346,1.91,,,,,,,,522,26,Woman,Right,,,,,,,,,,,,,,,,,522,26,Woman,Right,
4,2,0.4,180,0,180,0.393257100000028,['y'],0.4505970999998681,1.812,,,,,,,,522,26,Woman,Right,,,,,,,,,,,,,,,,,522,26,Woman,Right,
4,2,0.4,0,180,0,0.48566699999992125,['y'],0.6602576000000226,1.8780000000000001,,,,,,,,522,26,Woman,Right,,,,,,,,,,,,,,,,,522,26,Woman,Right,
4,2,0.15,0,180,180,0.5174125999997159,['y'],0.5385019999998804,1.8679999999999999,,,,,,,,522,26,Woman,Right,,,,,,,,,,,,,,,,,522,26,Woman,Right,
4,2,0.15,0,180,180,1.8502621000002364,['y'],0.5678078999999343,1.8900000000000001,,,,,,,,522,26,Woman,Right,,,,,,,,,,,,,,,,,522,26,Woman,Right,
4,2,0.15,0,180,0,0.26349889999983134,['y'],3.174629599999662,1.8599999999999999,,,,,,,,522,26,Woman,Right,,,,,,,,,,,,,,,,,522,26,Woman,Right,
4,2,0.4,0,180,0,0.030068199999732315,['y'],0.5023326999998972,1.248,,,,,,,,522,26,Woman,Right,,,,,,,,,,,,,,,,,522,26,Woman,Right,
4,2,0.4,0,180,0,0.5910976000000119,['y'],1.0654043000004094,1.8719999999999999,,,,,,,,522,26,Woman,Right,,,,,,,,,,,,,,,,,522,26,Woman,Right,
4,2,0.15,180,0,180,1.1053737000002002,['y'],0.575075900000229,1.862,,,,,,,,522,26,Woman,Right,,,,,,,,,,,,,,,,,522,26,Woman,Right,
4,2,0.4,0,180,180,1.3591914000003271,['y'],0.7221647999999732,1.8900000000000001,,,,,,,,522,26,Woman,Right,,,,,,,,,,,,,,,,,522,26,Woman,Right,
4,2,0.4,180,0,180,1.3888174999997318,['y'],0.7026396000001114,1.9020000000000001,,,,,,,,522,26,Woman,Right,,,,,,,,,,,,,,,,,522,26,Woman,Right,
4,2,0.4,0,180,0,0.3372262999996565,['y'],0.5577335000002677,1.918,,,,,,,,522,26,Woman,Right,,,,,,,,,,,,,,,,,522,26,Woman,Right,
4,2,0.4,180,0,0,0.45935469999994893,['y'],0.4667736999999761,1.932,,,,,,,,522,26,Woman,Right,,,,,,,,,,,,,,,,,522,26,Woman,Right,
4,2,0.4,180,0,180,0.49730500000032407,['y'],0.43967990000010104,1.93,,,,,,,,522,26,Woman,Right,,,,,,,,,,,,,,,,,522,26,Woman,Right,
4,2,0.15,0,180,0,1.7549945999999181,['y'],0.5506112000002759,1.8820000000000001,,,,,,,,522,26,Woman,Right,,,,,,,,,,,,,,,,,522,26,Woman,Right,
4,2,0.4,180,0,180,0.4536054999998669,['y'],0.3659186999998383,1.92,,,,,,,,522,26,Woman,Right,,,,,,,,,,,,,,,,,522,26,Woman,Right,
4,2,0.15,180,0,0,0.22930970000015805,['y'],0.9813570000001164,1.888,,,,,,,,522,26,Woman,Right,,,,,,,,,,,,,,,,,522,26,Woman,Right,
4,2,0.15,180,0,0,1.5414236999999957,['y'],0.8410343000000466,1.896,,,,,,,,522,26,Woman,Right,,,,,,,,,,,,,,,,,522,26,Woman,Right,
4,2,0.15,0,180,0,0.553264599999693,['y'],0.18113779999976032,1.922,,,,,,,,522,26,Woman,Right,,,,,,,,,,,,,,,,,522,26,Woman,Right,
4,2,0.4,180,0,0,0.45730649999995876,['y'],0.513056200000392,1.914,,,,,,,,522,26,Woman,Right,,,,,,,,,,,,,,,,,522,26,Woman,Right,
4,2,0.15,0,180,180,1.1426974999999402,['y'],0.8185723999999936,1.938,,,,,,,,522,26,Woman,Right,,,,,,,,,,,,,,,,,522,26,Woman,Right,
4,2,0.4,180,0,0,0.30016329999989466,['y'],0.45241740000028585,1.9020000000000001,,,,,,,,522,26,Woman,Right,,,,,,,,,,,,,,,,,522,26,Woman,Right,
4,2,0.15,0,180,0,0.22756759999992937,['y'],2.468223300000318,1.8780000000000001,,,,,,,,522,26,Woman,Right,,,,,,,,,,,,,,,,,522,26,Woman,Right,
4,2,0.15,0,180,0,0.40722239999968224,['y'],0.5838864000002104,1.858,,,,,,,,522,26,Woman,Right,,,,,,,,,,,,,,,,,522,26,Woman,Right,
4,2,0.15,0,180,0,1.972081999999773,['y'],6.7261515000000145,1.924,,,,,,,,522,26,Woman,Right,,,,,,,,,,,,,,,,,522,26,Woman,Right,
4,2,0.15,180,0,0,0.07344340000008742,['y'],0.48775419999992664,1.904,,,,,,,,522,26,Woman,Right,,,,,,,,,,,,,,,,,522,26,Woman,Right,
4,2,0.4,180,0,0,1.015856900000017,['y'],0.44122839999999997,1.8980000000000001,,,,,,,,522,26,Woman,Right,,,,,,,,,,,,,,,,,522,26,Woman,Right,
4,2,0.15,0,180,0,1.0335602999998628,['y'],0.6114367999998649,1.818,,,,,,,,522,26,Woman,Right,,,,,,,,,,,,,,,,,522,26,Woman,Right,
4,2,0.4,180,0,0,0.7736958999998933,['y'],0.44952880000028017,1.874,,,,,,,,522,26,Woman,Right,,,,,,,,,,,,,,,,,522,26,Woman,Right,
4,2,0.4,180,0,180,0.37916119999999864,['y'],0.4535919999998441,1.8940000000000001,,,,,,,,522,26,Woman,Right,,,,,,,,,,,,,,,,,522,26,Woman,Right,
4,2,0.15,0,180,180,0.7820225999998911,['y'],0.449416100000235,1.9060000000000001,,,,,,,,522,26,Woman,Right,,,,,,,,,,,,,,,,,522,26,Woman,Right,
4,2,0.4,0,180,180,1.1532757999998466,['y'],0.5245895000002747,1.8780000000000001,,,,,,,,522,26,Woman,Right,,,,,,,,,,,,,,,,,522,26,Woman,Right,
4,2,0.15,180,0,0,0.01682909999999538,['y'],0.5922264000000723,1.884,,,,,,,,522,26,Woman,Right,,,,,,,,,,,,,,,,,522,26,Woman,Right,
4,2,0.4,0,180,0,0.016706799999610666,['y'],0.604941399999916,1.8780000000000001,,,,,,,,522,26,Woman,Right,,,,,,,,,,,,,,,,,522,26,Woman,Right,
4,2,0.4,0,180,0,0.8419343000000481,['y'],0.5703699000000597,1.896,,,,,,,,522,26,Woman,Right,,,,,,,,,,,,,,,,,522,26,Woman,Right,
4,2,0.4,180,0,0,0.6378566000003048,['y'],0.9100786000003609,1.88,,,,,,,,522,26,Woman,Right,,,,,,,,,,,,,,,,,522,26,Woman,Right,
4,2,0.15,0,180,0,0.17547130000002653,['y'],0.41011780000008,1.91,,,,,,,,522,26,Woman,Right,,,,,,,,,,,,,,,,,522,26,Woman,Right,
4,2,0.4,180,0,0,0.11294549999956871,['y'],0.5104921000001923,1.9020000000000001,,,,,,,,522,26,Woman,Right,,,,,,,,,,,,,,,,,522,26,Woman,Right,
4,2,0.4,0,180,180,0.4774191999999857,['y'],0.4027470999999423,1.8639999999999999,,,,,,,,522,26,Woman,Right,,,,,,,,,,,,,,,,,522,26,Woman,Right,
4,2,0.15,0,180,0,0.01702560000012454,['y'],1.1084298000000672,1.8679999999999999,,,,,,,,522,26,Woman,Right,,,,,,,,,,,,,,,,,522,26,Woman,Right,
4,2,0.4,180,0,0,0.016664400000081514,['y'],0.5124347000000853,1.8679999999999999,,,,,,,,522,26,Woman,Right,,,,,,,,,,,,,,,,,522,26,Woman,Right,
4,2,0.15,180,0,0,0.01675520000026154,['y'],0.6177232999998523,1.8679999999999999,,,,,,,,522,26,Woman,Right,,,,,,,,,,,,,,,,,522,26,Woman,Right,
4,2,0.15,0,180,0,0.17463099999986298,['y'],0.46613350000006903,1.8679999999999999,,,,,,,,522,26,Woman,Right,,,,,,,,,,,,,,,,,522,26,Woman,Right,
4,2,0.4,0,180,180,0.20721420000018043,['y'],0.47320129999980054,1.8679999999999999,6,5,10,6,0.6,0.8333333333333334,,522,26,Woman,Right,,,,,,,,,,,,,,,,,522,26,Woman,Right,
5,3,0.4,180,0,0,1.7860513000000537,['y'],1.9159889000002295,1.9060000000000001,,,,,,,,522,26,Woman,Right,,,,,,,,,,,,,,,,,522,26,Woman,Right,
5,3,1.0,0,-,180,0.3170140000001993,['y'],0.5214802000000418,1.912,,,,,,,,522,26,Woman,Right,,,,,,,,,,,,,,,,,522,26,Woman,Right,
5,3,0.4,180,0,180,0.7449586999996427,['y'],0.732177099999717,1.822,,,,,,,,522,26,Woman,Right,,,,,,,,,,,,,,,,,522,26,Woman,Right,
5,3,0.4,180,-,0,0.28059799999982715,['y'],1.5824820000002546,1.6280000000000001,,,,,,,,522,26,Woman,Right,,,,,,,,,,,,,,,,,522,26,Woman,Right,
5,3,0.4,180,-,0,0.2395434000000023,['y'],0.7192407999996249,1.694,,,,,,,,522,26,Woman,Right,,,,,,,,,,,,,,,,,522,26,Woman,Right,
5,3,0.4,180,0,0,0.8515216999999211,['y'],0.4978758000002017,1.952,,,,,,,,522,26,Woman,Right,,,,,,,,,,,,,,,,,522,26,Woman,Right,
5,3,0.15,180,0,180,0.333441700000094,['y'],0.483397800000148,1.824,,,,,,,,522,26,Woman,Right,,,,,,,,,,,,,,,,,522,26,Woman,Right,
5,3,0.15,0,-,0,0.081764099999873,['y'],0.9121190000000752,1.266,,,,,,,,522,26,Woman,Right,,,,,,,,,,,,,,,,,522,26,Woman,Right,
5,3,1.0,180,-,0,0.353248700000222,['n'],0.8764485000001514,1.84,,,,,,,,522,26,Woman,Right,,,,,,,,,,,,,,,,,522,26,Woman,Right,
5,3,1.0,0,-,180,0.2774693000001207,['y'],0.452655600000071,1.2,,,,,,,,522,26,Woman,Right,,,,,,,,,,,,,,,,,522,26,Woman,Right,
5,3,0.15,180,-,0,0.04093239999974685,['y'],0.6647711000000527,1.198,,,,,,,,522,26,Woman,Right,,,,,,,,,,,,,,,,,522,26,Woman,Right,
5,3,1.0,0,180,180,0.47754759999997987,['y'],0.4361579999999776,1.966,,,,,,,,522,26,Woman,Right,,,,,,,,,,,,,,,,,522,26,Woman,Right,
5,3,0.15,0,-,0,0.7664386999999806,['y'],0.809393099999852,1.248,,,,,,,,522,26,Woman,Right,,,,,,,,,,,,,,,,,522,26,Woman,Right,
5,3,0.15,180,-,0,0.684208099999978,['y'],0.5938773000002584,1.16,,,,,,,,522,26,Woman,Right,,,,,,,,,,,,,,,,,522,26,Woman,Right,
5,3,0.4,0,-,180,0.606485000000248,['y'],0.44724429999996573,1.126,,,,,,,,522,26,Woman,Right,,,,,,,,,,,,,,,,,522,26,Woman,Right,
5,3,0.15,180,0,180,0.3283305999998447,['y'],0.6926606000001811,1.292,,,,,,,,522,26,Woman,Right,,,,,,,,,,,,,,,,,522,26,Woman,Right,
5,3,0.15,180,0,0,0.4785385000000133,['n'],1.6290650999999343,1.71,,,,,,,,522,26,Woman,Right,,,,,,,,,,,,,,,,,522,26,Woman,Right,
5,3,0.4,180,-,180,0.8363978000002135,['n'],0.5001667999999881,1.904,,,,,,,,522,26,Woman,Right,,,,,,,,,,,,,,,,,522,26,Woman,Right,
5,3,0.15,180,-,0,0.37295999999969354,['n'],0.5356578999999329,1.8479999999999999,,,,,,,,522,26,Woman,Right,,,,,,,,,,,,,,,,,522,26,Woman,Right,
5,3,0.15,180,0,180,0.3483138000001418,['y'],0.41659230000004754,1.792,,,,,,,,522,26,Woman,Right,,,,,,,,,,,,,,,,,522,26,Woman,Right,
5,3,1.0,180,0,180,0.3718183000000863,['n'],1.318050200000016,1.178,,,,,,,,522,26,Woman,Right,,,,,,,,,,,,,,,,,522,26,Woman,Right,
5,3,1.0,0,180,180,0.6429689999999937,['y'],8.003542500000094,1.938,,,,,,,,522,26,Woman,Right,,,,,,,,,,,,,,,,,522,26,Woman,Right,
5,3,0.4,180,0,180,0.4442377000000306,['n'],0.26786740000034115,1.328,,,,,,,,522,26,Woman,Right,,,,,,,,,,,,,,,,,522,26,Woman,Right,
5,3,0.15,180,0,0,0.5297224999999344,['y'],0.3499416999998175,1.8940000000000001,,,,,,,,522,26,Woman,Right,,,,,,,,,,,,,,,,,522,26,Woman,Right,
5,3,0.15,180,0,180,0.2659048000000439,['y'],0.40028050000000803,1.804,,,,,,,,522,26,Woman,Right,,,,,,,,,,,,,,,,,522,26,Woman,Right,
5,3,0.4,0,180,0,0.2963062999997419,['n'],0.5422545999999784,1.244,,,,,,,,522,26,Woman,Right,,,,,,,,,,,,,,,,,522,26,Woman,Right,
5,3,0.4,0,-,180,0.37642449999975724,['y'],0.4587469000002784,1.326,,,,,,,,522,26,Woman,Right,,,,,,,,,,,,,,,,,522,26,Woman,Right,
5,3,1.0,0,-,0,0.45631970000022193,['y'],1.6002112000001034,1.264,,,,,,,,522,26,Woman,Right,,,,,,,,,,,,,,,,,522,26,Woman,Right,
5,3,0.4,180,-,180,0.35523590000002514,['y'],0.37449489999971775,1.83,,,,,,,,522,26,Woman,Right,,,,,,,,,,,,,,,,,522,26,Woman,Right,
5,3,1.0,0,-,180,0.3365478000000621,['y'],0.36418929999990723,1.208,,,,,,,,522,26,Woman,Right,,,,,,,,,,,,,,,,,522,26,Woman,Right,
5,3,0.4,180,0,180,0.5411556000003657,['y'],2.0012421999999788,1.862,,,,,,,,522,26,Woman,Right,,,,,,,,,,,,,,,,,522,26,Woman,Right,
5,3,1.0,180,0,180,0.22964779999983875,['y'],1.0063187999999172,1.932,,,,,,,,522,26,Woman,Right,,,,,,,,,,,,,,,,,522,26,Woman,Right,
5,3,0.4,180,-,180,1.5372465000000375,['y'],0.28492499999993015,1.946,,,,,,,,522,26,Woman,Right,,,,,,,,,,,,,,,,,522,26,Woman,Right,
5,3,0.15,180,-,180,0.4332240999997339,['y'],0.4647602999998526,1.9020000000000001,,,,,,,,522,26,Woman,Right,,,,,,,,,,,,,,,,,522,26,Woman,Right,
5,3,0.4,180,-,180,0.5320612000000438,['y'],0.42385760000024675,1.928,,,,,,,,522,26,Woman,Right,,,,,,,,,,,,,,,,,522,26,Woman,Right,
5,3,0.4,180,0,180,0.4575268000003234,['y'],0.5046763999998802,1.786,,,,,,,,522,26,Woman,Right,,,,,,,,,,,,,,,,,522,26,Woman,Right,
5,3,0.4,0,180,180,0.27560910000011063,['y'],0.2977709999995568,1.916,,,,,,,,522,26,Woman,Right,,,,,,,,,,,,,,,,,522,26,Woman,Right,
5,3,0.4,0,180,180,0.3451596999998401,['y'],0.2529594999996334,1.924,,,,,,,,522,26,Woman,Right,,,,,,,,,,,,,,,,,522,26,Woman,Right,
5,3,0.15,180,-,0,1.8734991999999693,['y'],0.1838698999999906,1.268,,,,,,,,522,26,Woman,Right,,,,,,,,,,,,,,,,,522,26,Woman,Right,
5,3,0.15,0,180,180,4.233346700000311,['y'],0.12095829999998386,2.0,,,,,,,,522,26,Woman,Right,,,,,,,,,,,,,,,,,522,26,Woman,Right,
5,3,0.4,180,0,180,0.5142694000001029,['y'],0.1675398000002133,1.968,,,,,,,,522,26,Woman,Right,,,,,,,,,,,,,,,,,522,26,Woman,Right,
5,3,0.15,180,-,0,3.21663720000015,['y'],0.2925710999998046,1.6280000000000001,,,,,,,,522,26,Woman,Right,,,,,,,,,,,,,,,,,522,26,Woman,Right,
5,3,1.0,180,-,180,0.5278229999998985,['y'],0.30825340000001233,1.484,,,,,,,,522,26,Woman,Right,,,,,,,,,,,,,,,,,522,26,Woman,Right,
5,3,0.15,180,0,180,2.340067999999974,['y'],0.10459149999996953,1.892,,,,,,,,522,26,Woman,Right,,,,,,,,,,,,,,,,,522,26,Woman,Right,
5,3,0.4,0,-,0,0.29788669999970807,['n'],1.808144799999809,1.912,,,,,,,,522,26,Woman,Right,,,,,,,,,,,,,,,,,522,26,Woman,Right,
5,3,1.0,0,180,0,0.06315070000027845,['y'],0.6628606999997828,1.3900000000000001,,,,,,,,522,26,Woman,Right,,,,,,,,,,,,,,,,,522,26,Woman,Right,
5,3,0.4,0,-,0,0.3793961000001218,['y'],14.253927699999622,1.32,,,,,,,,522,26,Woman,Right,,,,,,,,,,,,,,,,,522,26,Woman,Right,
5,3,0.15,0,180,180,2.0836536000001615,['y'],0.07657740000013291,1.884,,,,,,,,522,26,Woman,Right,,,,,,,,,,,,,,,,,522,26,Woman,Right,
5,3,0.4,180,0,180,0.5792700000001787,['y'],1.0303230000004078,1.206,,,,,,,,522,26,Woman,Right,,,,,,,,,,,,,,,,,522,26,Woman,Right,
5,3,1.0,0,180,180,0.4812322999996468,['y'],1.1750855999998748,1.97,,,,,,,,522,26,Woman,Right,,,,,,,,,,,,,,,,,522,26,Woman,Right,
5,3,0.15,180,0,180,0.33963489999996455,['y'],0.414502700000412,1.952,,,,,,,,522,26,Woman,Right,,,,,,,,,,,,,,,,,522,26,Woman,Right,
5,3,1.0,180,0,180,0.3700069999999869,['y'],0.2446178999998665,1.938,,,,,,,,522,26,Woman,Right,,,,,,,,,,,,,,,,,522,26,Woman,Right,
5,3,0.4,180,-,180,1.1806564000003164,['y'],0.23174050000034185,1.932,,,,,,,,522,26,Woman,Right,,,,,,,,,,,,,,,,,522,26,Woman,Right,
5,3,1.0,180,0,180,0.316114700000071,['y'],0.48096590000022843,1.96,,,,,,,,522,26,Woman,Right,,,,,,,,,,,,,,,,,522,26,Woman,Right,
5,3,1.0,0,-,180,0.4058330999996542,['y'],0.2951505000000907,1.942,,,,,,,,522,26,Woman,Right,,,,,,,,,,,,,,,,,522,26,Woman,Right,
5,3,0.4,0,-,180,0.3290207999998529,['y'],1.2937404999997852,1.772,,,,,,,,522,26,Woman,Right,,,,,,,,,,,,,,,,,522,26,Woman,Right,
5,3,0.4,0,-,180,0.7459334000000126,['y'],0.502120399999967,1.182,,,,,,,,522,26,Woman,Right,,,,,,,,,,,,,,,,,522,26,Woman,Right,
5,3,0.15,180,0,0,0.5763245999996798,['n'],1.2255457000001115,1.788,,,,,,,,522,26,Woman,Right,,,,,,,,,,,,,,,,,522,26,Woman,Right,
5,3,0.15,180,0,180,0.5236936999999671,['n'],0.808110299999953,1.742,,,,,,,,522,26,Woman,Right,,,,,,,,,,,,,,,,,522,26,Woman,Right,
5,3,1.0,0,180,180,0.8127624999997352,['y'],0.2457843000001958,1.95,,,,,,,,522,26,Woman,Right,,,,,,,,,,,,,,,,,522,26,Woman,Right,
5,3,0.4,180,-,0,0.3984046999999009,['y'],1.5198955000000751,1.796,,,,,,,,522,26,Woman,Right,,,,,,,,,,,,,,,,,522,26,Woman,Right,
5,3,0.15,0,180,180,0.3920244000000821,['n'],1.77026079999996,1.314,,,,,,,,522,26,Woman,Right,,,,,,,,,,,,,,,,,522,26,Woman,Right,
5,3,0.4,0,180,0,0.4415794999999889,['y'],0.8169647000004261,1.8780000000000001,,,,,,,,522,26,Woman,Right,,,,,,,,,,,,,,,,,522,26,Woman,Right,
5,3,0.4,0,180,180,1.0082077000001846,['y'],0.3695974999995997,1.8719999999999999,,,,,,,,522,26,Woman,Right,,,,,,,,,,,,,,,,,522,26,Woman,Right,
5,3,0.4,0,180,180,0.534733999999844,['y'],0.6586201000000074,1.724,,,,,,,,522,26,Woman,Right,,,,,,,,,,,,,,,,,522,26,Woman,Right,
5,3,1.0,180,-,180,0.44075059999977384,['y'],0.3682238999999754,1.954,,,,,,,,522,26,Woman,Right,,,,,,,,,,,,,,,,,522,26,Woman,Right,
5,3,0.15,0,-,180,0.6268215000000055,['y'],0.35504489999993893,1.858,,,,,,,,522,26,Woman,Right,,,,,,,,,,,,,,,,,522,26,Woman,Right,
5,3,0.15,0,-,180,1.688144100000045,['y'],3.430103499999859,1.792,,,,,,,,522,26,Woman,Right,,,,,,,,,,,,,,,,,522,26,Woman,Right,
5,3,1.0,180,-,180,0.3745624999996835,['y'],0.28044550000004165,1.8479999999999999,,,,,,,,522,26,Woman,Right,,,,,,,,,,,,,,,,,522,26,Woman,Right,
5,3,0.4,0,-,0,1.9382181999999375,['n'],0.3172570000001542,1.88,,,,,,,,522,26,Woman,Right,,,,,,,,,,,,,,,,,522,26,Woman,Right,
5,3,1.0,180,-,180,0.45679649999965477,['y'],0.4316032000001542,1.736,,,,,,,,522,26,Woman,Right,,,,,,,,,,,,,,,,,522,26,Woman,Right,
5,3,1.0,180,0,180,0.33049839999966935,['y'],0.9428467000002456,1.876,,,,,,,,522,26,Woman,Right,,,,,,,,,,,,,,,,,522,26,Woman,Right,
5,3,0.15,180,0,180,0.37474169999995866,['y'],2.129164800000126,1.76,,,,,,,,522,26,Woman,Right,,,,,,,,,,,,,,,,,522,26,Woman,Right,
5,3,0.15,0,180,0,1.1121695000001637,['n'],1.1974930999999742,1.566,,,,,,,,522,26,Woman,Right,,,,,,,,,,,,,,,,,522,26,Woman,Right,
5,3,1.0,180,-,180,0.41275290000021414,['y'],0.09437109999998938,1.964,,,,,,,,522,26,Woman,Right,,,,,,,,,,,,,,,,,522,26,Woman,Right,
5,3,1.0,0,-,0,0.6881554000001415,['n'],0.3900782999999137,1.938,,,,,,,,522,26,Woman,Right,,,,,,,,,,,,,,,,,522,26,Woman,Right,
5,3,0.4,180,0,180,0.7636517000000822,['y'],0.27178609999964465,1.954,,,,,,,,522,26,Woman,Right,,,,,,,,,,,,,,,,,522,26,Woman,Right,
5,3,0.4,180,-,0,0.7540758000000096,['y'],0.7810502000002089,1.37,,,,,,,,522,26,Woman,Right,,,,,,,,,,,,,,,,,522,26,Woman,Right,
5,3,1.0,0,180,0,0.3275760999999875,['y'],0.5894274000002042,1.252,,,,,,,,522,26,Woman,Right,,,,,,,,,,,,,,,,,522,26,Woman,Right,
5,3,0.4,180,0,180,0.46620260000008784,['y'],0.6411553999996613,1.264,,,,,,,,522,26,Woman,Right,,,,,,,,,,,,,,,,,522,26,Woman,Right,
5,3,0.4,180,0,180,0.7782738000000791,['y'],0.4449808999997913,1.8519999999999999,,,,,,,,522,26,Woman,Right,,,,,,,,,,,,,,,,,522,26,Woman,Right,
5,3,0.15,0,180,180,2.099473499999931,['y'],0.889164200000323,1.866,,,,,,,,522,26,Woman,Right,,,,,,,,,,,,,,,,,522,26,Woman,Right,
5,3,1.0,0,-,180,0.3929431999999906,['y'],1.7534691000000748,1.184,,,,,,,,522,26,Woman,Right,,,,,,,,,,,,,,,,,522,26,Woman,Right,
5,3,0.15,0,-,180,1.964058600000044,['y'],1.3909448999997949,1.838,,,,,,,,522,26,Woman,Right,,,,,,,,,,,,,,,,,522,26,Woman,Right,
5,3,0.15,0,180,0,0.8305610000002162,['n'],0.5185993999998573,1.792,,,,,,,,522,26,Woman,Right,,,,,,,,,,,,,,,,,522,26,Woman,Right,
5,3,0.4,180,0,180,0.5368251999998392,['y'],0.860142900000028,1.692,,,,,,,,522,26,Woman,Right,,,,,,,,,,,,,,,,,522,26,Woman,Right,
5,3,1.0,180,0,180,0.48386900000014066,['y'],7.162205399999948,1.858,,,,,,,,522,26,Woman,Right,,,,,,,,,,,,,,,,,522,26,Woman,Right,
5,3,0.4,180,-,180,1.1670375000003332,['y'],1.3065151999999216,1.918,,,,,,,,522,26,Woman,Right,,,,,,,,,,,,,,,,,522,26,Woman,Right,
5,3,0.4,0,180,180,0.37574529999983497,['y'],1.0818795000000136,1.96,,,,,,,,522,26,Woman,Right,,,,,,,,,,,,,,,,,522,26,Woman,Right,
5,3,0.4,0,180,180,0.4337518000002092,['y'],0.3208433000004334,1.964,,,,,,,,522,26,Woman,Right,,,,,,,,,,,,,,,,,522,26,Woman,Right,
5,3,1.0,0,180,180,0.29103059999988545,['y'],0.22519019999981538,1.948,,,,,,,,522,26,Woman,Right,,,,,,,,,,,,,,,,,522,26,Woman,Right,
5,3,0.15,180,0,0,2.191536199999973,['n'],0.36987409999983356,1.932,,,,,,,,522,26,Woman,Right,,,,,,,,,,,,,,,,,522,26,Woman,Right,
5,3,0.4,180,0,180,1.5620539000001372,['y'],0.4373141000000942,1.8820000000000001,,,,,,,,522,26,Woman,Right,,,,,,,,,,,,,,,,,522,26,Woman,Right,
5,3,0.4,0,180,0,0.5451284999999189,['y'],0.2855168000000958,1.662,,,,,,,,522,26,Woman,Right,,,,,,,,,,,,,,,,,522,26,Woman,Right,
5,3,0.15,180,0,180,0.8988610999999764,['y'],0.04817960000036692,1.696,,,,,,,,522,26,Woman,Right,,,,,,,,,,,,,,,,,522,26,Woman,Right,
5,3,0.4,0,-,0,0.3575640000003659,['y'],1.0648694999999861,1.37,,,,,,,,522,26,Woman,Right,,,,,,,,,,,,,,,,,522,26,Woman,Right,
5,3,0.15,0,-,0,0.9351660000002084,['n'],0.36286420000033104,1.934,,,,,,,,522,26,Woman,Right,,,,,,,,,,,,,,,,,522,26,Woman,Right,
5,3,0.15,0,180,0,0.4116711000001487,['n'],0.8771593999999823,1.768,,,,,,,,522,26,Woman,Right,,,,,,,,,,,,,,,,,522,26,Woman,Right,
5,3,0.15,0,-,180,0.544373700000051,['n'],1.2444490000002588,1.776,,,,,,,,522,26,Woman,Right,,,,,,,,,,,,,,,,,522,26,Woman,Right,
5,3,1.0,0,180,180,1.0047834000001785,['y'],0.4136122000004434,1.988,,,,,,,,522,26,Woman,Right,,,,,,,,,,,,,,,,,522,26,Woman,Right,
5,3,1.0,0,180,180,0.4296675000000505,['y'],0.1258444000000054,1.97,,,,,,,,522,26,Woman,Right,,,,,,,,,,,,,,,,,522,26,Woman,Right,
5,3,0.15,0,-,180,0.7256294000003436,['y'],0.10615940000025148,1.916,,,,,,,,522,26,Woman,Right,,,,,,,,,,,,,,,,,522,26,Woman,Right,
5,3,0.15,180,0,180,0.4398014999997031,['y'],0.18330999999989217,1.962,,,,,,,,522,26,Woman,Right,,,,,,,,,,,,,,,,,522,26,Woman,Right,
5,3,0.15,180,-,0,3.010012299999744,['y'],0.0354047000000719,1.296,,,,,,,,522,26,Woman,Right,,,,,,,,,,,,,,,,,522,26,Woman,Right,
5,3,0.4,180,0,180,0.5456476999997903,['y'],0.2857822999999371,1.954,,,,,,,,522,26,Woman,Right,,,,,,,,,,,,,,,,,522,26,Woman,Right,
5,3,1.0,180,0,0,0.8292234000000462,['y'],0.06231720000005225,1.946,,,,,,,,522,26,Woman,Right,,,,,,,,,,,,,,,,,522,26,Woman,Right,
5,3,0.15,180,-,180,1.519843099999889,['y'],0.22860129999980927,1.9020000000000001,,,,,,,,522,26,Woman,Right,,,,,,,,,,,,,,,,,522,26,Woman,Right,
5,3,0.15,0,180,180,2.290601300000162,['n'],0.11207240000021557,1.8639999999999999,,,,,,,,522,26,Woman,Right,,,,,,,,,,,,,,,,,522,26,Woman,Right,
5,3,0.4,180,-,180,1.3347149000001082,['y'],1.6828679000000193,1.832,,,,,,,,522,26,Woman,Right,,,,,,,,,,,,,,,,,522,26,Woman,Right,
5,3,0.4,0,-,0,0.5840210000001207,['n'],2.3693600999999944,1.952,6,4,10,5,0.6,0.8,,522,26,Woman,Right,,,,,,,,,,,,,,,,,522,26,Woman,Right,
,,,,,,,,,,,,,,,,3.900000137946336e-06,522,26,Woman,Right,,,,,,,,,,,,,,,,,522,26,Woman,Right,
,,,,,,,,,,,,,,,,,522,26,Woman,Right,0,76,0.15,1,0,-,0,1.9591952999999194,['y'],1.3989126999999826,1.8,1895.3128258000002,,,,,522,26,Woman,Right,
,,,,,,,,,,,,,,,,,522,26,Woman,Right,0,47,0.15,2,180,0,0,5.98668090000001,['y'],2.6947534999999334,1.738,1907.2128435999998,,,,,522,26,Woman,Right,
,,,,,,,,,,,,,,,,,522,26,Woman,Right,0,37,0.4,2,0,180,180,0.9765643999999156,['y'],1.142888199999561,1.732,1911.6960491999998,,,,,522,26,Woman,Right,
,,,,,,,,,,,,,,,,,522,26,Woman,Right,0,73,0.15,2,0,180,180,0.5280800999998974,['y'],0.6150485000002845,1.732,1915.2461649000002,,,,,522,26,Woman,Right,
,,,,,,,,,,,,,,,,,522,26,Woman,Right,0,27,0.4,2,180,0,0,0.20926739999958954,['y'],0.6309092999999848,1.73,1918.9294335,,,,,522,26,Woman,Right,
,,,,,,,,,,,,,,,,,522,26,Woman,Right,0,50,0.15,1,180,-,180,0.6779320000000553,['y'],0.5910726000001887,1.778,1922.5462143,,,,,522,26,Woman,Right,
,,,,,,,,,,,,,,,,,522,26,Woman,Right,0,59,0.15,2,180,0,180,0.38049480000017866,['y'],0.5907906000002185,1.8,1926.1627749,,,,,522,26,Woman,Right,
,,,,,,,,,,,,,,,,,522,26,Woman,Right,0,10,0.4,1,180,-,180,0.8006426000001738,['y'],1.4145832999997765,1.8439999999999999,1930.9627873,,,,,522,26,Woman,Right,
,,,,,,,,,,,,,,,,,522,26,Woman,Right,0,70,0.15,1,180,-,0,1.137905900000078,['n'],0.9346588000003067,1.808,1935.7461444,,,,,522,26,Woman,Right,
,,,,,,,,,,,,,,,,,522,26,Woman,Right,0,53,0.15,2,0,180,180,0.5014627999998993,['y'],0.38266129999965415,1.922,1939.1626851,,,,,522,26,Woman,Right,
,,,,,,,,,,,,,,,,,522,26,Woman,Right,0,69,0.15,2,0,180,0,1.4336551999999756,['y'],0.6270365000000311,2.0,1944.0794154999999,,,,,522,26,Woman,Right,
,,,,,,,,,,,,,,,,,522,26,Woman,Right,0,15,0.4,2,180,0,180,0.5393466000000444,['y'],1.030772099999922,1.936,1948.3460332999998,,,,,522,26,Woman,Right,
,,,,,,,,,,,,,,,,,522,26,Woman,Right,0,38,0.4,1,180,-,180,1.0199428999999327,['y'],0.5110580000000482,1.8980000000000001,1952.1635821999998,,,,,522,26,Woman,Right,
,,,,,,,,,,,,,,,,,522,26,Woman,Right,0,32,0.4,1,0,-,180,0.3233905000001869,['y'],0.5587851000000228,1.8719999999999999,1955.346015,,,,,522,26,Woman,Right,
,,,,,,,,,,,,,,,,,522,26,Woman,Right,0,23,0.4,2,180,0,180,0.5335251999999855,['y'],0.36685179999994944,1.904,1958.7125893000002,,,,,522,26,Woman,Right,
,,,,,,,,,,,,,,,,,522,26,Woman,Right,0,64,0.15,1,0,-,180,0.8825834999997824,['y'],0.2870412999996006,1.876,1962.1961248000002,,,,,522,26,Woman,Right,
,,,,,,,,,,,,,,,,,522,26,Woman,Right,0,8,0.4,1,0,-,180,1.8160247000000709,['y'],0.2951981999999589,1.9020000000000001,1966.5964081000002,,,,,522,26,Woman,Right,
,,,,,,,,,,,,,,,,,522,26,Woman,Right,0,4,1,1,0,-,0,1.0436644999999771,['n'],0.6389504000003399,1.81,1970.6126048,,,,,522,26,Woman,Right,
,,,,,,,,,,,,,,,,,522,26,Woman,Right,0,28,0.4,1,0,-,180,2.184140899999875,['n'],0.6306070000000545,1.932,1977.4126751,,,,,522,26,Woman,Right,
,,,,,,,,,,,,,,,,,522,26,Woman,Right,0,3,1,2,180,0,180,1.9606461000003037,['y'],0.3107919999997648,1.934,1982.0295637,,,,,522,26,Woman,Right,
,,,,,,,,,,,,,,,,,522,26,Woman,Right,0,60,0.15,1,0,-,180,0.8077324999999291,['y'],0.5424898999999641,1.8780000000000001,1985.5963064000002,,,,,522,26,Woman,Right,
,,,,,,,,,,,,,,,,,522,26,Woman,Right,0,56,0.15,1,0,-,180,3.369749099999808,['n'],0.686438900000212,1.928,1991.8626450000002,,,,,522,26,Woman,Right,
,,,,,,,,,,,,,,,,,522,26,Woman,Right,0,54,0.15,1,180,-,180,1.286170200000015,['y'],0.630768900000021,1.982,1996.3458989,,,,,522,26,Woman,Right,
,,,,,,,,,,,,,,,,,522,26,Woman,Right,0,71,0.15,2,180,0,180,0.7522107999998298,['y'],0.40674010000020644,1.946,1999.7625294999998,,,,,522,26,Woman,Right,
,,,,,,,,,,,,,,,,,522,26,Woman,Right,0,48,0.15,1,0,-,180,0.6100248999996438,['y'],0.4948453000001791,1.88,2003.5792222,,,,,522,26,Woman,Right,
,,,,,,,,,,,,,,,,,522,26,Woman,Right,0,49,0.15,2,0,180,180,2.65010889999985,['y'],0.2865729000000101,1.88,2003.5792222,,,,,522,26,Woman,Right,
,,,,,,,,,,,,,,,,,522,26,Woman,Right,0,74,0.15,1,180,-,180,4.188705999999911,['y'],1.1674528999997165,1.288,2018.1625296000002,,,,,522,26,Woman,Right,
,,,,,,,,,,,,,,,,,522,26,Woman,Right,0,40,0.4,1,0,-,0,1.0543512999997802,['y'],0.4225956000000224,1.924,2022.2293849000002,,,,,522,26,Woman,Right,
,,,,,,,,,,,,,,,,,522,26,Woman,Right,0,7,1,2,180,0,180,0.41642919999958394,['y'],0.3264236999998502,1.99,2025.5791411,,,,,522,26,Woman,Right,
,,,,,,,,,,,,,,,,,522,26,Woman,Right,0,57,0.15,2,0,180,180,1.209883699999864,['y'],0.2867728999999599,1.9020000000000001,2029.5801434999998,,,,,522,26,Woman,Right,
,,,,,,,,,,,,,,,,,522,26,Woman,Right,0,21,0.4,2,0,180,180,2.0209239999999227,['y'],0.2625297999998111,1.914,2034.0960908000002,,,,,522,26,Woman,Right,
,,,,,,,,,,,,,,,,,522,26,Woman,Right,0,51,0.15,2,180,0,180,4.052914200000032,['y'],0.5186238999999659,1.932,2041.5456755,,,,,522,26,Woman,Right,
,,,,,,,,,,,,,,,,,522,26,Woman,Right,0,66,0.15,1,180,-,180,0.45274200000039855,['y'],0.2709255999998277,1.936,2044.5300238999998,,,,,522,26,Woman,Right,
,,,,,,,,,,,,,,,,,522,26,Woman,Right,0,1,1,2,0,180,0,0.9504919999999402,['y'],0.3564731000001302,1.904,2048.3124666,,,,,522,26,Woman,Right,
,,,,,,,,,,,,,,,,,522,26,Woman,Right,0,44,0.15,1,0,-,180,2.4386939000000893,['n'],0.5107711999999083,1.8900000000000001,2053.5624622,,,,,522,26,Woman,Right,
,,,,,,,,,,,,,,,,,522,26,Woman,Right,0,75,0.15,2,180,0,0,1.3544817000001785,['n'],0.6546959000002062,1.992,2057.8957945,,,,,522,26,Woman,Right,
,,,,,,,,,,,,,,,,,522,26,Woman,Right,0,61,0.15,2,0,180,0,3.083458800000244,['n'],0.5034034000000247,1.918,2064.1123855,,,,,522,26,Woman,Right,
,,,,,,,,,,,,,,,,,522,26,Woman,Right,0,35,0.4,2,180,0,180,1.5040837000001375,['n'],0.5582587999997486,1.69,2068.8959987,,,,,522,26,Woman,Right,
,,,,,,,,,,,,,,,,,522,26,Woman,Right,0,52,0.15,1,0,-,0,0.8557805999998891,['y'],0.8071403999997528,1.8639999999999999,2072.962344,,,,,522,26,Woman,Right,
,,,,,,,,,,,,,,,,,522,26,Woman,Right,0,24,0.4,1,0,-,0,0.8843485000002147,['n'],0.814672900000005,1.83,2077.6457683,,,,,522,26,Woman,Right,
,,,,,,,,,,,,,,,,,522,26,Woman,Right,0,11,0.4,2,180,0,180,0.7942738000001555,['y'],0.4706387999999606,1.896,2081.4957235,,,,,522,26,Woman,Right,
,,,,,,,,,,,,,,,,,522,26,Woman,Right,0,0,1,1,0,-,180,0.5186571999997796,['y'],0.4544006000000991,1.93,2084.7123681,,,,,522,26,Woman,Right,
,,,,,,,,,,,,,,,,,522,26,Woman,Right,0,58,0.15,1,180,-,180,0.7199095000000852,['y'],0.23041439999997237,1.97,2088.1791291,,,,,522,26,Woman,Right,
,,,,,,,,,,,,,,,,,522,26,Woman,Right,0,43,0.4,2,180,0,180,0.625766399999975,['y'],0.23862529999996696,1.982,2091.4965306,,,,,522,26,Woman,Right,
,,,,,,,,,,,,,,,,,522,26,Woman,Right,0,20,0.4,1,0,-,180,1.2291286999998192,['y'],0.43851360000007844,2.0,2095.5123792,,,,,522,26,Woman,Right,
,,,,,,,,,,,,,,,,,522,26,Woman,Right,0,12,0.4,1,0,-,180,1.2869269000002532,['n'],0.3510353000001487,1.87,2099.4124095,,,,,522,26,Woman,Right,
,,,,,,,,,,,,,,,,,522,26,Woman,Right,0,5,1,2,0,180,180,2.685926399999971,['y'],0.4944257000001926,1.978,2105.9623066,,,,,522,26,Woman,Right,
,,,,,,,,,,,,,,,,,522,26,Woman,Right,0,13,0.4,2,0,180,180,0.6339501000002201,['y'],0.44575829999985217,1.958,2109.5123357,,,,,522,26,Woman,Right,
,,,,,,,,,,,,,,,,,522,26,Woman,Right,0,55,0.15,2,180,0,180,0.5727501000001212,['y'],0.4464727999998104,1.058,2114.6123384,,,,,522,26,Woman,Right,
,,,,,,,,,,,,,,,,,522,26,Woman,Right,0,42,0.4,1,180,-,180,1.5201564999997572,['y'],0.5747555000002649,2.0,2119.278973,,,,,522,26,Woman,Right,
,,,,,,,,,,,,,,,,,522,26,Woman,Right,0,30,0.4,1,180,-,180,0.5519821000002594,['y'],0.4387426999996933,1.96,2122.662343,,,,,522,26,Woman,Right,
,,,,,,,,,,,,,,,,,522,26,Woman,Right,0,33,0.4,2,0,180,180,0.5197466999998142,['y'],0.31062919999976657,1.962,2126.0455975,,,,,522,26,Woman,Right,
,,,,,,,,,,,,,,,,,522,26,Woman,Right,0,78,0.15,1,180,-,180,2.127840699999979,['y'],1.0706843000002664,1.95,2131.8288835,,,,,522,26,Woman,Right,
,,,,,,,,,,,,,,,,,522,26,Woman,Right,0,29,0.4,2,0,180,180,0.489759800000229,['y'],0.4389184000001478,1.962,2135.2288786,,,,,522,26,Woman,Right,
,,,,,,,,,,,,,,,,,522,26,Woman,Right,0,62,0.15,1,180,-,180,0.9922636999999668,['y'],0.25487229999998817,1.924,2138.8798403,,,,,522,26,Woman,Right,
,,,,,,,,,,,,,,,,,522,26,Woman,Right,0,31,0.4,2,180,0,180,4.885740500000338,['y'],0.7028980999998566,1.974,2146.7622503000002,,,,,522,26,Woman,Right,
,,,,,,,,,,,,,,,,,522,26,Woman,Right,0,9,0.4,2,0,180,180,1.2438191000001098,['y'],0.4065807000001769,1.966,2151.1121998,,,,,522,26,Woman,Right,
,,,,,,,,,,,,,,,,,522,26,Woman,Right,0,34,0.4,1,180,-,180,1.2475420000000668,['y'],0.3580941999998686,1.952,2155.1790862000003,,,,,522,26,Woman,Right,
,,,,,,,,,,,,,,,,,522,26,Woman,Right,0,39,0.4,2,180,0,180,1.1132449999995515,['y'],0.18263960000058432,1.95,2158.9288801999996,,,,,522,26,Woman,Right,
,,,,,,,,,,,,,,,,,522,26,Woman,Right,0,25,0.4,2,0,180,180,0.8012137000005168,['y'],0.19051160000071832,1.968,2162.5788122,,,,,522,26,Woman,Right,
,,,,,,,,,,,,,,,,,522,26,Woman,Right,0,22,0.4,1,180,-,180,1.746197000000393,['y'],0.43892630000027566,1.912,2167.2121983,,,,,522,26,Woman,Right,
,,,,,,,,,,,,,,,,,522,26,Woman,Right,0,45,0.15,2,0,180,180,1.446570199999769,['y'],0.39849839999988035,1.916,2171.6288251,,,,,522,26,Woman,Right,
,,,,,,,,,,,,,,,,,522,26,Woman,Right,0,46,0.15,1,180,-,180,2.001516199999969,['n'],0.45532030000049417,1.908,2176.3457775,,,,,522,26,Woman,Right,
,,,,,,,,,,,,,,,,,522,26,Woman,Right,0,19,0.4,2,180,0,180,0.6765706999995018,['y'],0.3025043999996342,1.91,2179.5621212,,,,,522,26,Woman,Right,
,,,,,,,,,,,,,,,,,522,26,Woman,Right,0,68,0.15,1,0,-,180,0.8973962999998548,['n'],0.5903837999994721,1.904,2183.4787800999998,,,,,522,26,Woman,Right,
,,,,,,,,,,,,,,,,,522,26,Woman,Right,0,16,0.4,1,0,-,0,1.2319783000002644,['y'],0.5026556000002529,1.9,2187.4954506999998,,,,,522,26,Woman,Right,
,,,,,,,,,,,,,,,,,522,26,Woman,Right,0,6,1,1,180,-,0,2.070571199999904,['y'],0.7265575999999783,1.98,2192.812082,,,,,522,26,Woman,Right,
,,,,,,,,,,,,,,,,,522,26,Woman,Right,0,65,0.15,2,0,180,180,3.454398500000025,['n'],0.478760300000431,2.0,2199.4954319000003,,,,,522,26,Woman,Right,
,,,,,,,,,,,,,,,,,522,26,Woman,Right,0,67,0.15,2,180,0,180,0.5025530000002618,['n'],1.7908659000004263,1.978,2204.1786401000004,,,,,522,26,Woman,Right,
,,,,,,,,,,,,,,,,,522,26,Woman,Right,0,41,0.4,2,0,180,180,2.0079675999995743,['n'],0.6389890000000378,1.944,2209.1629645999997,,,,,522,26,Woman,Right,
,,,,,,,,,,,,,,,,,522,26,Woman,Right,0,36,0.4,1,0,-,0,0.8410396999997829,['y'],0.5822529999995822,1.944,2213.0787585000003,,,,,522,26,Woman,Right,
,,,,,,,,,,,,,,,,,522,26,Woman,Right,0,17,0.4,2,0,180,0,2.775977899999816,['n'],0.5025930000001608,1.802,2218.7455312999996,,,,,522,26,Woman,Right,
,,,,,,,,,,,,,,,,,522,26,Woman,Right,0,77,0.15,2,0,180,0,1.0059255000005578,['y'],3.702636799999709,1.962,2225.7952779,,,,,522,26,Woman,Right,
,,,,,,,,,,,,,,,,,522,26,Woman,Right,0,63,0.15,2,180,0,180,7.0820708000001105,['y'],1.9190521999998964,1.95,2237.0787535000004,,,,,522,26,Woman,Right,
,,,,,,,,,,,,,,,,,522,26,Woman,Right,0,72,0.15,1,0,-,0,0.6080890999992334,['y'],6.062748500000453,1.876,2246.4619319,,,,,522,26,Woman,Right,
,,,,,,,,,,,,,,,,,522,26,Woman,Right,0,2,1,1,180,-,180,2.680517100000543,['y'],1.982719000000543,1.976,2253.3786425000003,,,,,522,26,Woman,Right,
,,,,,,,,,,,,,,,,,522,26,Woman,Right,0,26,0.4,1,180,-,0,0.7880828999996083,['n'],0.5988069999993968,2.0,2257.5619605999996,,,,,522,26,Woman,Right,
,,,,,,,,,,,,,,,,,522,26,Woman,Right,0,18,0.4,1,180,-,0,0.8165270999998029,['n'],0.6067481999998563,1.996,2261.1954744,,,,,522,26,Woman,Right,
,,,,,,,,,,,,,,,,,522,26,Woman,Right,0,79,0.15,2,180,0,0,0.554084999999759,['n'],1.0465811000003669,1.9060000000000001,2265.0618928999997,,,,,522,26,Woman,Right,
,,,,,,,,,,,,,,,,,522,26,Woman,Right,0,14,0.4,1,180,-,0,0.5823406999998042,['n'],0.5507558999997855,1.892,2268.3619620000004,,,,,522,26,Woman,Right,
,,,,,,,,,,,,,,,,,522,26,Woman,Right,1,49,0.15,2,0,180,180,5.452551999999741,['n'],0.9428303999993659,1.8900000000000001,2301.628524,52.5,30.0,80.0,,522,26,Woman,Right,
,,,,,,,,,,,,,,,,,522,26,Woman,Right,1,66,0.15,1,180,-,180,2.650619099999858,['n'],1.1028373999997712,1.914,2307.6951267,,,,,522,26,Woman,Right,
,,,,,,,,,,,,,,,,,522,26,Woman,Right,1,17,0.4,2,0,180,0,2.1354212000005646,['n'],1.1669004000004861,1.912,2313.2286227,,,,,522,26,Woman,Right,
,,,,,,,,,,,,,,,,,522,26,Woman,Right,1,53,0.15,2,0,180,180,0.7221211999994921,['y'],0.5266842999999426,1.914,2316.7119583999997,,,,,522,26,Woman,Right,
,,,,,,,,,,,,,,,,,522,26,Woman,Right,1,64,0.15,1,0,-,180,1.6158640999992713,['n'],0.9503632000005382,1.934,2321.4950758,,,,,522,26,Woman,Right,
,,,,,,,,,,,,,,,,,522,26,Woman,Right,1,62,0.15,1,180,-,0,0.62675229999968,['n'],1.6307377000002816,1.94,2326.3950793999998,,,,,522,26,Woman,Right,
,,,,,,,,,,,,,,,,,522,26,Woman,Right,1,30,0.4,1,180,-,0,1.6666801999999734,['n'],1.1187115999991875,1.866,2331.3450698,,,,,522,26,Woman,Right,
,,,,,,,,,,,,,,,,,522,26,Woman,Right,1,71,0.15,2,180,0,180,1.4622975000002043,['y'],0.24640359999921202,1.912,2335.2284216000003,,,,,522,26,Woman,Right,
,,,,,,,,,,,,,,,,,522,26,Woman,Right,1,72,0.15,1,0,-,180,1.1393407000005027,['y'],0.43950610000047163,1.912,2335.2284216000003,,,,,522,26,Woman,Right,
,,,,,,,,,,,,,,,,,522,26,Woman,Right,1,18,0.4,1,180,-,180,0.9443301000001156,['y'],0.5667739000000438,1.5,2342.2735160999996,,,,,522,26,Woman,Right,
,,,,,,,,,,,,,,,,,522,26,Woman,Right,1,11,0.4,2,180,0,180,0.5834337000005689,['y'],0.5541625999994721,1.8479999999999999,2346.6617192999997,,,,,522,26,Woman,Right,
,,,,,,,,,,,,,,,,,522,26,Woman,Right,1,8,0.4,1,0,-,180,0.5062459999999191,['y'],2.1190290000004097,1.79,2351.4950187,,,,,522,26,Woman,Right,
,,,,,,,,,,,,,,,,,522,26,Woman,Right,1,23,0.4,2,180,0,180,1.319754300000568,['y'],0.5186736999994537,1.966,2356.0116516000003,,,,,522,26,Woman,Right,
,,,,,,,,,,,,,,,,,522,26,Woman,Right,1,24,0.4,1,0,-,180,0.7467495999999301,['y'],1.3107939999999871,2.0,2360.5618234999997,,,,,522,26,Woman,Right,
,,,,,,,,,,,,,,,,,522,26,Woman,Right,1,58,0.15,1,180,-,180,0.877429299999676,['y'],1.1345123000000967,1.978,2364.728264,,,,,522,26,Woman,Right,
,,,,,,,,,,,,,,,,,522,26,Woman,Right,1,74,0.15,1,180,-,180,1.311820799999623,['y'],0.42280140000002575,1.978,2364.728264,,,,,522,26,Woman,Right,
,,,,,,,,,,,,,,,,,522,26,Woman,Right,1,48,0.15,1,0,-,180,0.8511433000003308,['y'],0.4863328999999794,1.8820000000000001,2372.3948265000004,,,,,522,26,Woman,Right,
,,,,,,,,,,,,,,,,,522,26,Woman,Right,1,63,0.15,2,180,0,0,1.155894000000444,['n'],0.7027790000001914,1.966,2376.9115733000003,,,,,522,26,Woman,Right,
,,,,,,,,,,,,,,,,,522,26,Woman,Right,1,55,0.15,2,180,0,0,0.40673830000014277,['n'],2.006893599999785,1.944,2381.8127065000003,,,,,522,26,Woman,Right,
,,,,,,,,,,,,,,,,,522,26,Woman,Right,1,38,0.4,1,180,-,0,1.586544299999332,['n'],1.3830461000006835,1.948,2386.9948597999996,,,,,522,26,Woman,Right,
,,,,,,,,,,,,,,,,,522,26,Woman,Right,1,61,0.15,2,0,180,180,2.2756208000000697,['y'],1.3826163000003362,2.0,2392.8951797000004,,,,,522,26,Woman,Right,
,,,,,,,,,,,,,,,,,522,26,Woman,Right,1,22,0.4,1,180,-,180,1.5441936000006535,['n'],0.6146169000003283,1.014,2398.2282253,,,,,522,26,Woman,Right,
,,,,,,,,,,,,,,,,,522,26,Woman,Right,1,65,0.15,2,0,180,0,0.7726228000001356,['n'],1.3429047999998147,1.892,2403.6281749000004,,,,,522,26,Woman,Right,
,,,,,,,,,,,,,,,,,522,26,Woman,Right,1,16,0.4,1,0,-,180,5.745986200000516,['y'],1.3828255999997054,1.87,2413.6115542000002,,,,,522,26,Woman,Right,
,,,,,,,,,,,,,,,,,522,26,Woman,Right,1,10,0.4,1,180,-,180,1.632878399999754,['y'],1.454689899999721,1.81,2418.9780826,,,,,522,26,Woman,Right,
,,,,,,,,,,,,,,,,,522,26,Woman,Right,1,43,0.4,2,180,0,0,0.32990870000048744,['y'],0.8627234000005046,1.808,2422.4617440999996,,,,,522,26,Woman,Right,
,,,,,,,,,,,,,,,,,522,26,Woman,Right,1,51,0.15,2,180,0,180,0.6169202000000951,['n'],0.5438450000001467,1.836,2425.8114763,,,,,522,26,Woman,Right,
,,,,,,,,,,,,,,,,,522,26,Woman,Right,1,52,0.15,1,0,-,0,0.30618109999977605,['n'],1.6311429999996108,1.812,2429.9949368000002,,,,,522,26,Woman,Right,
,,,,,,,,,,,,,,,,,522,26,Woman,Right,1,14,0.4,1,180,-,180,1.8061220999998113,['n'],0.9106881999996403,1.8439999999999999,2435.6781656999997,,,,,522,26,Woman,Right,
,,,,,,,,,,,,,,,,,522,26,Woman,Right,1,34,0.4,1,180,-,0,0.5133787000004304,['n'],1.1748790999999983,1.726,2440.0449935,,,,,522,26,Woman,Right,
,,,,,,,,,,,,,,,,,522,26,Woman,Right,1,40,0.4,1,0,-,0,0.7292890999997326,['y'],6.6708323000002565,1.876,2450.0447601,,,,,522,26,Woman,Right,
,,,,,,,,,,,,,,,,,522,26,Woman,Right,1,36,0.4,1,0,-,180,2.129703600000539,['n'],0.6945847000006324,1.8719999999999999,2455.2282757999997,,,,,522,26,Woman,Right,
,,,,,,,,,,,,,,,,,522,26,Woman,Right,1,41,0.4,2,0,180,0,1.035056299999269,['y'],0.5664497999996456,1.876,2459.1449727000004,,,,,522,26,Woman,Right,
,,,,,,,,,,,,,,,,,522,26,Woman,Right,1,4,1,1,0,-,180,1.2294482999996035,['y'],1.438816300000326,1.824,2464.4782692000003,,,,,522,26,Woman,Right,
,,,,,,,,,,,,,,,,,522,26,Woman,Right,1,50,0.15,1,180,-,180,0.9035084000006464,['y'],0.5508316000004925,1.82,2468.4781261000003,,,,,522,26,Woman,Right,
,,,,,,,,,,,,,,,,,522,26,Woman,Right,1,78,0.15,1,180,-,180,0.91320050000013,['y'],0.50271149999935,1.866,2472.1282462000004,,,,,522,26,Woman,Right,
,,,,,,,,,,,,,,,,,522,26,Woman,Right,1,1,1,2,0,180,180,0.8659971999995832,['y'],0.6151025999997728,1.972,2476.0624716999996,,,,,522,26,Woman,Right,
,,,,,,,,,,,,,,,,,522,26,Woman,Right,1,33,0.4,2,0,180,180,0.6271490999997695,['y'],0.6387185000003228,1.924,2479.7453379000003,,,,,522,26,Woman,Right,
,,,,,,,,,,,,,,,,,522,26,Woman,Right,1,13,0.4,2,0,180,180,0.6144296000002214,['y'],0.4547333999998955,1.944,2483.1446283,,,,,522,26,Woman,Right,
,,,,,,,,,,,,,,,,,522,26,Woman,Right,1,26,0.4,1,180,-,180,0.6338845999998739,['y'],0.3767989999996644,1.9,2487.0947567999997,,,,,522,26,Woman,Right,
,,,,,,,,,,,,,,,,,522,26,Woman,Right,1,59,0.15,2,180,0,180,0.36749110000073415,['y'],0.3031654999995226,1.8820000000000001,2490.028046,,,,,522,26,Woman,Right,
,,,,,,,,,,,,,,,,,522,26,Woman,Right,1,79,0.15,2,180,0,0,0.5797314999999799,['y'],0.3345649000002595,1.0,2494.5115006,,,,,522,26,Woman,Right,
,,,,,,,,,,,,,,,,,522,26,Woman,Right,1,19,0.4,2,180,0,180,0.38482870000007097,['y'],0.25507940000079543,1.0,2494.5115006,,,,,522,26,Woman,Right,
,,,,,,,,,,,,,,,,,522,26,Woman,Right,1,20,0.4,1,0,-,180,0.6705357000000731,['y'],0.5264328999992358,1.792,2502.3787832000003,,,,,522,26,Woman,Right,
,,,,,,,,,,,,,,,,,522,26,Woman,Right,1,7,1,2,180,0,0,1.1308259999996153,['y'],0.39127189999999246,1.9,2506.1945496000003,,,,,522,26,Woman,Right,
,,,,,,,,,,,,,,,,,522,26,Woman,Right,1,77,0.15,2,0,180,0,3.7701553999995667,['y'],1.9109631999999692,1.828,2514.3616269999998,,,,,522,26,Woman,Right,
,,,,,,,,,,,,,,,,,522,26,Woman,Right,1,69,0.15,2,0,180,180,0.2953371000003244,['y'],0.6871840000003431,1.838,2518.3614673999996,,,,,522,26,Woman,Right,
,,,,,,,,,,,,,,,,,522,26,Woman,Right,1,76,0.15,1,0,-,180,0.3348962999998548,['y'],0.31924530000014784,1.842,2521.5614407999997,,,,,522,26,Woman,Right,
,,,,,,,,,,,,,,,,,522,26,Woman,Right,1,42,0.4,1,180,-,180,1.2538883000006535,['y'],0.20678739999948448,1.854,2525.1945228,,,,,522,26,Woman,Right,
,,,,,,,,,,,,,,,,,522,26,Woman,Right,1,54,0.15,1,180,-,0,0.787891099999797,['y'],0.36644259999957285,1.854,2528.6280312000004,,,,,522,26,Woman,Right,
,,,,,,,,,,,,,,,,,522,26,Woman,Right,1,0,1,1,0,-,180,1.5132191000002422,['y'],0.20643790000031004,1.918,2532.5447327999996,,,,,522,26,Woman,Right,
,,,,,,,,,,,,,,,,,522,26,Woman,Right,1,60,0.15,1,0,-,0,1.2623442000003706,['y'],0.1909232999996675,1.054,2537.0111005000003,,,,,522,26,Woman,Right,
,,,,,,,,,,,,,,,,,522,26,Woman,Right,1,37,0.4,2,0,180,180,1.352339199999733,['n'],0.4787255000001096,1.832,2541.1787296999996,,,,,522,26,Woman,Right,
,,,,,,,,,,,,,,,,,522,26,Woman,Right,1,6,1,1,180,-,180,1.8209732000004806,['y'],0.502765699999145,2.0,2545.7777682,,,,,522,26,Woman,Right,
,,,,,,,,,,,,,,,,,522,26,Woman,Right,1,3,1,2,180,0,180,1.458531799999946,['y'],0.31062199999996665,1.998,2549.9111273000003,,,,,522,26,Woman,Right,
,,,,,,,,,,,,,,,,,522,26,Woman,Right,1,56,0.15,1,0,-,0,2.1584217999998145,['n'],1.0867661000002045,1.942,2555.5111309,,,,,522,26,Woman,Right,
,,,,,,,,,,,,,,,,,522,26,Woman,Right,1,21,0.4,2,0,180,180,1.3728282000001855,['y'],0.9587599999995291,1.91,2559.9777387,,,,,522,26,Woman,Right,
,,,,,,,,,,,,,,,,,522,26,Woman,Right,1,5,1,2,0,180,180,0.9720505999994202,['y'],0.5108143999996173,1.974,2563.6112074999996,,,,,522,26,Woman,Right,
,,,,,,,,,,,,,,,,,522,26,Woman,Right,1,31,0.4,2,180,0,180,0.3872019000000364,['y'],0.3106197000006432,2.0,2566.5623173999998,,,,,522,26,Woman,Right,
,,,,,,,,,,,,,,,,,522,26,Woman,Right,1,44,0.15,1,0,-,180,2.0601560999994035,['y'],0.27892119999978604,1.958,2571.1444300999997,,,,,522,26,Woman,Right,
,,,,,,,,,,,,,,,,,522,26,Woman,Right,1,73,0.15,2,0,180,180,0.5918963000003714,['y'],0.15053960000022926,1.97,2574.6612694,,,,,522,26,Woman,Right,
,,,,,,,,,,,,,,,,,522,26,Woman,Right,1,35,0.4,2,180,0,180,0.3050885000002381,['y'],0.15054379999946832,2.0,2577.5614331,,,,,522,26,Woman,Right,
,,,,,,,,,,,,,,,,,522,26,Woman,Right,1,75,0.15,2,180,0,180,0.3321676000005027,['y'],0.14283729999988282,1.998,2580.3613812999997,,,,,522,26,Woman,Right,
,,,,,,,,,,,,,,,,,522,26,Woman,Right,1,27,0.4,2,180,0,180,0.309855399999833,['y'],0.16703550000056566,2.0,2583.1777880000004,,,,,522,26,Woman,Right,
,,,,,,,,,,,,,,,,,522,26,Woman,Right,1,46,0.15,1,180,-,180,0.6506957000001421,['y'],0.5179640999995172,1.992,2586.8944175,,,,,522,26,Woman,Right,
,,,,,,,,,,,,,,,,,522,26,Woman,Right,1,28,0.4,1,0,-,0,0.28559000000041124,['y'],0.45493830000032176,1.944,2590.178228,,,,,522,26,Woman,Right,
,,,,,,,,,,,,,,,,,522,26,Woman,Right,1,12,0.4,1,0,-,0,0.883409500000198,['y'],0.5026351000005889,1.95,2593.8109542999996,,,,,522,26,Woman,Right,
,,,,,,,,,,,,,,,,,522,26,Woman,Right,1,15,0.4,2,180,0,180,0.515092900000127,['y'],0.2470549999998184,1.998,2596.8277869999997,,,,,522,26,Woman,Right,
,,,,,,,,,,,,,,,,,522,26,Woman,Right,1,57,0.15,2,0,180,180,0.7684242000004815,['y'],0.2307528999999704,1.942,2600.6611945,,,,,522,26,Woman,Right,
,,,,,,,,,,,,,,,,,522,26,Woman,Right,1,29,0.4,2,0,180,0,0.8416317000001072,['n'],2.27825539999958,1.974,2607.0276535,,,,,522,26,Woman,Right,
,,,,,,,,,,,,,,,,,522,26,Woman,Right,1,9,0.4,2,0,180,0,0.473817400000371,['y'],3.5188874000004944,1.92,2613.3611898000004,,,,,522,26,Woman,Right,
,,,,,,,,,,,,,,,,,522,26,Woman,Right,1,32,0.4,1,0,-,0,2.4259036000003107,['y'],2.10360910000054,1.978,2620.2943157000004,,,,,522,26,Woman,Right,
,,,,,,,,,,,,,,,,,522,26,Woman,Right,1,45,0.15,2,0,180,0,1.583893299999545,['n'],0.6064634000003934,1.932,2624.5944624,,,,,522,26,Woman,Right,
,,,,,,,,,,,,,,,,,522,26,Woman,Right,1,67,0.15,2,180,0,0,1.596523100000013,['n'],0.6227195000001302,1.8599999999999999,2628.9942816999996,,,,,522,26,Woman,Right,
,,,,,,,,,,,,,,,,,522,26,Woman,Right,1,2,1,1,180,-,0,0.5810805999999502,['n'],0.6229584000002433,1.912,2632.5776325,,,,,522,26,Woman,Right,
,,,,,,,,,,,,,,,,,522,26,Woman,Right,1,47,0.15,2,180,0,0,1.8002427000001262,['n'],0.4685743000000002,1.926,2637.4775393000004,,,,,522,26,Woman,Right,
,,,,,,,,,,,,,,,,,522,26,Woman,Right,1,39,0.4,2,180,0,0,0.5775034999996933,['n'],0.9983615999999529,1.91,2641.3113356,,,,,522,26,Woman,Right,
,,,,,,,,,,,,,,,,,522,26,Woman,Right,1,25,0.4,2,0,180,0,3.0838202000004458,['n'],0.7682174000001396,1.94,2647.3109007999997,,,,,522,26,Woman,Right,
,,,,,,,,,,,,,,,,,522,26,Woman,Right,1,70,0.15,1,180,-,0,0.5273792999996658,['n'],0.726918299999852,1.92,2650.6108405,,,,,522,26,Woman,Right,
,,,,,,,,,,,,,,,,,522,26,Woman,Right,1,68,0.15,1,0,-,180,1.076611600000433,['n'],0.6305543999997099,1.88,2654.4942257999996,,,,,522,26,Woman,Right,
,,,,,,,,,,,,,,,,,522,26,Woman,Right,2,5,1,2,0,180,180,1.4149205000003349,['y'],0.8148390999995172,2.0,2671.1453079999997,50.0,35.0,67.5,,522,26,Woman,Right,
,,,,,,,,,,,,,,,,,522,26,Woman,Right,2,61,0.15,2,0,180,180,0.6597179999998843,['y'],0.35078449999946315,1.988,2674.477507,,,,,522,26,Woman,Right,
,,,,,,,,,,,,,,,,,522,26,Woman,Right,2,68,0.15,1,0,-,180,0.46407600000020466,['y'],0.25487410000005184,1.974,2677.6778756,,,,,522,26,Woman,Right,
,,,,,,,,,,,,,,,,,522,26,Woman,Right,2,34,0.4,1,180,-,180,0.3348356000005879,['y'],0.27073590000054537,1.974,2680.5108075000003,,,,,522,26,Woman,Right,
,,,,,,,,,,,,,,,,,522,26,Woman,Right,2,20,0.4,1,0,-,0,1.2789591000000655,['n'],0.6787789999998495,1.896,2685.2608169,,,,,522,26,Woman,Right,
,,,,,,,,,,,,,,,,,522,26,Woman,Right,2,31,0.4,2,180,0,180,0.3438589999996111,['y'],0.28735539999979665,1.916,2688.0608413000004,,,,,522,26,Woman,Right,
,,,,,,,,,,,,,,,,,522,26,Woman,Right,2,78,0.15,1,180,-,0,1.4019465000001219,['n'],0.5268739000002824,1.892,2692.1775075,,,,,522,26,Woman,Right,
,,,,,,,,,,,,,,,,,522,26,Woman,Right,2,53,0.15,2,0,180,180,1.5645266000001357,['y'],0.23878749999948923,1.892,2696.2440435000003,,,,,522,26,Woman,Right,
,,,,,,,,,,,,,,,,,522,26,Woman,Right,2,6,1,1,180,-,180,0.7054433000002973,['y'],0.22257639999952517,1.912,2699.3607475000003,,,,,522,26,Woman,Right,
,,,,,,,,,,,,,,,,,522,26,Woman,Right,2,63,0.15,2,180,0,0,0.8062684000005902,['n'],0.726494399999865,2.0,2703.1773575,,,,,522,26,Woman,Right,
,,,,,,,,,,,,,,,,,522,26,Woman,Right,2,37,0.4,2,0,180,180,0.4504197000005661,['y'],0.24633119999998598,1.93,2706.1607360000003,,,,,522,26,Woman,Right,
,,,,,,,,,,,,,,,,,522,26,Woman,Right,2,1,1,2,0,180,180,0.2758579000001191,['y'],0.20679070000005595,1.91,2708.9774117,,,,,522,26,Woman,Right,
,,,,,,,,,,,,,,,,,522,26,Woman,Right,2,3,1,2,180,0,180,0.2934229000002233,['y'],0.1905802000001131,2.0,2712.2940769,,,,,522,26,Woman,Right,
,,,,,,,,,,,,,,,,,522,26,Woman,Right,2,42,0.4,1,180,-,0,0.5599047000005157,['y'],0.23854060000030586,1.0,2716.8608872,,,,,522,26,Woman,Right,
,,,,,,,,,,,,,,,,,522,26,Woman,Right,2,12,0.4,1,0,-,0,2.0876869000003353,['n'],0.647271499999988,1.958,2722.2441013000002,,,,,522,26,Woman,Right,
,,,,,,,,,,,,,,,,,522,26,Woman,Right,2,43,0.4,2,180,0,180,1.4192669000003661,['n'],0.7428122999999687,2.0,2726.9773364,,,,,522,26,Woman,Right,
,,,,,,,,,,,,,,,,,522,26,Woman,Right,2,62,0.15,1,180,-,0,0.582095699999627,['n'],0.5990255999995497,1.968,2730.4440984999997,,,,,522,26,Woman,Right,
,,,,,,,,,,,,,,,,,522,26,Woman,Right,2,24,0.4,1,0,-,0,0.7219495999997889,['n'],0.7027937000002566,1.968,2730.4440984999997,,,,,522,26,Woman,Right,
,,,,,,,,,,,,,,,,,522,26,Woman,Right,2,60,0.15,1,0,-,0,3.2901588000004267,['n'],2.5907728000001953,1.972,2742.0939949999997,,,,,522,26,Woman,Right,
,,,,,,,,,,,,,,,,,522,26,Woman,Right,2,36,0.4,1,0,-,180,0.3526979999996911,['y'],1.9190148000006957,1.558,2748.1106221000005,,,,,522,26,Woman,Right,
,,,,,,,,,,,,,,,,,522,26,Woman,Right,2,0,1,1,0,-,180,0.8919797999997172,['y'],0.4546969999992143,1.946,2751.9609293999997,,,,,522,26,Woman,Right,
,,,,,,,,,,,,,,,,,522,26,Woman,Right,2,30,0.4,1,180,-,180,0.5020133999996688,['y'],0.20697459999973944,1.95,2754.9108604999997,,,,,522,26,Woman,Right,
,,,,,,,,,,,,,,,,,522,26,Woman,Right,2,39,0.4,2,180,0,180,0.4174637000005532,['y'],0.21480610000071465,1.996,2757.8773274,,,,,522,26,Woman,Right,
,,,,,,,,,,,,,,,,,522,26,Woman,Right,2,8,0.4,1,0,-,180,0.3432922000001781,['y'],0.16706459999932122,1.854,2760.6446051999997,,,,,522,26,Woman,Right,
,,,,,,,,,,,,,,,,,522,26,Woman,Right,2,28,0.4,1,0,-,0,1.3150651000005382,['y'],0.2383432000005996,1.16,2765.4104887999997,,,,,522,26,Woman,Right,
,,,,,,,,,,,,,,,,,522,26,Woman,Right,2,9,0.4,2,0,180,180,1.356661000000713,['y'],0.230752699999357,1.76,2769.3438770999996,,,,,522,26,Woman,Right,
,,,,,,,,,,,,,,,,,522,26,Woman,Right,2,26,0.4,1,180,-,180,0.31885089999923366,['y'],0.19863139999961277,1.9020000000000001,2772.6605619999996,,,,,522,26,Woman,Right,
,,,,,,,,,,,,,,,,,522,26,Woman,Right,2,73,0.15,2,0,180,0,0.45249990000047546,['n'],1.295034100000521,1.9020000000000001,2772.6605619999996,,,,,522,26,Woman,Right,
,,,,,,,,,,,,,,,,,522,26,Woman,Right,2,38,0.4,1,180,-,0,0.3305267999994612,['n'],1.1989692999995896,1.182,2782.3775745,,,,,522,26,Woman,Right,
,,,,,,,,,,,,,,,,,522,26,Woman,Right,2,66,0.15,1,180,-,0,0.25187819999973726,['y'],1.822547300000224,1.8679999999999999,2789.6938618,,,,,522,26,Woman,Right,
,,,,,,,,,,,,,,,,,522,26,Woman,Right,2,75,0.15,2,180,0,0,0.0973746999998184,['y'],0.47089409999989584,1.8679999999999999,2789.6938618,,,,,522,26,Woman,Right,
,,,,,,,,,,,,,,,,,522,26,Woman,Right,2,48,0.15,1,0,-,0,1.2946635999996943,['y'],0.4155594000003475,1.83,2797.3940063000005,,,,,522,26,Woman,Right,
,,,,,,,,,,,,,,,,,522,26,Woman,Right,2,50,0.15,1,180,-,180,1.3736587000003055,['y'],0.2704596000003221,1.792,2801.3438704000005,,,,,522,26,Woman,Right,
,,,,,,,,,,,,,,,,,522,26,Woman,Right,2,56,0.15,1,0,-,0,0.016662500000165892,['y'],0.46107840000058786,1.834,2803.9271452,,,,,522,26,Woman,Right,
,,,,,,,,,,,,,,,,,522,26,Woman,Right,2,29,0.4,2,0,180,0,0.14348299999983283,['y'],0.6552883000003931,1.808,2806.9105012000005,,,,,522,26,Woman,Right,
,,,,,,,,,,,,,,,,,522,26,Woman,Right,2,67,0.15,2,180,0,0,0.5199812000000748,['y'],0.2549474999996164,1.818,2809.7437136000003,,,,,522,26,Woman,Right,
,,,,,,,,,,,,,,,,,522,26,Woman,Right,2,55,0.15,2,180,0,0,0.10152790000029199,['y'],0.2788087999997515,1.83,2812.1949462999996,,,,,522,26,Woman,Right,
,,,,,,,,,,,,,,,,,522,26,Woman,Right,2,59,0.15,2,180,0,0,0.13602410000021337,['y'],0.7911574999998265,1.83,2815.5605319,,,,,522,26,Woman,Right,
,,,,,,,,,,,,,,,,,522,26,Woman,Right,2,32,0.4,1,0,-,180,0.03169579999939742,['y'],0.36657480000030773,1.836,2817.8771180999997,,,,,522,26,Woman,Right,
,,,,,,,,,,,,,,,,,522,26,Woman,Right,2,44,0.15,1,0,-,180,0.2534473000005164,['y'],0.17489840000052936,1.836,2821.2107811,,,,,522,26,Woman,Right,
,,,,,,,,,,,,,,,,,522,26,Woman,Right,2,46,0.15,1,180,-,0,0.34282210000037594,['y'],0.3749665000004825,1.836,2824.6272071,,,,,522,26,Woman,Right,
,,,,,,,,,,,,,,,,,522,26,Woman,Right,2,17,0.4,2,0,180,180,1.1334209999995437,['n'],0.8869748000006439,1.064,2830.1770996,,,,,522,26,Woman,Right,
,,,,,,,,,,,,,,,,,522,26,Woman,Right,2,76,0.15,1,0,-,180,1.2307737999999517,['y'],0.5508303000005981,1.8900000000000001,2834.7937594,,,,,522,26,Woman,Right,
,,,,,,,,,,,,,,,,,522,26,Woman,Right,2,74,0.15,1,180,-,0,0.3414225999995324,['y'],0.5905570000004445,1.956,2837.8939481,,,,,522,26,Woman,Right,
,,,,,,,,,,,,,,,,,522,26,Woman,Right,2,47,0.15,2,180,0,180,1.455906799999866,['n'],0.6629579999998896,1.782,2842.3270825000004,,,,,522,26,Woman,Right,
,,,,,,,,,,,,,,,,,522,26,Woman,Right,2,14,0.4,1,180,-,0,0.7996840999994674,['n'],0.5504812999997739,1.782,2842.3270825000004,,,,,522,26,Woman,Right,
,,,,,,,,,,,,,,,,,522,26,Woman,Right,2,40,0.4,1,0,-,0,0.3171809999994366,['n'],0.5172183000004225,1.792,2848.9437111,,,,,522,26,Woman,Right,
,,,,,,,,,,,,,,,,,522,26,Woman,Right,2,45,0.15,2,0,180,0,0.28711919999932434,['n'],0.4949989999995523,1.792,2848.9437111,,,,,522,26,Woman,Right,
,,,,,,,,,,,,,,,,,522,26,Woman,Right,2,15,0.4,2,180,0,0,0.43546909999986383,['n'],0.7673690000001443,1.5,2854.6968307,,,,,522,26,Woman,Right,
,,,,,,,,,,,,,,,,,522,26,Woman,Right,2,77,0.15,2,0,180,180,0.2632761999993818,['n'],0.49483559999953286,1.854,2858.1106052,,,,,522,26,Woman,Right,
,,,,,,,,,,,,,,,,,522,26,Woman,Right,2,21,0.4,2,0,180,0,0.01674379999985831,['n'],0.5368464000002859,1.8780000000000001,2861.0770338999996,,,,,522,26,Woman,Right,
,,,,,,,,,,,,,,,,,522,26,Woman,Right,2,11,0.4,2,180,0,0,0.016792700000223704,['n'],0.4711605000002237,1.858,2863.7936225999997,,,,,522,26,Woman,Right,
,,,,,,,,,,,,,,,,,522,26,Woman,Right,2,65,0.15,2,0,180,0,0.40329490000021906,['n'],0.43108699999993405,1.232,2868.2437041999997,,,,,522,26,Woman,Right,
,,,,,,,,,,,,,,,,,522,26,Woman,Right,2,49,0.15,2,0,180,0,0.3709323000002769,['n'],0.5433490000004895,1.81,2871.7937024999997,,,,,522,26,Woman,Right,
,,,,,,,,,,,,,,,,,522,26,Woman,Right,2,52,0.15,1,0,-,0,0.01675890000024083,['n'],0.6513727000001381,1.842,2874.6104786,,,,,522,26,Woman,Right,
,,,,,,,,,,,,,,,,,522,26,Woman,Right,2,79,0.15,2,180,0,0,0.016698699999324162,['n'],0.5219648000002053,1.818,2877.4271901999996,,,,,522,26,Woman,Right,
,,,,,,,,,,,,,,,,,522,26,Woman,Right,2,58,0.15,1,180,-,0,0.016712200000256416,['n'],0.4974999000005482,1.814,2880.5280009000003,,,,,522,26,Woman,Right,
,,,,,,,,,,,,,,,,,522,26,Woman,Right,2,72,0.15,1,0,-,180,0.016757000000325206,['n'],0.5488900999998805,1.84,2883.5269808999997,,,,,522,26,Woman,Right,
,,,,,,,,,,,,,,,,,522,26,Woman,Right,2,13,0.4,2,0,180,0,0.2366226000003735,['n'],0.3674213000003874,1.8439999999999999,2886.6769736,,,,,522,26,Woman,Right,
,,,,,,,,,,,,,,,,,522,26,Woman,Right,2,71,0.15,2,180,0,0,1.1451346000003468,['n'],0.6946084000001065,1.83,2892.1935629000004,,,,,522,26,Woman,Right,
,,,,,,,,,,,,,,,,,522,26,Woman,Right,2,64,0.15,1,0,-,180,1.9734350999997332,['y'],2.0629534999998214,1.846,2898.9269031,,,,,522,26,Woman,Right,
,,,,,,,,,,,,,,,,,522,26,Woman,Right,2,35,0.4,2,180,0,180,0.5915998999998919,['y'],0.4947701999999481,1.858,2902.1269436,,,,,522,26,Woman,Right,
,,,,,,,,,,,,,,,,,522,26,Woman,Right,2,57,0.15,2,0,180,180,0.4316350999997667,['y'],0.2548496999997951,1.874,2904.9768553,,,,,522,26,Woman,Right,
,,,,,,,,,,,,,,,,,522,26,Woman,Right,2,7,1,2,180,0,0,1.250562500000342,['y'],0.3224777000004906,1.908,2908.6935222999996,,,,,522,26,Woman,Right,
,,,,,,,,,,,,,,,,,522,26,Woman,Right,2,41,0.4,2,0,180,180,0.4635889999999563,['y'],0.2786283999994339,1.98,2911.6268409,,,,,522,26,Woman,Right,
,,,,,,,,,,,,,,,,,522,26,Woman,Right,2,2,1,1,180,-,180,0.3308981000000131,['y'],0.18306680000023334,1.948,2914.7777311000004,,,,,522,26,Woman,Right,
,,,,,,,,,,,,,,,,,522,26,Woman,Right,2,10,0.4,1,180,-,180,0.32817700000032346,['y'],0.17516299999988405,1.952,2917.6768430999996,,,,,522,26,Woman,Right,
,,,,,,,,,,,,,,,,,522,26,Woman,Right,2,23,0.4,2,180,0,180,1.992381000000023,['y'],0.14263490000030288,1.95,2922.0601832999996,,,,,522,26,Woman,Right,
,,,,,,,,,,,,,,,,,522,26,Woman,Right,2,25,0.4,2,0,180,180,0.346328600000561,['y'],0.15854549999949086,1.984,2924.7770615000004,,,,,522,26,Woman,Right,
,,,,,,,,,,,,,,,,,522,26,Woman,Right,2,4,1,1,0,-,0,0.5802938999995604,['y'],0.1749751000006654,1.866,2927.8267667000005,,,,,522,26,Woman,Right,
,,,,,,,,,,,,,,,,,522,26,Woman,Right,2,19,0.4,2,180,0,0,1.2460801999995965,['y'],0.29480660000081116,1.866,2931.6768894,,,,,522,26,Woman,Right,
,,,,,,,,,,,,,,,,,522,26,Woman,Right,2,27,0.4,2,180,0,0,0.552784999999858,['y'],0.26321400000051653,1.866,2934.6434605,,,,,522,26,Woman,Right,
,,,,,,,,,,,,,,,,,522,26,Woman,Right,2,51,0.15,2,180,0,180,1.467540800000279,['y'],0.15886199999931705,1.1360000000000001,2939.6438010999996,,,,,522,26,Woman,Right,
,,,,,,,,,,,,,,,,,522,26,Woman,Right,2,69,0.15,2,0,180,0,0.6405058999998801,['n'],0.6549896999995326,1.788,2943.577154,,,,,522,26,Woman,Right,
,,,,,,,,,,,,,,,,,522,26,Woman,Right,2,70,0.15,1,180,-,180,0.9334066000001258,['n'],0.15773280000030354,1.6059999999999999,2948.3434118,,,,,522,26,Woman,Right,
,,,,,,,,,,,,,,,,,522,26,Woman,Right,2,54,0.15,1,180,-,180,1.2072516000007454,['n'],0.5426827999999659,1.862,2952.4767624,,,,,522,26,Woman,Right,
,,,,,,,,,,,,,,,,,522,26,Woman,Right,2,16,0.4,1,0,-,0,4.92956520000007,['y'],1.3669072000002416,1.802,2961.0767607000002,,,,,522,26,Woman,Right,
,,,,,,,,,,,,,,,,,522,26,Woman,Right,2,22,0.4,1,180,-,180,1.545225400000163,['y'],1.0945625999993354,1.888,2966.2101047,,,,,522,26,Woman,Right,
,,,,,,,,,,,,,,,,,522,26,Woman,Right,2,33,0.4,2,0,180,180,0.4169726999998602,['y'],0.21091720000003988,1.85,2968.9600498000004,,,,,522,26,Woman,Right,
,,,,,,,,,,,,,,,,,522,26,Woman,Right,2,18,0.4,1,180,-,180,0.3993678999995609,['y'],0.2624578000004476,1.826,2971.8767593,,,,,522,26,Woman,Right,
,,,,,,,,,,,,,,,,,522,26,Woman,Right,3,47,0.15,2,180,0,0,0.18841489999977057,['y'],0.6867560000000594,1.804,2976.8937369,57.5,35.0,60.0,,522,26,Woman,Right,
,,,,,,,,,,,,,,,,,522,26,Woman,Right,3,34,0.4,1,180,-,180,1.0399619999998322,['y'],0.29462749999947846,1.804,2976.8937369,,,,,522,26,Woman,Right,
,,,,,,,,,,,,,,,,,522,26,Woman,Right,3,21,0.4,2,0,180,180,0.7209598999997979,['n'],0.542905499999506,1.7,2984.9766609000003,,,,,522,26,Woman,Right,
,,,,,,,,,,,,,,,,,522,26,Woman,Right,3,65,0.15,2,0,180,180,1.0224442000007912,['y'],0.2707893000006152,1.196,2989.2432923,,,,,522,26,Woman,Right,
,,,,,,,,,,,,,,,,,522,26,Woman,Right,3,52,0.15,1,0,-,180,1.9397296999995888,['n'],0.5748723000006066,1.9,2993.8766817,,,,,522,26,Woman,Right,
,,,,,,,,,,,,,,,,,522,26,Woman,Right,3,60,0.15,1,0,-,0,1.57869699999992,['y'],1.4305162000000564,1.822,2999.0099609000004,,,,,522,26,Woman,Right,
,,,,,,,,,,,,,,,,,522,26,Woman,Right,3,46,0.15,1,180,-,180,0.9243918999991365,['n'],0.5027323999993314,1.8639999999999999,3002.7102854,,,,,522,26,Woman,Right,
,,,,,,,,,,,,,,,,,522,26,Woman,Right,3,78,0.15,1,180,-,0,0.7167725999997856,['n'],0.7792734999993627,1.862,3006.4610401000004,,,,,522,26,Woman,Right,
,,,,,,,,,,,,,,,,,522,26,Woman,Right,3,48,0.15,1,0,-,0,0.6001016999998683,['n'],0.673842500000319,1.84,3009.9266312000004,,,,,522,26,Woman,Right,
,,,,,,,,,,,,,,,,,522,26,Woman,Right,3,64,0.15,1,0,-,0,0.18180870000014693,['n'],0.8067495000004783,1.9020000000000001,3013.0766230000004,,,,,522,26,Woman,Right,
,,,,,,,,,,,,,,,,,522,26,Woman,Right,3,66,0.15,1,180,-,0,0.4103183999995963,['n'],0.31123029999980645,1.88,3015.910034,,,,,522,26,Woman,Right,
,,,,,,,,,,,,,,,,,522,26,Woman,Right,3,42,0.4,1,180,-,0,0.2414755999998306,['n'],0.3430590999996639,1.8719999999999999,3018.5768409999996,,,,,522,26,Woman,Right,
,,,,,,,,,,,,,,,,,522,26,Woman,Right,3,25,0.4,2,0,180,0,0.10972419999961858,['n'],0.27114480000000185,1.9020000000000001,3021.0766918000004,,,,,522,26,Woman,Right,
,,,,,,,,,,,,,,,,,522,26,Woman,Right,3,36,0.4,1,0,-,180,0.48129470000003494,['n'],0.19062059999941994,1.85,3023.9599169999997,,,,,522,26,Woman,Right,
,,,,,,,,,,,,,,,,,522,26,Woman,Right,3,75,0.15,2,180,0,180,0.6225751000001765,['n'],0.2144733000004635,1.8980000000000001,3027.3265767999997,,,,,522,26,Woman,Right,
,,,,,,,,,,,,,,,,,522,26,Woman,Right,3,3,1,2,180,0,0,0.6071531000006871,['y'],0.7667743000001792,1.8820000000000001,3030.8599387,,,,,522,26,Woman,Right,
,,,,,,,,,,,,,,,,,522,26,Woman,Right,3,18,0.4,1,180,-,180,0.39986059999955614,['y'],0.7187785999994958,1.8519999999999999,3034.3100969,,,,,522,26,Woman,Right,
,,,,,,,,,,,,,,,,,522,26,Woman,Right,3,49,0.15,2,0,180,0,0.5597960000004605,['y'],0.3667757999992318,1.8980000000000001,3037.3266000999997,,,,,522,26,Woman,Right,
,,,,,,,,,,,,,,,,,522,26,Woman,Right,3,20,0.4,1,0,-,180,0.7527712999999494,['y'],0.21448830000008456,1.8820000000000001,3040.8264929,,,,,522,26,Woman,Right,
,,,,,,,,,,,,,,,,,522,26,Woman,Right,3,40,0.4,1,0,-,180,0.4143698999996559,['y'],0.5594687000002523,1.8820000000000001,3040.8264929,,,,,522,26,Woman,Right,
,,,,,,,,,,,,,,,,,522,26,Woman,Right,3,5,1,2,0,180,180,0.42499080000015965,['y'],0.22308630000043195,1.5,3046.4083444000003,,,,,522,26,Woman,Right,
,,,,,,,,,,,,,,,,,522,26,Woman,Right,3,62,0.15,1,180,-,180,0.5287740000003396,['y'],0.2713509000004706,1.8679999999999999,3050.1431951,,,,,522,26,Woman,Right,
,,,,,,,,,,,,,,,,,522,26,Woman,Right,3,14,0.4,1,180,-,180,0.16784590000042954,['y'],0.3429210000003877,1.908,3052.7765080000004,,,,,522,26,Woman,Right,
,,,,,,,,,,,,,,,,,522,26,Woman,Right,3,37,0.4,2,0,180,180,0.3339204999992944,['y'],0.25501489999987825,1.8559999999999999,3055.5600298000004,,,,,522,26,Woman,Right,
,,,,,,,,,,,,,,,,,522,26,Woman,Right,3,33,0.4,2,0,180,180,0.4959091000000626,['y'],0.20678099999986443,1.842,3058.4264246999996,,,,,522,26,Woman,Right,
,,,,,,,,,,,,,,,,,522,26,Woman,Right,3,31,0.4,2,180,0,180,0.3128247000004194,['y'],0.19865759999993315,1.842,3058.4264246999996,,,,,522,26,Woman,Right,
,,,,,,,,,,,,,,,,,522,26,Woman,Right,3,15,0.4,2,180,0,180,0.4205689000000348,['y'],0.2226479000000836,1.918,3064.3436114,,,,,522,26,Woman,Right,
,,,,,,,,,,,,,,,,,522,26,Woman,Right,3,29,0.4,2,0,180,180,0.3425643000000491,['y'],0.5347173999998631,1.952,3067.3931638999998,,,,,522,26,Woman,Right,
,,,,,,,,,,,,,,,,,522,26,Woman,Right,3,41,0.4,2,0,180,180,0.3168609000003926,['y'],0.230440099999214,1.904,3070.6940292000004,,,,,522,26,Woman,Right,
,,,,,,,,,,,,,,,,,522,26,Woman,Right,3,6,1,1,180,-,180,0.40830040000037116,['y'],0.23075479999988602,1.94,3073.4931087,,,,,522,26,Woman,Right,
,,,,,,,,,,,,,,,,,522,26,Woman,Right,3,79,0.15,2,180,0,180,0.34421870000005583,['y'],0.19886250000035943,1.916,3076.2264911999996,,,,,522,26,Woman,Right,
,,,,,,,,,,,,,,,,,522,26,Woman,Right,3,70,0.15,1,180,-,180,0.6752936000002592,['y'],0.182559200000469,1.88,3079.3269662999996,,,,,522,26,Woman,Right,
,,,,,,,,,,,,,,,,,522,26,Woman,Right,3,19,0.4,2,180,0,180,0.6161390000006577,['y'],0.23845580000033806,1.892,3082.6264316,,,,,522,26,Woman,Right,
,,,,,,,,,,,,,,,,,522,26,Woman,Right,3,53,0.15,2,0,180,0,0.4119387000000643,['n'],0.3188406999997824,1.874,3086.2273127000003,,,,,522,26,Woman,Right,
,,,,,,,,,,,,,,,,,522,26,Woman,Right,3,77,0.15,2,0,180,180,0.9338870000001407,['n'],0.7808863000000201,1.932,3089.9932557999996,,,,,522,26,Woman,Right,
,,,,,,,,,,,,,,,,,522,26,Woman,Right,3,28,0.4,1,0,-,180,0.2679961000003459,['n'],1.606826700000056,1.804,3094.3099681999997,,,,,522,26,Woman,Right,
,,,,,,,,,,,,,,,,,522,26,Woman,Right,3,23,0.4,2,180,0,0,0.43108440000014525,['n'],0.5428071999995154,1.8439999999999999,3097.9099823,,,,,522,26,Woman,Right,
,,,,,,,,,,,,,,,,,522,26,Woman,Right,3,69,0.15,2,0,180,180,0.2397688000000926,['y'],0.23889360000066517,1.8900000000000001,3100.6269233,,,,,522,26,Woman,Right,
,,,,,,,,,,,,,,,,,522,26,Woman,Right,3,17,0.4,2,0,180,180,0.04386330000033922,['y'],0.26318890000038664,1.8719999999999999,3103.1930000999996,,,,,522,26,Woman,Right,
,,,,,,,,,,,,,,,,,522,26,Woman,Right,3,57,0.15,2,0,180,180,0.283059499999581,['y'],0.15086059999975987,1.8719999999999999,3105.7096585000004,,,,,522,26,Woman,Right,
,,,,,,,,,,,,,,,,,522,26,Woman,Right,3,45,0.15,2,0,180,180,0.34984259999964706,['y'],0.16686550000031275,1.8719999999999999,3108.3265746,,,,,522,26,Woman,Right,
,,,,,,,,,,,,,,,,,522,26,Woman,Right,3,8,0.4,1,0,-,180,1.2138117999993483,['n'],0.6871372000005067,1.8719999999999999,3112.3264307000004,,,,,522,26,Woman,Right,
,,,,,,,,,,,,,,,,,522,26,Woman,Right,3,58,0.15,1,180,-,180,0.2853864999997313,['n'],0.2470164999995177,1.8719999999999999,3114.9429668999996,,,,,522,26,Woman,Right,
,,,,,,,,,,,,,,,,,522,26,Woman,Right,3,22,0.4,1,180,-,180,0.021774699999696168,['n'],0.8948567000006733,1.8719999999999999,3118.1930227,,,,,522,26,Woman,Right,
,,,,,,,,,,,,,,,,,522,26,Woman,Right,3,74,0.15,1,180,-,180,0.4239043000006859,['n'],0.35115330000007816,1.8719999999999999,3121.1767796,,,,,522,26,Woman,Right,
,,,,,,,,,,,,,,,,,522,26,Woman,Right,3,24,0.4,1,0,-,180,0.17217259999961243,['n'],0.9345604000000094,1.8719999999999999,3124.8264133,,,,,522,26,Woman,Right,
,,,,,,,,,,,,,,,,,522,26,Woman,Right,3,72,0.15,1,0,-,180,0.9046905999994124,['n'],0.3107295999998314,1.8719999999999999,3128.8262345999997,,,,,522,26,Woman,Right,
,,,,,,,,,,,,,,,,,522,26,Woman,Right,3,35,0.4,2,180,0,0,0.26307380000071134,['n'],1.0149160999999367,1.8719999999999999,3132.2429958999996,,,,,522,26,Woman,Right,
,,,,,,,,,,,,,,,,,522,26,Woman,Right,3,44,0.15,1,0,-,0,0.3092463000002681,['n'],0.6948551999994379,1.8719999999999999,3135.4929752000003,,,,,522,26,Woman,Right,
,,,,,,,,,,,,,,,,,522,26,Woman,Right,3,43,0.4,2,180,0,0,0.23699779999969905,['n'],0.694888600000013,1.8719999999999999,3138.6095468,,,,,522,26,Woman,Right,
,,,,,,,,,,,,,,,,,522,26,Woman,Right,3,4,1,1,0,-,0,0.16051859999970475,['n'],0.6626350999995338,1.8719999999999999,3141.5762688,,,,,522,26,Woman,Right,
,,,,,,,,,,,,,,,,,522,26,Woman,Right,3,30,0.4,1,180,-,180,0.23120850000032078,['y'],1.7747836999997162,1.8719999999999999,3145.7929551,,,,,522,26,Woman,Right,
,,,,,,,,,,,,,,,,,522,26,Woman,Right,3,0,1,1,0,-,0,0.783382999999958,['y'],0.22607500000049185,1.8719999999999999,3149.0096353000004,,,,,522,26,Woman,Right,
,,,,,,,,,,,,,,,,,522,26,Woman,Right,3,16,0.4,1,0,-,0,1.2681422000005114,['n'],0.6386929999998756,1.8719999999999999,3152.8761830999997,,,,,522,26,Woman,Right,
,,,,,,,,,,,,,,,,,522,26,Woman,Right,3,10,0.4,1,180,-,180,0.4539408000000549,['y'],0.7668900000007852,1.8719999999999999,3156.5264405000003,,,,,522,26,Woman,Right,
,,,,,,,,,,,,,,,,,522,26,Woman,Right,3,38,0.4,1,180,-,180,0.27858129999913217,['y'],0.2708074000001943,1.8719999999999999,3159.5095346000003,,,,,522,26,Woman,Right,
,,,,,,,,,,,,,,,,,522,26,Woman,Right,3,61,0.15,2,0,180,0,0.6300040999994962,['n'],0.5675721000006888,1.8719999999999999,3162.9929569,,,,,522,26,Woman,Right,
,,,,,,,,,,,,,,,,,522,26,Woman,Right,3,32,0.4,1,0,-,0,0.2998760000000402,['n'],0.6789408999993611,1.8719999999999999,3166.2261464,,,,,522,26,Woman,Right,
,,,,,,,,,,,,,,,,,522,26,Woman,Right,3,67,0.15,2,180,0,0,0.56189219999942,['n'],0.7109278999996604,1.8719999999999999,3169.8096441000002,,,,,522,26,Woman,Right,
,,,,,,,,,,,,,,,,,522,26,Woman,Right,3,39,0.4,2,180,0,0,0.24056339999970078,['n'],0.7988730000006399,1.8719999999999999,3173.1596477999997,,,,,522,26,Woman,Right,
,,,,,,,,,,,,,,,,,522,26,Woman,Right,3,27,0.4,2,180,0,0,0.229327099999864,['n'],0.6548461999991559,1.8719999999999999,3176.2096843000004,,,,,522,26,Woman,Right,
,,,,,,,,,,,,,,,,,522,26,Woman,Right,3,73,0.15,2,0,180,0,0.3799134999999296,['n'],0.6548579000000245,1.8719999999999999,3179.3095338,,,,,522,26,Woman,Right,
,,,,,,,,,,,,,,,,,522,26,Woman,Right,3,12,0.4,1,0,-,0,0.314487999999983,['y'],0.9275313000007372,1.8719999999999999,3183.0595916999996,,,,,522,26,Woman,Right,
,,,,,,,,,,,,,,,,,522,26,Woman,Right,3,63,0.15,2,180,0,0,1.366755000000012,['n'],0.5793979999998555,1.8719999999999999,3187.0097467,,,,,522,26,Woman,Right,
,,,,,,,,,,,,,,,,,522,26,Woman,Right,3,50,0.15,1,180,-,0,0.3292209000001094,['y'],0.6069938999999067,1.8719999999999999,3190.1931263,,,,,522,26,Woman,Right,
,,,,,,,,,,,,,,,,,522,26,Woman,Right,3,51,0.15,2,180,0,180,0.7627373999994234,['y'],0.31085999999959313,1.8719999999999999,3193.6929026000003,,,,,522,26,Woman,Right,
,,,,,,,,,,,,,,,,,522,26,Woman,Right,3,26,0.4,1,180,-,180,0.4151913000005152,['y'],0.26298729999962234,1.8719999999999999,3196.4928278,,,,,522,26,Woman,Right,
,,,,,,,,,,,,,,,,,522,26,Woman,Right,3,11,0.4,2,180,0,0,0.3453772000002573,['n'],0.6631470000002082,1.8719999999999999,3199.7100389,,,,,522,26,Woman,Right,
,,,,,,,,,,,,,,,,,522,26,Woman,Right,3,71,0.15,2,180,0,180,0.9620828999995865,['y'],1.1190816999996969,1.8719999999999999,3204.0766104,,,,,522,26,Woman,Right,
,,,,,,,,,,,,,,,,,522,26,Woman,Right,3,56,0.15,1,0,-,0,0.670964300000378,['n'],0.6385581000004095,1.8719999999999999,3207.4260175000004,,,,,522,26,Woman,Right,
,,,,,,,,,,,,,,,,,522,26,Woman,Right,3,1,1,2,0,180,180,0.5367212000001018,['y'],0.1908914999994522,1.8719999999999999,3210.3763670000003,,,,,522,26,Woman,Right,
,,,,,,,,,,,,,,,,,522,26,Woman,Right,3,54,0.15,1,180,-,180,0.46715989999938756,['y'],0.2790401000002021,1.8719999999999999,3213.4103006,,,,,522,26,Woman,Right,
,,,,,,,,,,,,,,,,,522,26,Woman,Right,3,55,0.15,2,180,0,180,0.5991072999995595,['y'],0.34309269999994285,1.8719999999999999,3216.6094666000004,,,,,522,26,Woman,Right,
,,,,,,,,,,,,,,,,,522,26,Woman,Right,3,2,1,1,180,-,180,0.3599591000001965,['y'],0.24691409999923053,1.8719999999999999,3219.3596511,,,,,522,26,Woman,Right,
,,,,,,,,,,,,,,,,,522,26,Woman,Right,3,9,0.4,2,0,180,180,0.9606073000004471,['y'],0.5668346000002202,1.8719999999999999,3223.2426805,,,,,522,26,Woman,Right,
,,,,,,,,,,,,,,,,,522,26,Woman,Right,3,76,0.15,1,0,-,180,0.5846943999995347,['n'],1.0708334000000832,1.8719999999999999,3226.9596523000005,,,,,522,26,Woman,Right,
,,,,,,,,,,,,,,,,,522,26,Woman,Right,3,7,1,2,180,0,0,0.8159596000004967,['n'],0.5749821000008524,1.0,3233.4764118999997,,,,,522,26,Woman,Right,
,,,,,,,,,,,,,,,,,522,26,Woman,Right,3,59,0.15,2,180,0,180,1.1734970999996222,['n'],0.6310496999994939,1.976,3237.7094567,,,,,522,26,Woman,Right,
,,,,,,,,,,,,,,,,,522,26,Woman,Right,3,13,0.4,2,0,180,0,0.728719199999432,['n'],0.6309088999996675,1.944,3241.2593294000003,,,,,522,26,Woman,Right,
,,,,,,,,,,,,,,,,,522,26,Woman,Right,3,68,0.15,1,0,-,180,1.1626756000005116,['n'],0.5667892999999822,1.8599999999999999,3246.6761488999996,,,,,522,26,Woman,Right,
,,,,,,,,,,,,,,,,,522,26,Woman,Right,4,2,1,1,180,-,180,0.4448875999996744,['y'],1.0069399999993038,1.8599999999999999,3251.6926900000003,63.75,55.0,55.0,,522,26,Woman,Right,
,,,,,,,,,,,,,,,,,522,26,Woman,Right,4,36,0.4,1,0,-,0,0.5464779000003546,['n'],0.5428003000006356,1.822,3254.8925962,,,,,522,26,Woman,Right,
,,,,,,,,,,,,,,,,,522,26,Woman,Right,4,32,0.4,1,0,-,0,0.7524869000008039,['n'],0.6784734999991997,1.83,3258.3435894,,,,,522,26,Woman,Right,
,,,,,,,,,,,,,,,,,522,26,Woman,Right,4,75,0.15,2,180,0,0,0.2788745000007111,['n'],0.6228962000004685,1.83,3261.3095369999996,,,,,522,26,Woman,Right,
,,,,,,,,,,,,,,,,,522,26,Woman,Right,4,21,0.4,2,0,180,180,0.4314113999998881,['y'],0.6708893999993961,1.83,3264.4595876,,,,,522,26,Woman,Right,
,,,,,,,,,,,,,,,,,522,26,Woman,Right,4,43,0.4,2,180,0,180,0.9120785000004616,['y'],0.7988820999999007,1.83,3268.1928478000004,,,,,522,26,Woman,Right,
,,,,,,,,,,,,,,,,,522,26,Woman,Right,4,22,0.4,1,180,-,180,0.6831856999997399,['y'],0.19856589999926655,1.83,3271.1096482999997,,,,,522,26,Woman,Right,
,,,,,,,,,,,,,,,,,522,26,Woman,Right,4,18,0.4,1,180,-,0,1.1391114000007292,['n'],0.3905856000001222,1.83,3275.0425062,,,,,522,26,Woman,Right,
,,,,,,,,,,,,,,,,,522,26,Woman,Right,4,6,1,1,180,-,180,0.8054283999999825,['y'],0.4068472999997539,1.83,3278.3596521000004,,,,,522,26,Woman,Right,
,,,,,,,,,,,,,,,,,522,26,Woman,Right,4,63,0.15,2,180,0,180,0.22756459999982326,['y'],0.23072400000000926,1.83,3281.0092474,,,,,522,26,Woman,Right,
,,,,,,,,,,,,,,,,,522,26,Woman,Right,4,11,0.4,2,180,0,180,0.28136629999971774,['y'],0.18297290000009525,1.83,3284.2270411000004,,,,,522,26,Woman,Right,
,,,,,,,,,,,,,,,,,522,26,Woman,Right,4,47,0.15,2,180,0,0,0.6106875999994372,['n'],0.7109584999998333,1.83,3287.6925956,,,,,522,26,Woman,Right,
,,,,,,,,,,,,,,,,,522,26,Woman,Right,4,46,0.15,1,180,-,0,0.777438500000244,['n'],0.7668830999991769,1.83,3291.1926219,,,,,522,26,Woman,Right,
,,,,,,,,,,,,,,,,,522,26,Woman,Right,4,59,0.15,2,180,0,180,0.22223140000005515,['n'],0.687603900000795,1.83,3294.2258122,,,,,522,26,Woman,Right,
,,,,,,,,,,,,,,,,,522,26,Woman,Right,4,40,0.4,1,0,-,180,0.3113419999999678,['n'],0.3589738999999099,1.83,3297.0759383,,,,,522,26,Woman,Right,
,,,,,,,,,,,,,,,,,522,26,Woman,Right,4,65,0.15,2,0,180,180,0.7914582000003065,['n'],0.31903820000025007,1.83,3300.2425166,,,,,522,26,Woman,Right,
,,,,,,,,,,,,,,,,,522,26,Woman,Right,4,4,1,1,0,-,0,0.28813459999946645,['y'],0.6069169000002148,1.83,3303.2259922999997,,,,,522,26,Woman,Right,
,,,,,,,,,,,,,,,,,522,26,Woman,Right,4,27,0.4,2,180,0,180,0.48320719999992434,['n'],0.6629817000002731,1.83,3306.3761695,,,,,522,26,Woman,Right,
,,,,,,,,,,,,,,,,,522,26,Woman,Right,4,56,0.15,1,0,-,0,0.29217979999975796,['n'],0.6548953000001347,1.83,3309.2600230000003,,,,,522,26,Woman,Right,
,,,,,,,,,,,,,,,,,522,26,Woman,Right,4,72,0.15,1,0,-,0,0.36729620000005525,['n'],0.7187747999996645,1.83,3313.1925167000004,,,,,522,26,Woman,Right,
,,,,,,,,,,,,,,,,,522,26,Woman,Right,4,38,0.4,1,180,-,180,1.034316399999625,['y'],0.686834899999667,1.83,3313.1925167000004,,,,,522,26,Woman,Right,
,,,,,,,,,,,,,,,,,522,26,Woman,Right,4,67,0.15,2,180,0,180,1.5591672000000472,['n'],0.8146206000001257,1.83,3321.3091735000003,,,,,522,26,Woman,Right,
,,,,,,,,,,,,,,,,,522,26,Woman,Right,4,20,0.4,1,0,-,0,1.1342102999997223,['n'],0.47091249999994034,1.83,3324.9757777,,,,,522,26,Woman,Right,
,,,,,,,,,,,,,,,,,522,26,Woman,Right,4,79,0.15,2,180,0,180,1.8127730000005613,['n'],0.15087470000071335,1.83,3328.8433173,,,,,522,26,Woman,Right,
,,,,,,,,,,,,,,,,,522,26,Woman,Right,4,68,0.15,1,0,-,180,0.4227620999999999,['n'],0.2952506000001449,1.83,3332.0758950000004,,,,,522,26,Woman,Right,
,,,,,,,,,,,,,,,,,522,26,Woman,Right,4,19,0.4,2,180,0,0,0.22354559999985213,['n'],1.0308554000002914,1.83,3335.8425135,,,,,522,26,Woman,Right,
,,,,,,,,,,,,,,,,,522,26,Woman,Right,4,28,0.4,1,0,-,180,0.8182975999998234,['y'],0.45519030000014027,1.83,3339.1090379,,,,,522,26,Woman,Right,
,,,,,,,,,,,,,,,,,522,26,Woman,Right,4,61,0.15,2,0,180,0,0.33664909999970405,['y'],0.37442689999988943,1.83,3341.8258356,,,,,522,26,Woman,Right,
,,,,,,,,,,,,,,,,,522,26,Woman,Right,4,64,0.15,1,0,-,180,0.9934837000000698,['y'],0.5747919000004913,1.83,3345.4760789999996,,,,,522,26,Woman,Right,
,,,,,,,,,,,,,,,,,522,26,Woman,Right,4,48,0.15,1,0,-,0,0.15285039999980654,['y'],0.23081589999947028,1.83,3347.9259837000004,,,,,522,26,Woman,Right,
,,,,,,,,,,,,,,,,,522,26,Woman,Right,4,69,0.15,2,0,180,180,0.6867955999996411,['n'],0.4234788000003391,1.83,3350.9924351000004,,,,,522,26,Woman,Right,
,,,,,,,,,,,,,,,,,522,26,Woman,Right,4,3,1,2,180,0,180,0.3561202000000776,['y'],0.262862600000517,1.83,3354.0424697000003,,,,,522,26,Woman,Right,
,,,,,,,,,,,,,,,,,522,26,Woman,Right,4,53,0.15,2,0,180,0,0.48726089999945543,['y'],0.6870158000001538,1.036,3358.7261863,,,,,522,26,Woman,Right,
,,,,,,,,,,,,,,,,,522,26,Woman,Right,4,31,0.4,2,180,0,180,0.5273910999994769,['y'],0.29525640000065323,1.986,3362.1090878,,,,,522,26,Woman,Right,
,,,,,,,,,,,,,,,,,522,26,Woman,Right,4,58,0.15,1,180,-,180,0.6017443999999159,['n'],0.8068441000004896,1.706,3365.5258029,,,,,522,26,Woman,Right,
,,,,,,,,,,,,,,,,,522,26,Woman,Right,4,33,0.4,2,0,180,0,0.5977671000000555,['y'],0.5826654000002236,1.842,3369.7768885,,,,,522,26,Woman,Right,
,,,,,,,,,,,,,,,,,522,26,Woman,Right,4,15,0.4,2,180,0,0,2.0687582999998995,['y'],0.5428984999998647,1.842,3374.5923457000004,,,,,522,26,Woman,Right,
,,,,,,,,,,,,,,,,,522,26,Woman,Right,4,39,0.4,2,180,0,0,0.7795673999999053,['n'],0.39906060000066645,1.842,3377.9257485000003,,,,,522,26,Woman,Right,
,,,,,,,,,,,,,,,,,522,26,Woman,Right,4,73,0.15,2,0,180,180,0.8487069000002521,['n'],0.9587916999998924,1.842,3381.7093852000003,,,,,522,26,Woman,Right,
,,,,,,,,,,,,,,,,,522,26,Woman,Right,4,24,0.4,1,0,-,0,0.7485671999993428,['n'],0.7105875999995988,1.842,3385.3759045,,,,,522,26,Woman,Right,
,,,,,,,,,,,,,,,,,522,26,Woman,Right,4,13,0.4,2,0,180,180,0.528212799999892,['n'],0.5510277000003043,1.842,3388.4923605,,,,,522,26,Woman,Right,
,,,,,,,,,,,,,,,,,522,26,Woman,Right,4,30,0.4,1,180,-,0,0.3499329000005673,['n'],0.4292075000003024,1.842,3391.3923694,,,,,522,26,Woman,Right,
,,,,,,,,,,,,,,,,,522,26,Woman,Right,4,50,0.15,1,180,-,0,2.722964100000354,['n'],0.7748073000002478,1.842,3396.8265474000004,,,,,522,26,Woman,Right,
,,,,,,,,,,,,,,,,,522,26,Woman,Right,4,10,0.4,1,180,-,180,1.4016061000002082,['n'],0.5349128999996537,1.842,3400.7423487,,,,,522,26,Woman,Right,
,,,,,,,,,,,,,,,,,522,26,Woman,Right,4,77,0.15,2,0,180,180,1.0888214999995398,['n'],0.4548573000001852,1.842,3405.3922514,,,,,522,26,Woman,Right,
,,,,,,,,,,,,,,,,,522,26,Woman,Right,4,25,0.4,2,0,180,180,0.9255470000007335,['n'],0.2548194000000876,1.842,3408.7265877000004,,,,,522,26,Woman,Right,
,,,,,,,,,,,,,,,,,522,26,Woman,Right,4,44,0.15,1,0,-,180,2.9057073000003584,['n'],0.3188233000000764,1.842,3414.0422292999997,,,,,522,26,Woman,Right,
,,,,,,,,,,,,,,,,,522,26,Woman,Right,4,0,1,1,0,-,0,0.31755709999924875,['y'],1.7913210000006075,1.842,3418.2091168,,,,,522,26,Woman,Right,
,,,,,,,,,,,,,,,,,522,26,Woman,Right,4,16,0.4,1,0,-,180,0.7376498999992691,['y'],0.47110520000023826,1.842,3421.4593253,,,,,522,26,Woman,Right,
,,,,,,,,,,,,,,,,,522,26,Woman,Right,4,34,0.4,1,180,-,180,0.32098320000022795,['y'],0.6708838999993532,1.842,3424.4755837,,,,,522,26,Woman,Right,
,,,,,,,,,,,,,,,,,522,26,Woman,Right,4,71,0.15,2,180,0,180,0.399956100000054,['y'],0.4709447999994154,1.842,3427.6090018,,,,,522,26,Woman,Right,
,,,,,,,,,,,,,,,,,522,26,Woman,Right,4,7,1,2,180,0,180,0.11426430000028631,['y'],0.5832663999999568,1.842,3430.3422662999997,,,,,522,26,Woman,Right,
,,,,,,,,,,,,,,,,,522,26,Woman,Right,4,62,0.15,1,180,-,180,0.2682623999999123,['y'],0.38287970000055793,1.842,3433.4421500000003,,,,,522,26,Woman,Right,
,,,,,,,,,,,,,,,,,522,26,Woman,Right,4,23,0.4,2,180,0,180,0.3734476999998151,['y'],0.8312003000000914,1.842,3436.7589890000004,,,,,522,26,Woman,Right,
,,,,,,,,,,,,,,,,,522,26,Woman,Right,4,66,0.15,1,180,-,180,0.2989518999993379,['y'],0.5829221000003599,1.842,3439.9591119,,,,,522,26,Woman,Right,
,,,,,,,,,,,,,,,,,522,26,Woman,Right,4,29,0.4,2,0,180,180,1.012319800000114,['y'],0.3036652000000686,1.842,3443.7256278,,,,,522,26,Woman,Right,
,,,,,,,,,,,,,,,,,522,26,Woman,Right,4,55,0.15,2,180,0,180,0.7570709000001443,['n'],0.43895789999987755,1.842,3446.9421539,,,,,522,26,Woman,Right,
,,,,,,,,,,,,,,,,,522,26,Woman,Right,4,41,0.4,2,0,180,180,0.6163457000002381,['n'],0.9419751999994332,1.842,3450.4255553,,,,,522,26,Woman,Right,
,,,,,,,,,,,,,,,,,522,26,Woman,Right,4,35,0.4,2,180,0,180,0.38748279999981605,['n'],0.34287940000012895,1.842,3453.1087995000003,,,,,522,26,Woman,Right,
,,,,,,,,,,,,,,,,,522,26,Woman,Right,4,52,0.15,1,0,-,180,0.43893279999974766,['n'],0.3832583000003069,1.842,3455.9256870000004,,,,,522,26,Woman,Right,
,,,,,,,,,,,,,,,,,522,26,Woman,Right,4,49,0.15,2,0,180,180,0.37353649999931804,['n'],0.41486369999984163,1.842,3458.8255618999997,,,,,522,26,Woman,Right,
,,,,,,,,,,,,,,,,,522,26,Woman,Right,4,37,0.4,2,0,180,180,0.7769513000002917,['y'],0.44688640000003943,1.842,3462.1090609999997,,,,,522,26,Woman,Right,
,,,,,,,,,,,,,,,,,522,26,Woman,Right,4,14,0.4,1,180,-,180,0.9103611000000456,['y'],0.24683069999991858,1.842,3465.5923424,,,,,522,26,Woman,Right,
,,,,,,,,,,,,,,,,,522,26,Woman,Right,4,78,0.15,1,180,-,180,0.9769665999992867,['y'],0.18281320000005508,1.842,3469.0757219,,,,,522,26,Woman,Right,
,,,,,,,,,,,,,,,,,522,26,Woman,Right,4,5,1,2,0,180,180,0.6986591999993834,['y'],0.2950043999999252,1.842,3472.2758968000003,,,,,522,26,Woman,Right,
,,,,,,,,,,,,,,,,,522,26,Woman,Right,4,54,0.15,1,180,-,180,1.6671689000004335,['y'],0.22257939999963128,1.074,3477.30902,,,,,522,26,Woman,Right,
,,,,,,,,,,,,,,,,,522,26,Woman,Right,4,1,1,2,0,180,180,0.3872087999998257,['y'],0.23868339999989985,1.8820000000000001,3480.3421218,,,,,522,26,Woman,Right,
,,,,,,,,,,,,,,,,,522,26,Woman,Right,4,57,0.15,2,0,180,180,2.041078799999923,['n'],0.4382122999995772,1.916,3484.9254195999997,,,,,522,26,Woman,Right,
,,,,,,,,,,,,,,,,,522,26,Woman,Right,4,60,0.15,1,0,-,180,0.7828026999995927,['n'],0.46261369999956514,1.916,3488.1421123000005,,,,,522,26,Woman,Right,
,,,,,,,,,,,,,,,,,522,26,Woman,Right,4,42,0.4,1,180,-,180,0.37377530000048864,['y'],1.4310957000006965,1.916,3491.9753994999996,,,,,522,26,Woman,Right,
,,,,,,,,,,,,,,,,,522,26,Woman,Right,4,9,0.4,2,0,180,180,1.0515783000000738,['y'],0.26301390000026004,1.916,3495.2921537999996,,,,,522,26,Woman,Right,
,,,,,,,,,,,,,,,,,522,26,Woman,Right,4,45,0.15,2,0,180,180,0.918680900000254,['y'],0.21510529999977734,1.916,3498.4588133,,,,,522,26,Woman,Right,
,,,,,,,,,,,,,,,,,522,26,Woman,Right,4,70,0.15,1,180,-,180,0.8458344999999099,['n'],0.5030388000004677,1.916,3502.1420887,,,,,522,26,Woman,Right,
,,,,,,,,,,,,,,,,,522,26,Woman,Right,4,26,0.4,1,180,-,180,0.22554139999920153,['y'],1.2470087000001513,1.916,3505.7087259000004,,,,,522,26,Woman,Right,
,,,,,,,,,,,,,,,,,522,26,Woman,Right,4,8,0.4,1,0,-,180,0.40843949999998586,['y'],0.35131599999931495,1.916,3508.4594407,,,,,522,26,Woman,Right,
,,,,,,,,,,,,,,,,,522,26,Woman,Right,4,17,0.4,2,0,180,180,0.23342009999942093,['y'],0.28552159999981086,1.916,3510.9921932,,,,,522,26,Woman,Right,
,,,,,,,,,,,,,,,,,522,26,Woman,Right,4,76,0.15,1,0,-,180,0.3377072000002954,['y'],0.22315339999931894,1.916,3513.5920763999998,,,,,522,26,Woman,Right,
,,,,,,,,,,,,,,,,,522,26,Woman,Right,4,12,0.4,1,0,-,180,0.2954761999999391,['y'],0.19086219999917375,1.916,3516.2254375999996,,,,,522,26,Woman,Right,
,,,,,,,,,,,,,,,,,522,26,Woman,Right,4,74,0.15,1,180,-,180,0.030377000000044063,['y'],0.15929050000067946,1.916,3518.5254865,,,,,522,26,Woman,Right,
,,,,,,,,,,,,,,,,,522,26,Woman,Right,4,51,0.15,2,180,0,180,0.3511834999999337,['y'],0.23084359999938897,1.916,3521.2087287,,,,,522,26,Woman,Right,
,,,,,,,,,,,,,,,,,522,26,Woman,Right,5,58,0.15,1,180,-,180,0.2384910000000673,['y'],0.5028190000002724,1.916,3525.2420677000005,58.75,45.0,52.5,,522,26,Woman,Right,
,,,,,,,,,,,,,,,,,522,26,Woman,Right,5,4,1,1,0,-,180,0.3416581999999835,['y'],0.35919300000023213,1.916,3528.1255236,,,,,522,26,Woman,Right,
,,,,,,,,,,,,,,,,,522,26,Woman,Right,5,50,0.15,1,180,-,180,0.31771240000034595,['y'],0.37498500000037893,1.916,3530.8252391,,,,,522,26,Woman,Right,
,,,,,,,,,,,,,,,,,522,26,Woman,Right,5,43,0.4,2,180,0,180,0.5704678000001877,['n'],0.390881399999671,1.916,3533.9420391999997,,,,,522,26,Woman,Right,
,,,,,,,,,,,,,,,,,522,26,Woman,Right,5,74,0.15,1,180,-,0,1.9705143999999564,['n'],0.8549880000000485,1.916,3538.9086748000004,,,,,522,26,Woman,Right,
,,,,,,,,,,,,,,,,,522,26,Woman,Right,5,55,0.15,2,180,0,180,1.9572781000006216,['n'],0.3106754999998884,1.916,3544.0587171,,,,,522,26,Woman,Right,
,,,,,,,,,,,,,,,,,522,26,Woman,Right,5,32,0.4,1,0,-,0,0.4889707999991515,['n'],0.5512853000000177,1.9,3547.3919355000003,,,,,522,26,Woman,Right,
,,,,,,,,,,,,,,,,,522,26,Woman,Right,5,76,0.15,1,0,-,180,1.0537468000002264,['n'],0.4472459999997227,1.838,3550.9419962999996,,,,,522,26,Woman,Right,
,,,,,,,,,,,,,,,,,522,26,Woman,Right,5,48,0.15,1,0,-,180,0.4065822999991724,['n'],1.4548972000002323,1.838,3555.2252681000004,,,,,522,26,Woman,Right,
,,,,,,,,,,,,,,,,,522,26,Woman,Right,5,71,0.15,2,180,0,0,0.5257828000003428,['n'],0.75889079999979,1.838,3558.6589087999996,,,,,522,26,Woman,Right,
,,,,,,,,,,,,,,,,,522,26,Woman,Right,5,70,0.15,1,180,-,180,1.4005384000001868,['n'],0.37477859999944485,1.838,3562.4918779000004,,,,,522,26,Woman,Right,
,,,,,,,,,,,,,,,,,522,26,Woman,Right,5,44,0.15,1,0,-,180,0.920836600000257,['n'],0.6865538000001834,1.838,3566.7088971999997,,,,,522,26,Woman,Right,
,,,,,,,,,,,,,,,,,522,26,Woman,Right,5,30,0.4,1,180,-,180,1.3996908999997686,['n'],0.5828301999999894,1.838,3570.6085740000003,,,,,522,26,Woman,Right,
,,,,,,,,,,,,,,,,,522,26,Woman,Right,5,66,0.15,1,180,-,0,0.41577419999975973,['n'],0.5108485999999175,1.838,3573.6753096999996,,,,,522,26,Woman,Right,
,,,,,,,,,,,,,,,,,522,26,Woman,Right,5,10,0.4,1,180,-,180,0.5211589000000458,['n'],2.087080600000263,1.838,3578.2585479000004,,,,,522,26,Woman,Right,
,,,,,,,,,,,,,,,,,522,26,Woman,Right,5,33,0.4,2,0,180,0,1.2016467000003104,['n'],0.2788841000001412,1.838,3581.8086553999997,,,,,522,26,Woman,Right,
,,,,,,,,,,,,,,,,,522,26,Woman,Right,5,14,0.4,1,180,-,180,0.8967496999994182,['y'],0.2789806000000681,1.838,3585.0754869999996,,,,,522,26,Woman,Right,
,,,,,,,,,,,,,,,,,522,26,Woman,Right,5,13,0.4,2,0,180,180,0.41791769999963435,['y'],0.20676089999960823,1.838,3587.6252695999997,,,,,522,26,Woman,Right,
,,,,,,,,,,,,,,,,,522,26,Woman,Right,5,2,1,1,180,-,180,0.31919960000050196,['y'],0.15099499999996624,1.838,3590.1752635999997,,,,,522,26,Woman,Right,
,,,,,,,,,,,,,,,,,522,26,Woman,Right,5,42,0.4,1,180,-,180,0.2346716000001834,['y'],0.34310289999939414,1.838,3592.7925975000003,,,,,522,26,Woman,Right,
,,,,,,,,,,,,,,,,,522,26,Woman,Right,5,7,1,2,180,0,180,0.016877000000022235,['y'],0.6106329000003825,1.838,3595.4752111000003,,,,,522,26,Woman,Right,
,,,,,,,,,,,,,,,,,522,26,Woman,Right,5,28,0.4,1,0,-,0,0.8846039999998538,['y'],0.34288809999998193,1.838,3598.8587272,,,,,522,26,Woman,Right,
,,,,,,,,,,,,,,,,,522,26,Woman,Right,5,21,0.4,2,0,180,180,0.451227900000049,['y'],0.23113529999955063,1.838,3601.4417709000004,,,,,522,26,Woman,Right,
,,,,,,,,,,,,,,,,,522,26,Woman,Right,5,11,0.4,2,180,0,180,0.12173059999986435,['y'],0.16688149999936286,1.838,3603.7251463999996,,,,,522,26,Woman,Right,
,,,,,,,,,,,,,,,,,522,26,Woman,Right,5,27,0.4,2,180,0,180,0.35001499999998487,['y'],0.17077559999961522,1.838,3606.7084946,,,,,522,26,Woman,Right,
,,,,,,,,,,,,,,,,,522,26,Woman,Right,5,67,0.15,2,180,0,180,0.816549600000144,['y'],0.22285110000029817,1.838,3609.7418081,,,,,522,26,Woman,Right,
,,,,,,,,,,,,,,,,,522,26,Woman,Right,5,60,0.15,1,0,-,180,0.35177310000017314,['y'],0.25456909999957134,1.838,3612.3084608000004,,,,,522,26,Woman,Right,
,,,,,,,,,,,,,,,,,522,26,Woman,Right,5,39,0.4,2,180,0,180,0.33391459999984363,['y'],0.3351145999995424,1.838,3615.0417278,,,,,522,26,Woman,Right,
,,,,,,,,,,,,,,,,,522,26,Woman,Right,5,59,0.15,2,180,0,180,0.35239439999986644,['y'],0.49487719999979163,1.838,3617.9930114000003,,,,,522,26,Woman,Right,
,,,,,,,,,,,,,,,,,522,26,Woman,Right,5,31,0.4,2,180,0,180,0.3698392000005697,['y'],0.19130929999937507,1.838,3620.6418498,,,,,522,26,Woman,Right,
,,,,,,,,,,,,,,,,,522,26,Woman,Right,5,26,0.4,1,180,-,180,0.49734840000019176,['y'],0.2628402999998798,1.838,3623.4596527999997,,,,,522,26,Woman,Right,
,,,,,,,,,,,,,,,,,522,26,Woman,Right,5,61,0.15,2,0,180,0,0.8379797000006874,['n'],0.5350416000001132,1.838,3627.1918037,,,,,522,26,Woman,Right,
,,,,,,,,,,,,,,,,,522,26,Woman,Right,5,19,0.4,2,180,0,180,0.8260368000001108,['y'],1.0309808000001794,1.838,3631.0917929,,,,,522,26,Woman,Right,
,,,,,,,,,,,,,,,,,522,26,Woman,Right,5,18,0.4,1,180,-,180,0.7380198000000746,['n'],0.5348973000000115,1.838,3634.3424897,,,,,522,26,Woman,Right,
