p_block,p_section,p_coherence,p_direction1,p_direction2,p_direction_response,p_direction_RT,p_change_response,p_change_RT,p_confidence,p_full_correct,p_without5_correct,p_full_total,p_without5_total,p_full_avg,p_witout5_avg,p_total_time,sub,age,sex,handedness,loop,trial randomization,coherence,condition,direction1,direction2,direction_response,direction_RT,change_response,change_RT,change_confidence,change_confidence_RT,block_direction_avg,block_stable_avg,block_change_avg,total_time,sub,age,sex,handedness,
1,1,1.0,0,-,0,0.16636470000048575,-,-,-,,,,,,,,578,18,Man,Right,,,,,,,,,,,,,,,,,578,18,Man,Right,
1,1,1.0,0,-,0,2.216941200000292,-,-,-,,,,,,,,578,18,Man,Right,,,,,,,,,,,,,,,,,578,18,Man,Right,
1,1,1.0,0,-,0,0.43355069999961415,-,-,-,,,,,,,,578,18,Man,Right,,,,,,,,,,,,,,,,,578,18,Man,Right,
1,1,1.0,180,-,180,0.16353849999995873,-,-,-,,,,,,,,578,18,Man,Right,,,,,,,,,,,,,,,,,578,18,Man,Right,
1,1,1.0,180,-,180,0.06343740000011167,-,-,-,,,,,,,,578,18,Man,Right,,,,,,,,,,,,,,,,,578,18,Man,Right,
1,1,1.0,180,-,180,0.016882599999917147,-,-,-,,,,,,,,578,18,Man,Right,,,,,,,,,,,,,,,,,578,18,Man,Right,
1,1,1.0,180,-,180,0.5367298999999548,-,-,-,,,,,,,,578,18,Man,Right,,,,,,,,,,,,,,,,,578,18,Man,Right,
1,1,1.0,180,-,180,0.016821499999423395,-,-,-,,,,,,,,578,18,Man,Right,,,,,,,,,,,,,,,,,578,18,Man,Right,
1,1,1.0,180,-,180,0.07093310000072961,-,-,-,,,,,,,,578,18,Man,Right,,,,,,,,,,,,,,,,,578,18,Man,Right,
1,1,1.0,180,-,180,0.05502520000027289,-,-,-,10,10,10,10,1.0,1.0,,578,18,Man,Right,,,,,,,,,,,,,,,,,578,18,Man,Right,
2,1,0.15,180,-,180,0.016658699999425153,-,-,-,,,,,,,,578,18,Man,Right,,,,,,,,,,,,,,,,,578,18,Man,Right,
2,1,0.4,180,-,180,0.05305009999938193,-,-,-,,,,,,,,578,18,Man,Right,,,,,,,,,,,,,,,,,578,18,Man,Right,
2,1,0.15,180,-,180,0.7730201999993369,-,-,-,,,,,,,,578,18,Man,Right,,,,,,,,,,,,,,,,,578,18,Man,Right,
2,1,0.4,0,-,0,0.016684199999872362,-,-,-,,,,,,,,578,18,Man,Right,,,,,,,,,,,,,,,,,578,18,Man,Right,
2,1,0.15,180,-,180,0.016750900000261026,-,-,-,,,,,,,,578,18,Man,Right,,,,,,,,,,,,,,,,,578,18,Man,Right,
2,1,0.15,180,-,0,0.05106999999952677,-,-,-,,,,,,,,578,18,Man,Right,,,,,,,,,,,,,,,,,578,18,Man,Right,
2,1,0.4,0,-,0,0.08307830000012473,-,-,-,,,,,,,,578,18,Man,Right,,,,,,,,,,,,,,,,,578,18,Man,Right,
2,1,0.15,180,-,180,0.04965459999948507,-,-,-,,,,,,,,578,18,Man,Right,,,,,,,,,,,,,,,,,578,18,Man,Right,
2,1,0.15,0,-,180,2.0575473999997484,-,-,-,,,,,,,,578,18,Man,Right,,,,,,,,,,,,,,,,,578,18,Man,Right,
2,1,0.15,180,-,180,0.3136135999993712,-,-,-,8,3,10,3,0.8,1.0,,578,18,Man,Right,,,,,,,,,,,,,,,,,578,18,Man,Right,
3,2,1.0,180,0,0,0.33115509999970527,['y'],2.1797787000004973,2,,,,,,,,578,18,Man,Right,,,,,,,,,,,,,,,,,578,18,Man,Right,
3,2,1.0,180,0,0,0.2644948999995904,['y'],1.3018839000005755,2.0,,,,,,,,578,18,Man,Right,,,,,,,,,,,,,,,,,578,18,Man,Right,
3,2,1.0,180,0,0,0.480535300000156,['y'],0.7734031999998479,2.0,,,,,,,,578,18,Man,Right,,,,,,,,,,,,,,,,,578,18,Man,Right,
3,2,1.0,0,180,180,0.6837727000001905,['y'],0.43368979999922885,2.0,,,,,,,,578,18,Man,Right,,,,,,,,,,,,,,,,,578,18,Man,Right,
3,2,1.0,0,180,180,0.6474155999994764,['y'],1.6001052999999956,2.0,,,,,,,,578,18,Man,Right,,,,,,,,,,,,,,,,,578,18,Man,Right,
3,2,1.0,0,180,180,0.43370969999978115,['y'],0.640227999999297,2.0,,,,,,,,578,18,Man,Right,,,,,,,,,,,,,,,,,578,18,Man,Right,
3,2,1.0,0,180,180,0.40296849999958795,['y'],0.27183940000031726,2.0,,,,,,,,578,18,Man,Right,,,,,,,,,,,,,,,,,578,18,Man,Right,
3,2,1.0,0,180,180,0.4426595000004454,['y'],0.5343610999998418,2.0,,,,,,,,578,18,Man,Right,,,,,,,,,,,,,,,,,578,18,Man,Right,
3,2,1.0,0,180,180,0.29815489999964484,['y'],0.6360174999999799,2.0,,,,,,,,578,18,Man,Right,,,,,,,,,,,,,,,,,578,18,Man,Right,
3,2,1.0,180,0,0,0.3391626000002361,['y'],0.7730594999993627,2.0,10,10,10,10,1.0,1.0,,578,18,Man,Right,,,,,,,,,,,,,,,,,578,18,Man,Right,
4,2,0.4,0,180,180,0.7167337000000771,['y'],0.6959285000002637,2.0,,,,,,,,578,18,Man,Right,,,,,,,,,,,,,,,,,578,18,Man,Right,
4,2,0.4,180,0,0,0.7739442000001873,['y'],0.7519109000004391,2.0,,,,,,,,578,18,Man,Right,,,,,,,,,,,,,,,,,578,18,Man,Right,
4,2,0.4,0,180,180,0.8666907999995601,['y'],0.697141399999964,2.0,,,,,,,,578,18,Man,Right,,,,,,,,,,,,,,,,,578,18,Man,Right,
4,2,0.4,0,180,180,0.46196340000005875,['y'],0.6706915000004301,2.0,,,,,,,,578,18,Man,Right,,,,,,,,,,,,,,,,,578,18,Man,Right,
4,2,0.4,0,180,180,0.3992852999999741,['y'],0.6283566000001883,2.0,,,,,,,,578,18,Man,Right,,,,,,,,,,,,,,,,,578,18,Man,Right,
4,2,0.4,180,0,0,0.17731430000003456,['y'],0.18216140000004089,2.0,,,,,,,,578,18,Man,Right,,,,,,,,,,,,,,,,,578,18,Man,Right,
4,2,0.15,0,180,180,2.8857893999993394,['n'],1.4652581999998802,1.0,,,,,,,,578,18,Man,Right,,,,,,,,,,,,,,,,,578,18,Man,Right,
4,2,0.15,180,0,0,0.6592932000003202,['y'],0.8171201999994082,1.802,,,,,,,,578,18,Man,Right,,,,,,,,,,,,,,,,,578,18,Man,Right,
4,2,0.4,0,180,180,0.5782380000000558,['y'],0.3155315000003611,2.0,,,,,,,,578,18,Man,Right,,,,,,,,,,,,,,,,,578,18,Man,Right,
4,2,0.15,0,180,180,1.1191384000003382,['y'],0.6351518000001306,2.0,10,7,10,7,1.0,1.0,,578,18,Man,Right,,,,,,,,,,,,,,,,,578,18,Man,Right,
5,3,0.15,180,-,180,1.7834266999998363,['y'],3.0041507000005367,1.696,,,,,,,,578,18,Man,Right,,,,,,,,,,,,,,,,,578,18,Man,Right,
5,3,1.0,0,-,0,0.9988660999997592,['y'],1.8450732000001153,1.0,,,,,,,,578,18,Man,Right,,,,,,,,,,,,,,,,,578,18,Man,Right,
5,3,1.0,180,-,180,1.7707575000003999,['n'],1.2434593000007226,2.0,,,,,,,,578,18,Man,Right,,,,,,,,,,,,,,,,,578,18,Man,Right,
5,3,0.4,0,-,0,0.9639687999997477,['n'],1.3433362000005218,2.0,,,,,,,,578,18,Man,Right,,,,,,,,,,,,,,,,,578,18,Man,Right,
5,3,0.15,0,180,180,1.8507202000000689,['y'],0.44299750000027416,2.0,,,,,,,,578,18,Man,Right,,,,,,,,,,,,,,,,,578,18,Man,Right,
5,3,0.4,180,0,0,0.7055503999999928,['y'],0.27186470000015106,2.0,,,,,,,,578,18,Man,Right,,,,,,,,,,,,,,,,,578,18,Man,Right,
5,3,1.0,180,0,0,0.5559713000002375,['y'],0.49002980000022944,2.0,,,,,,,,578,18,Man,Right,,,,,,,,,,,,,,,,,578,18,Man,Right,
5,3,0.15,0,-,0,1.937709800000448,['n'],0.44952069999999367,1.596,,,,,,,,578,18,Man,Right,,,,,,,,,,,,,,,,,578,18,Man,Right,
5,3,1.0,180,-,180,0.9582494999995106,['n'],0.49362070000006497,1.702,,,,,,,,578,18,Man,Right,,,,,,,,,,,,,,,,,578,18,Man,Right,
5,3,0.4,180,-,180,0.6640519000002314,['n'],0.09432620000006864,1.3,10,7,10,7,1.0,1.0,,578,18,Man,Right,,,,,,,,,,,,,,,,,578,18,Man,Right,
,,,,,,,,,,,,,,,,4.300000000512227e-06,578,18,Man,Right,,,,,,,,,,,,,,,,,578,18,Man,Right,
,,,,,,,,,,,,,,,,,578,18,Man,Right,0,15,0.4,2,180,0,0,0.7155911999998352,['y'],1.5567644000002474,1.81,274.1333039000001,,,,,578,18,Man,Right,
,,,,,,,,,,,,,,,,,578,18,Man,Right,0,54,0.15,1,180,-,180,1.3208894999997938,['n'],1.03783680000015,2.0,280.0832836999998,,,,,578,18,Man,Right,
,,,,,,,,,,,,,,,,,578,18,Man,Right,0,13,0.4,2,0,180,180,0.7149425000006886,['y'],2.1109721000002537,2.0,288.2000151000002,,,,,578,18,Man,Right,
,,,,,,,,,,,,,,,,,578,18,Man,Right,0,31,0.4,2,180,0,0,0.5503099000006841,['y'],1.1833669999996346,2.0,292.6332980999996,,,,,578,18,Man,Right,
,,,,,,,,,,,,,,,,,578,18,Man,Right,0,20,0.4,1,0,-,0,1.5107915999997203,['n'],1.0964069999999992,1.802,298.20007910000004,,,,,578,18,Man,Right,
,,,,,,,,,,,,,,,,,578,18,Man,Right,0,2,1,1,180,-,180,0.5346703000004709,['n'],1.5046922999999879,1.73,305.53334189999987,,,,,578,18,Man,Right,
,,,,,,,,,,,,,,,,,578,18,Man,Right,0,22,0.4,1,180,-,180,0.7453310000000783,['n'],1.2733440000001792,2.0,310.0166290999996,,,,,578,18,Man,Right,
,,,,,,,,,,,,,,,,,578,18,Man,Right,0,29,0.4,2,0,180,180,0.9728588999996646,['y'],1.418466900000567,2.0,315.0166758999994,,,,,578,18,Man,Right,
,,,,,,,,,,,,,,,,,578,18,Man,Right,0,23,0.4,2,180,0,0,0.7015307000001485,['y'],1.4668032999998104,2.0,319.6998057999999,,,,,578,18,Man,Right,
,,,,,,,,,,,,,,,,,578,18,Man,Right,0,18,0.4,1,180,-,180,0.7462358000002496,['n'],1.2514240000000427,2.0,324.3166001999998,,,,,578,18,Man,Right,
,,,,,,,,,,,,,,,,,578,18,Man,Right,0,60,0.15,1,0,-,180,2.374039399999674,['y'],1.24380790000032,1.234,331.3665384999995,,,,,578,18,Man,Right,
,,,,,,,,,,,,,,,,,578,18,Man,Right,0,5,1,2,0,180,180,0.6834128000000419,['y'],1.3483151999998881,2.0,336.1331917999996,,,,,578,18,Man,Right,
,,,,,,,,,,,,,,,,,578,18,Man,Right,0,78,0.15,1,180,-,180,1.137655999999879,['y'],1.4295664999999644,1.704,342.1498123000001,,,,,578,18,Man,Right,
,,,,,,,,,,,,,,,,,578,18,Man,Right,0,49,0.15,2,0,180,180,1.0710169000003589,['y'],1.8541551999996955,1.772,347.73317359999965,,,,,578,18,Man,Right,
,,,,,,,,,,,,,,,,,578,18,Man,Right,0,63,0.15,2,180,0,0,1.2063404999998966,['y'],1.2389790000006542,1.5899999999999999,353.3831559,,,,,578,18,Man,Right,
,,,,,,,,,,,,,,,,,578,18,Man,Right,0,39,0.4,2,180,0,0,0.5552248000003601,['y'],1.0713360999998258,1.912,358.6665162999998,,,,,578,18,Man,Right,
,,,,,,,,,,,,,,,,,578,18,Man,Right,0,69,0.15,2,0,180,180,0.7063963999999032,['y'],3.26436989999911,1.716,365.84973139999965,,,,,578,18,Man,Right,
,,,,,,,,,,,,,,,,,578,18,Man,Right,0,76,0.15,1,0,-,0,2.979005600000164,['n'],1.129382699999951,2.0,373.29978370000026,,,,,578,18,Man,Right,
,,,,,,,,,,,,,,,,,578,18,Man,Right,0,12,0.4,1,0,-,0,1.37037699999928,['n'],1.1061091000001397,2.0,378.2831178999995,,,,,578,18,Man,Right,
,,,,,,,,,,,,,,,,,578,18,Man,Right,0,41,0.4,2,0,180,180,0.5524589000006017,['y'],1.170737100000224,2.0,382.6501695999996,,,,,578,18,Man,Right,
,,,,,,,,,,,,,,,,,578,18,Man,Right,0,40,0.4,1,0,-,0,1.6031661999995777,['n'],1.56354680000004,1.936,388.34977059999983,,,,,578,18,Man,Right,
,,,,,,,,,,,,,,,,,578,18,Man,Right,0,37,0.4,2,0,180,180,2.08855179999955,['y'],1.0679024999999456,1.7,394.71651219999967,,,,,578,18,Man,Right,
,,,,,,,,,,,,,,,,,578,18,Man,Right,0,11,0.4,2,180,0,0,0.4705250999995769,['y'],0.8525226000001567,2.0,400.1997196000002,,,,,578,18,Man,Right,
,,,,,,,,,,,,,,,,,578,18,Man,Right,0,46,0.15,1,180,-,180,0.7837736000001314,['n'],0.9412892000000284,1.746,404.7163859000002,,,,,578,18,Man,Right,
,,,,,,,,,,,,,,,,,578,18,Man,Right,0,17,0.4,2,0,180,180,0.47360589999971126,['y'],1.333918299999823,2.0,408.9331363000001,,,,,578,18,Man,Right,
,,,,,,,,,,,,,,,,,578,18,Man,Right,0,50,0.15,1,180,-,180,0.9159194000003481,['y'],1.2461794000000737,1.0,415.1997395999997,,,,,578,18,Man,Right,
,,,,,,,,,,,,,,,,,578,18,Man,Right,0,57,0.15,2,0,180,180,2.646427899999253,['y'],1.1836935000001176,1.5859999999999999,424.24974349999957,,,,,578,18,Man,Right,
,,,,,,,,,,,,,,,,,578,18,Man,Right,0,75,0.15,2,180,0,0,0.7303637000004528,['y'],1.0244340999997803,1.836,430.5330531999998,,,,,578,18,Man,Right,
,,,,,,,,,,,,,,,,,578,18,Man,Right,0,61,0.15,2,0,180,180,2.6265488999997615,['y'],1.089218200000687,1.546,437.14964039999995,,,,,578,18,Man,Right,
,,,,,,,,,,,,,,,,,578,18,Man,Right,0,6,1,1,180,-,180,0.8282530000005863,['n'],0.9458516000004238,1.932,441.44978209999954,,,,,578,18,Man,Right,
,,,,,,,,,,,,,,,,,578,18,Man,Right,0,43,0.4,2,180,0,0,0.578662500000064,['y'],1.1782427999996798,2.0,445.93306440000015,,,,,578,18,Man,Right,
,,,,,,,,,,,,,,,,,578,18,Man,Right,0,3,1,2,180,0,0,0.9584052000000156,['y'],0.9870143999996799,2.0,450.7662352999996,,,,,578,18,Man,Right,
,,,,,,,,,,,,,,,,,578,18,Man,Right,0,56,0.15,1,0,-,0,0.7904762000007395,['n'],0.9874819000006028,1.666,455.48297399999956,,,,,578,18,Man,Right,
,,,,,,,,,,,,,,,,,578,18,Man,Right,0,71,0.15,2,180,0,0,0.8473597000001973,['y'],1.179659399999764,1.78,460.9329722000002,,,,,578,18,Man,Right,
,,,,,,,,,,,,,,,,,578,18,Man,Right,0,30,0.4,1,180,-,180,1.3067283999998835,['n'],1.7567589999998745,1.8479999999999999,467.1996309999995,,,,,578,18,Man,Right,
,,,,,,,,,,,,,,,,,578,18,Man,Right,0,70,0.15,1,180,-,0,2.4775308999996923,['n'],1.3495021999997334,1.858,474.34961509999994,,,,,578,18,Man,Right,
,,,,,,,,,,,,,,,,,578,18,Man,Right,0,7,1,2,180,0,0,0.4407602000001134,['y'],1.622218100000282,2.0,479.3995817999994,,,,,578,18,Man,Right,
,,,,,,,,,,,,,,,,,578,18,Man,Right,0,53,0.15,2,0,180,180,0.5642014000004565,['y'],1.9748460000000705,1.772,484.88300919999983,,,,,578,18,Man,Right,
,,,,,,,,,,,,,,,,,578,18,Man,Right,0,24,0.4,1,0,-,0,1.7947196000004624,['n'],0.9596274999994421,1.946,490.8828790999996,,,,,578,18,Man,Right,
,,,,,,,,,,,,,,,,,578,18,Man,Right,0,36,0.4,1,0,-,0,1.746590899999319,['n'],1.1045526000007158,2.0,496.6496810999997,,,,,578,18,Man,Right,
,,,,,,,,,,,,,,,,,578,18,Man,Right,0,16,0.4,1,0,-,180,2.5707831999998234,['y'],0.8651450999996086,1.786,503.98276910000004,,,,,578,18,Man,Right,
,,,,,,,,,,,,,,,,,578,18,Man,Right,0,38,0.4,1,180,-,180,0.8134767999999895,['n'],1.8497846000000209,1.904,510.3501151999999,,,,,578,18,Man,Right,
,,,,,,,,,,,,,,,,,578,18,Man,Right,0,55,0.15,2,180,0,0,3.2670862999993915,['y'],0.9969991999996637,1.5939999999999999,517.4327667999996,,,,,578,18,Man,Right,
,,,,,,,,,,,,,,,,,578,18,Man,Right,0,77,0.15,2,0,180,180,0.9408775000001697,['y'],0.9954311000001326,1.6219999999999999,522.5827344999998,,,,,578,18,Man,Right,
,,,,,,,,,,,,,,,,,578,18,Man,Right,0,1,1,2,0,180,180,2.9700143000000025,['y'],1.6129763999997522,2.0,530.1829576999999,,,,,578,18,Man,Right,
,,,,,,,,,,,,,,,,,578,18,Man,Right,0,10,0.4,1,180,-,180,0.8212044000001697,['n'],1.0373381999997946,2.0,534.7495093999996,,,,,578,18,Man,Right,
,,,,,,,,,,,,,,,,,578,18,Man,Right,0,25,0.4,2,0,180,180,1.0859063999996579,['y'],1.8461382999994385,1.946,540.9494783,,,,,578,18,Man,Right,
,,,,,,,,,,,,,,,,,578,18,Man,Right,0,58,0.15,1,180,-,180,1.4886995999995634,['n'],1.3186778999997841,2.0,546.5662136000001,,,,,578,18,Man,Right,
,,,,,,,,,,,,,,,,,578,18,Man,Right,0,19,0.4,2,180,0,0,0.6139667999996163,['y'],1.0633195000000342,2.0,551.7660945999996,,,,,578,18,Man,Right,
,,,,,,,,,,,,,,,,,578,18,Man,Right,0,8,0.4,1,0,-,0,1.7033905000007508,['n'],1.1360198000002129,1.846,557.1161316999996,,,,,578,18,Man,Right,
,,,,,,,,,,,,,,,,,578,18,Man,Right,0,48,0.15,1,0,-,0,3.538693299999977,['n'],1.048869499999455,2.0,564.5326906,,,,,578,18,Man,Right,
,,,,,,,,,,,,,,,,,578,18,Man,Right,0,73,0.15,2,0,180,180,4.800163099999736,['y'],1.0338259999998627,1.616,573.3660742000002,,,,,578,18,Man,Right,
,,,,,,,,,,,,,,,,,578,18,Man,Right,0,42,0.4,1,180,-,180,0.9789166999998997,['n'],1.1784520999999586,1.942,578.8827252000001,,,,,578,18,Man,Right,
,,,,,,,,,,,,,,,,,578,18,Man,Right,0,67,0.15,2,180,0,0,1.1698651000006066,['y'],2.947704700000031,1.694,586.1493424,,,,,578,18,Man,Right,
,,,,,,,,,,,,,,,,,578,18,Man,Right,0,74,0.15,1,180,-,180,0.9195999999992637,['n'],1.092052099999819,1.87,590.7660584999994,,,,,578,18,Man,Right,
,,,,,,,,,,,,,,,,,578,18,Man,Right,0,14,0.4,1,180,-,180,0.7211394000005384,['n'],0.9886885999994774,1.94,595.5160097999997,,,,,578,18,Man,Right,
,,,,,,,,,,,,,,,,,578,18,Man,Right,0,68,0.15,1,0,-,0,2.300192099999549,['n'],1.1173365000004196,1.8980000000000001,601.1493408999995,,,,,578,18,Man,Right,
,,,,,,,,,,,,,,,,,578,18,Man,Right,0,33,0.4,2,0,180,180,2.0160995999995066,['y'],1.1821634999996604,1.766,608.1326092999998,,,,,578,18,Man,Right,
,,,,,,,,,,,,,,,,,578,18,Man,Right,0,59,0.15,2,180,0,0,1.0169191000004503,['y'],1.0370665000000372,1.568,613.1659604999995,,,,,578,18,Man,Right,
,,,,,,,,,,,,,,,,,578,18,Man,Right,0,44,0.15,1,0,-,0,1.1332548000000315,['n'],1.2154733999996097,1.796,618.5493246999995,,,,,578,18,Man,Right,
,,,,,,,,,,,,,,,,,578,18,Man,Right,0,0,1,1,0,-,0,1.3533389999993233,['n'],0.9843181000005643,1.996,623.8326201999998,,,,,578,18,Man,Right,
,,,,,,,,,,,,,,,,,578,18,Man,Right,0,47,0.15,2,180,0,0,0.9876914999995279,['y'],1.3205057000004672,2.0,629.1826315999997,,,,,578,18,Man,Right,
,,,,,,,,,,,,,,,,,578,18,Man,Right,0,26,0.4,1,180,-,180,0.7829921000002287,['n'],1.025325100000373,2.0,634.0660485999997,,,,,578,18,Man,Right,
,,,,,,,,,,,,,,,,,578,18,Man,Right,0,62,0.15,1,180,-,180,1.7841003000003184,['n'],0.9936549000003652,2.0,639.7327084999997,,,,,578,18,Man,Right,
,,,,,,,,,,,,,,,,,578,18,Man,Right,0,4,1,1,0,-,0,0.7398739999998725,['n'],1.1382963000005475,2.0,644.8492605000001,,,,,578,18,Man,Right,
,,,,,,,,,,,,,,,,,578,18,Man,Right,0,9,0.4,2,0,180,180,0.567399700000351,['y'],3.291770499999984,1.818,651.5659277999994,,,,,578,18,Man,Right,
,,,,,,,,,,,,,,,,,578,18,Man,Right,0,27,0.4,2,180,0,0,0.5588384999991831,['y'],0.9958208999996714,2.0,655.7825837999999,,,,,578,18,Man,Right,
,,,,,,,,,,,,,,,,,578,18,Man,Right,0,35,0.4,2,180,0,0,0.46289679999972577,['y'],1.1326796000003014,2.0,660.2491853000001,,,,,578,18,Man,Right,
,,,,,,,,,,,,,,,,,578,18,Man,Right,0,52,0.15,1,0,-,180,2.2131003000004057,['n'],2.21318650000012,1.0,672.0492317999997,,,,,578,18,Man,Right,
,,,,,,,,,,,,,,,,,578,18,Man,Right,0,21,0.4,2,0,180,180,1.0811744999991788,['y'],1.9185920999998416,1.536,679.8991420000002,,,,,578,18,Man,Right,
,,,,,,,,,,,,,,,,,578,18,Man,Right,0,64,0.15,1,0,-,0,1.4737649000007877,['y'],1.559630300000208,1.432,685.6158786999995,,,,,578,18,Man,Right,
,,,,,,,,,,,,,,,,,578,18,Man,Right,0,65,0.15,2,0,180,180,2.494348700000046,['n'],1.9049520999997185,1.634,693.3491069000002,,,,,578,18,Man,Right,
,,,,,,,,,,,,,,,,,578,18,Man,Right,0,66,0.15,1,180,-,0,2.3338238999995156,['n'],1.144572799999878,1.732,699.1824666000002,,,,,578,18,Man,Right,
,,,,,,,,,,,,,,,,,578,18,Man,Right,0,32,0.4,1,0,-,0,0.9029073000001517,['n'],1.0098385999999664,1.746,703.5491519999996,,,,,578,18,Man,Right,
,,,,,,,,,,,,,,,,,578,18,Man,Right,0,34,0.4,1,180,-,180,0.676966199999697,['n'],0.9227026000007754,1.79,708.1823987999996,,,,,578,18,Man,Right,
,,,,,,,,,,,,,,,,,578,18,Man,Right,0,51,0.15,2,180,0,0,0.6895567000001392,['y'],1.1069674000000305,1.538,714.6324624999997,,,,,578,18,Man,Right,
,,,,,,,,,,,,,,,,,578,18,Man,Right,0,28,0.4,1,0,-,0,1.8670264000002135,['n'],1.0599099000000933,1.56,720.1658949000002,,,,,578,18,Man,Right,
,,,,,,,,,,,,,,,,,578,18,Man,Right,0,79,0.15,2,180,0,180,5.398905600000035,['n'],3.6214780000000246,1.596,733.8157522000001,,,,,578,18,Man,Right,
,,,,,,,,,,,,,,,,,578,18,Man,Right,0,72,0.15,1,0,-,180,6.081848799999534,['n'],2.6235508999998274,1.544,745.7660022,,,,,578,18,Man,Right,
,,,,,,,,,,,,,,,,,578,18,Man,Right,0,45,0.15,2,0,180,180,2.051015400000324,['y'],2.5523346999998466,1.242,753.3825380999997,,,,,578,18,Man,Right,
,,,,,,,,,,,,,,,,,578,18,Man,Right,1,5,1,2,0,180,180,0.7979919999997946,['y'],1.1182013000006918,1.93,805.2155584000002,91.25,87.5,95.0,,578,18,Man,Right,
,,,,,,,,,,,,,,,,,578,18,Man,Right,1,3,1,2,180,0,0,0.39849800000047253,['y'],1.8390613999999914,2.0,811.3821504999996,,,,,578,18,Man,Right,
,,,,,,,,,,,,,,,,,578,18,Man,Right,1,20,0.4,1,0,-,180,3.782481199999893,['n'],1.4162018000006356,1.0,819.1821189000002,,,,,578,18,Man,Right,
,,,,,,,,,,,,,,,,,578,18,Man,Right,1,4,1,1,0,-,0,0.6205152000002272,['n'],0.8726372999999512,1.95,823.4822173000002,,,,,578,18,Man,Right,
,,,,,,,,,,,,,,,,,578,18,Man,Right,1,66,0.15,1,180,-,180,0.7731653000000733,['n'],0.7845501000001605,1.792,827.3155736999997,,,,,578,18,Man,Right,
,,,,,,,,,,,,,,,,,578,18,Man,Right,1,38,0.4,1,180,-,180,0.8379844999999477,['n'],1.1613749999996799,1.732,831.8988462999996,,,,,578,18,Man,Right,
,,,,,,,,,,,,,,,,,578,18,Man,Right,1,77,0.15,2,0,180,180,1.2973894999995537,['n'],0.7861385000005612,1.57,836.9821776999997,,,,,578,18,Man,Right,
,,,,,,,,,,,,,,,,,578,18,Man,Right,1,42,0.4,1,180,-,180,0.6440168999997695,['n'],2.7069604999996955,1.674,844.3987216999994,,,,,578,18,Man,Right,
,,,,,,,,,,,,,,,,,578,18,Man,Right,1,64,0.15,1,0,-,180,4.164869100000033,['n'],3.9646891000002142,1.736,859.4654780999999,,,,,578,18,Man,Right,
,,,,,,,,,,,,,,,,,578,18,Man,Right,1,53,0.15,2,0,180,180,0.5020231999997122,['n'],0.8854356000001644,1.696,863.6988946000001,,,,,578,18,Man,Right,
,,,,,,,,,,,,,,,,,578,18,Man,Right,1,35,0.4,2,180,0,0,0.5806336999994528,['y'],0.8540515000004234,2.0,867.5821377000002,,,,,578,18,Man,Right,
,,,,,,,,,,,,,,,,,578,18,Man,Right,1,14,0.4,1,180,-,180,0.6396611000000121,['n'],1.1502305000003616,1.792,872.1820848999996,,,,,578,18,Man,Right,
,,,,,,,,,,,,,,,,,578,18,Man,Right,1,2,1,1,180,-,180,0.5375953000002482,['n'],0.926880600000004,2.0,876.0322378999999,,,,,578,18,Man,Right,
,,,,,,,,,,,,,,,,,578,18,Man,Right,1,63,0.15,2,180,0,0,1.1188755999992281,['y'],1.0315403999993578,1.244,880.8487206999998,,,,,578,18,Man,Right,
,,,,,,,,,,,,,,,,,578,18,Man,Right,1,16,0.4,1,0,-,0,0.5342454000001453,['n'],1.0155236000000514,1.624,885.6654263999999,,,,,578,18,Man,Right,
,,,,,,,,,,,,,,,,,578,18,Man,Right,1,65,0.15,2,0,180,180,0.8952450999995563,['n'],0.8326717999998436,1.672,890.1320516999995,,,,,578,18,Man,Right,
,,,,,,,,,,,,,,,,,578,18,Man,Right,1,45,0.15,2,0,180,180,1.3902258999996775,['y'],1.888773499999843,1.654,895.6653700999996,,,,,578,18,Man,Right,
,,,,,,,,,,,,,,,,,578,18,Man,Right,1,62,0.15,1,180,-,0,4.594718999999714,['n'],1.2265262000000803,1.424,904.0654230999999,,,,,578,18,Man,Right,
,,,,,,,,,,,,,,,,,578,18,Man,Right,1,22,0.4,1,180,-,180,1.8987298000001829,['n'],0.9317111999998815,1.158,909.4987952000001,,,,,578,18,Man,Right,
,,,,,,,,,,,,,,,,,578,18,Man,Right,1,54,0.15,1,180,-,180,1.7336765999998534,['n'],2.2877760999999737,1.4060000000000001,917.2986494999996,,,,,578,18,Man,Right,
,,,,,,,,,,,,,,,,,578,18,Man,Right,1,61,0.15,2,0,180,180,2.0630722000005335,['y'],0.9485412000003635,1.548,923.1153156,,,,,578,18,Man,Right,
,,,,,,,,,,,,,,,,,578,18,Man,Right,1,29,0.4,2,0,180,180,5.009125500000664,['y'],0.9575638999995135,1.604,931.7985410000001,,,,,578,18,Man,Right,
,,,,,,,,,,,,,,,,,578,18,Man,Right,1,56,0.15,1,0,-,180,0.9319315000002462,['y'],1.1344568999993498,1.562,936.7486131999995,,,,,578,18,Man,Right,
,,,,,,,,,,,,,,,,,578,18,Man,Right,1,46,0.15,1,180,-,0,0.9647329999997964,['y'],1.1992915000000721,1.564,941.6819206999999,,,,,578,18,Man,Right,
,,,,,,,,,,,,,,,,,578,18,Man,Right,1,7,1,2,180,0,0,0.6481475000000501,['y'],0.9594644999997399,2.0,945.7152912000001,,,,,578,18,Man,Right,
,,,,,,,,,,,,,,,,,578,18,Man,Right,1,25,0.4,2,0,180,180,0.5070213999997577,['y'],0.8479860999996163,2.0,949.7320688,,,,,578,18,Man,Right,
,,,,,,,,,,,,,,,,,578,18,Man,Right,1,43,0.4,2,180,0,0,0.5137172999993709,['y'],1.0563604999997551,2.0,953.8819551999995,,,,,578,18,Man,Right,
,,,,,,,,,,,,,,,,,578,18,Man,Right,1,11,0.4,2,180,0,0,0.30216400000063004,['y'],1.0014930999996068,2.0,957.5985652999998,,,,,578,18,Man,Right,
,,,,,,,,,,,,,,,,,578,18,Man,Right,1,27,0.4,2,180,0,0,0.302822799999376,['y'],1.0174867999994603,2.0,961.6651583000003,,,,,578,18,Man,Right,
,,,,,,,,,,,,,,,,,578,18,Man,Right,1,51,0.15,2,180,0,0,0.9100460999998177,['y'],1.0334390999996685,2.0,966.0320131999997,,,,,578,18,Man,Right,
,,,,,,,,,,,,,,,,,578,18,Man,Right,1,70,0.15,1,180,-,0,2.7748101999995924,['n'],1.8189735000005385,1.5779999999999998,973.3485240999998,,,,,578,18,Man,Right,
,,,,,,,,,,,,,,,,,578,18,Man,Right,1,75,0.15,2,180,0,0,0.34767490000012913,['y'],1.4193608000005042,2.0,977.5319610999995,,,,,578,18,Man,Right,
,,,,,,,,,,,,,,,,,578,18,Man,Right,1,34,0.4,1,180,-,180,0.5883193999998184,['n'],1.4278006999993522,1.754,982.5153732999997,,,,,578,18,Man,Right,
,,,,,,,,,,,,,,,,,578,18,Man,Right,1,28,0.4,1,0,-,180,1.7022690000003422,['y'],1.0767270000005738,1.1320000000000001,989.4151772999994,,,,,578,18,Man,Right,
,,,,,,,,,,,,,,,,,578,18,Man,Right,1,8,0.4,1,0,-,0,0.5861724000005779,['n'],1.0212632000002486,1.642,993.5318293999999,,,,,578,18,Man,Right,
,,,,,,,,,,,,,,,,,578,18,Man,Right,1,31,0.4,2,180,0,0,0.3030168000004778,['y'],1.9420160999998188,1.764,998.7650814999997,,,,,578,18,Man,Right,
,,,,,,,,,,,,,,,,,578,18,Man,Right,1,52,0.15,1,0,-,180,1.2282080000004498,['n'],3.871482699999433,1.37,1016.9152561000001,,,,,578,18,Man,Right,
,,,,,,,,,,,,,,,,,578,18,Man,Right,1,37,0.4,2,0,180,180,0.32892009999977745,['y'],1.336778900000354,1.702,1023.3651365999995,,,,,578,18,Man,Right,
,,,,,,,,,,,,,,,,,578,18,Man,Right,1,19,0.4,2,180,0,0,0.7687881000001653,['y'],0.49765969999953086,1.94,1030.0150988999994,,,,,578,18,Man,Right,
,,,,,,,,,,,,,,,,,578,18,Man,Right,1,32,0.4,1,0,-,0,0.6306249999997817,['n'],1.1382050000001982,1.93,1034.0651589,,,,,578,18,Man,Right,
,,,,,,,,,,,,,,,,,578,18,Man,Right,1,24,0.4,1,0,-,0,0.7822696000002907,['n'],1.0430787000004784,1.6560000000000001,1038.1984297,,,,,578,18,Man,Right,
,,,,,,,,,,,,,,,,,578,18,Man,Right,1,0,1,1,0,-,0,0.31328859999939596,['n'],0.8835214999999152,1.87,1041.7983460999994,,,,,578,18,Man,Right,
,,,,,,,,,,,,,,,,,578,18,Man,Right,1,26,0.4,1,180,-,180,0.6976212999998097,['n'],1.8678694999998697,1.676,1047.7150700000002,,,,,578,18,Man,Right,
,,,,,,,,,,,,,,,,,578,18,Man,Right,1,41,0.4,2,0,180,180,2.3374187999997957,['y'],2.0850460999999996,1.698,1055.7316696999997,,,,,578,18,Man,Right,
,,,,,,,,,,,,,,,,,578,18,Man,Right,1,49,0.15,2,0,180,180,0.866911600000094,['y'],0.8484269999999015,1.6320000000000001,1060.8483965999994,,,,,578,18,Man,Right,
,,,,,,,,,,,,,,,,,578,18,Man,Right,1,50,0.15,1,180,-,180,0.9601780000002691,['n'],0.8462331000000631,1.6320000000000001,1065.2483262999995,,,,,578,18,Man,Right,
,,,,,,,,,,,,,,,,,578,18,Man,Right,1,15,0.4,2,180,0,0,0.3533646999994744,['y'],1.2389431999999942,2.0,1069.6483969,,,,,578,18,Man,Right,
,,,,,,,,,,,,,,,,,578,18,Man,Right,1,48,0.15,1,0,-,0,0.4446809999999459,['n'],0.9274717000007513,1.6219999999999999,1073.8482861000002,,,,,578,18,Man,Right,
,,,,,,,,,,,,,,,,,578,18,Man,Right,1,78,0.15,1,180,-,180,0.399785200000224,['n'],0.8477143999998589,1.5819999999999999,1077.698375,,,,,578,18,Man,Right,
,,,,,,,,,,,,,,,,,578,18,Man,Right,1,12,0.4,1,0,-,0,0.31983479999962583,['n'],0.8962467000001197,1.5899999999999999,1081.0649984000001,,,,,578,18,Man,Right,
,,,,,,,,,,,,,,,,,578,18,Man,Right,1,74,0.15,1,180,-,0,3.275862700000289,['n'],0.9930106000001615,1.57,1087.8816500000003,,,,,578,18,Man,Right,
,,,,,,,,,,,,,,,,,578,18,Man,Right,1,76,0.15,1,0,-,0,1.4378859999997076,['n'],1.3939166000000114,1.686,1093.8483342999998,,,,,578,18,Man,Right,
,,,,,,,,,,,,,,,,,578,18,Man,Right,1,40,0.4,1,0,-,0,0.8764544999994541,['n'],0.9382759999998598,2.0,1097.9650036000003,,,,,578,18,Man,Right,
,,,,,,,,,,,,,,,,,578,18,Man,Right,1,68,0.15,1,0,-,180,4.2199094999996305,['n'],1.0595412000002398,1.688,1105.7149285999994,,,,,578,18,Man,Right,
,,,,,,,,,,,,,,,,,578,18,Man,Right,1,58,0.15,1,180,-,180,0.895707499999844,['n'],1.1878251999996792,1.674,1110.3982563999998,,,,,578,18,Man,Right,
,,,,,,,,,,,,,,,,,578,18,Man,Right,1,47,0.15,2,180,0,0,7.268441000000166,['n'],0.9971014999991894,1.77,1121.7648460999999,,,,,578,18,Man,Right,
,,,,,,,,,,,,,,,,,578,18,Man,Right,1,71,0.15,2,180,0,0,1.1324846999996225,['y'],1.5981612000005043,1.662,1127.5148088999995,,,,,578,18,Man,Right,
,,,,,,,,,,,,,,,,,578,18,Man,Right,1,36,0.4,1,0,-,0,0.7883887999996659,['n'],0.8705506999995123,1.698,1131.3981232999995,,,,,578,18,Man,Right,
,,,,,,,,,,,,,,,,,578,18,Man,Right,1,6,1,1,180,-,180,0.2513488000004145,['n'],1.110680400000092,1.724,1135.6648736999996,,,,,578,18,Man,Right,
,,,,,,,,,,,,,,,,,578,18,Man,Right,1,9,0.4,2,0,180,180,0.5065871000006155,['y'],0.9593383999999787,2.0,1139.7649855,,,,,578,18,Man,Right,
,,,,,,,,,,,,,,,,,578,18,Man,Right,1,17,0.4,2,0,180,180,0.4600167999997211,['y'],0.9277065000005678,2.0,1143.6649106999994,,,,,578,18,Man,Right,
,,,,,,,,,,,,,,,,,578,18,Man,Right,1,13,0.4,2,0,180,180,0.3424936000001253,['y'],1.104451500000323,2.0,1147.7482527000002,,,,,578,18,Man,Right,
,,,,,,,,,,,,,,,,,578,18,Man,Right,1,1,1,2,0,180,180,0.2453601000006529,['y'],0.8808836999996856,2.0,1151.3814965000001,,,,,578,18,Man,Right,
,,,,,,,,,,,,,,,,,578,18,Man,Right,1,33,0.4,2,0,180,180,0.2807959000001574,['y'],0.672958699999981,2.0,1154.7648729000002,,,,,578,18,Man,Right,
,,,,,,,,,,,,,,,,,578,18,Man,Right,1,57,0.15,2,0,180,180,0.6048401999996713,['y'],0.8896001000002798,1.6680000000000001,1159.1647001000001,,,,,578,18,Man,Right,
,,,,,,,,,,,,,,,,,578,18,Man,Right,1,67,0.15,2,180,0,0,0.589048300000286,['y'],0.810293599999568,1.732,1163.3813903,,,,,578,18,Man,Right,
,,,,,,,,,,,,,,,,,578,18,Man,Right,1,23,0.4,2,180,0,0,0.31843750000007276,['y'],0.6655036000001928,2.0,1166.9650732999999,,,,,578,18,Man,Right,
,,,,,,,,,,,,,,,,,578,18,Man,Right,1,30,0.4,1,180,-,180,0.8759401000006619,['n'],0.7720632000000478,1.748,1171.8647992999995,,,,,578,18,Man,Right,
,,,,,,,,,,,,,,,,,578,18,Man,Right,1,79,0.15,2,180,0,0,0.99232370000027,['y'],4.796402599999965,1.6480000000000001,1180.3980744,,,,,578,18,Man,Right,
,,,,,,,,,,,,,,,,,578,18,Man,Right,1,18,0.4,1,180,-,180,0.675523400000202,['n'],0.9966764000000694,1.6219999999999999,1184.398083,,,,,578,18,Man,Right,
,,,,,,,,,,,,,,,,,578,18,Man,Right,1,44,0.15,1,0,-,180,1.3560475000003862,['n'],5.277894799999558,1.6600000000000001,1193.1814607999995,,,,,578,18,Man,Right,
,,,,,,,,,,,,,,,,,578,18,Man,Right,1,10,0.4,1,180,-,180,0.6039770000006683,['n'],0.8542065000001458,2.0,1196.8483393999995,,,,,578,18,Man,Right,
,,,,,,,,,,,,,,,,,578,18,Man,Right,1,55,0.15,2,180,0,0,0.5364160999997694,['y'],1.0228742999997849,1.876,1201.2813557999998,,,,,578,18,Man,Right,
,,,,,,,,,,,,,,,,,578,18,Man,Right,1,72,0.15,1,0,-,0,0.4616071999998894,['y'],1.2952422999996998,1.546,1205.5480349,,,,,578,18,Man,Right,
,,,,,,,,,,,,,,,,,578,18,Man,Right,1,73,0.15,2,0,180,180,4.266918899999837,['y'],1.2195111000000907,1.096,1213.4146891,,,,,578,18,Man,Right,
,,,,,,,,,,,,,,,,,578,18,Man,Right,1,59,0.15,2,180,0,0,0.8179187000005186,['y'],1.3365126000007876,1.704,1218.4147211999998,,,,,578,18,Man,Right,
,,,,,,,,,,,,,,,,,578,18,Man,Right,1,60,0.15,1,0,-,0,0.7547230999998646,['n'],0.9775612000003093,1.6560000000000001,1222.5979842999996,,,,,578,18,Man,Right,
,,,,,,,,,,,,,,,,,578,18,Man,Right,1,21,0.4,2,0,180,180,0.2841837999994823,['y'],0.7618612000005669,2.0,1225.8314645,,,,,578,18,Man,Right,
,,,,,,,,,,,,,,,,,578,18,Man,Right,1,69,0.15,2,0,180,180,0.19549749999987398,['y'],1.5223541999994268,2.0,1229.9314040999998,,,,,578,18,Man,Right,
,,,,,,,,,,,,,,,,,578,18,Man,Right,1,39,0.4,2,180,0,0,0.14981409999927564,['y'],0.6268168999995396,2.0,1232.9480936999998,,,,,578,18,Man,Right,
,,,,,,,,,,,,,,,,,578,18,Man,Right,2,28,0.4,1,0,-,0,0.7057886000002327,['n'],1.1103753999996115,1.642,1261.3312185999994,86.25,90.0,90.0,,578,18,Man,Right,
,,,,,,,,,,,,,,,,,578,18,Man,Right,2,31,0.4,2,180,0,0,0.2864539000001969,['y'],0.8952778000002581,1.6179999999999999,1264.7479719000003,,,,,578,18,Man,Right,
,,,,,,,,,,,,,,,,,578,18,Man,Right,2,42,0.4,1,180,-,180,0.3800712000002022,['n'],0.8549195999994481,1.746,1268.3145705999996,,,,,578,18,Man,Right,
,,,,,,,,,,,,,,,,,578,18,Man,Right,2,10,0.4,1,180,-,180,0.5638380000000325,['n'],0.7192051000001811,1.69,1271.9312169999994,,,,,578,18,Man,Right,
,,,,,,,,,,,,,,,,,578,18,Man,Right,2,75,0.15,2,180,0,0,0.4137839000004533,['y'],0.7677904000001945,1.678,1275.1979308999998,,,,,578,18,Man,Right,
,,,,,,,,,,,,,,,,,578,18,Man,Right,2,29,0.4,2,0,180,180,0.33972869999979594,['y'],1.1046564000007493,2.0,1278.7480466999996,,,,,578,18,Man,Right,
,,,,,,,,,,,,,,,,,578,18,Man,Right,2,69,0.15,2,0,180,180,1.3104410999994798,['n'],1.3769478999993225,1.982,1283.8979854,,,,,578,18,Man,Right,
,,,,,,,,,,,,,,,,,578,18,Man,Right,2,60,0.15,1,0,-,0,2.653980300000512,['n'],1.4578839000005246,1.658,1290.8478252999994,,,,,578,18,Man,Right,
,,,,,,,,,,,,,,,,,578,18,Man,Right,2,74,0.15,1,180,-,0,1.6794823999998698,['n'],1.3146811999995407,1.658,1296.1311901999998,,,,,578,18,Man,Right,
,,,,,,,,,,,,,,,,,578,18,Man,Right,2,11,0.4,2,180,0,0,0.6914199999991979,['y'],1.163195899999664,2.0,1300.3812652999995,,,,,578,18,Man,Right,
,,,,,,,,,,,,,,,,,578,18,Man,Right,2,34,0.4,1,180,-,180,0.5547391000000061,['y'],0.9395405000004757,1.0,1306.1478060999998,,,,,578,18,Man,Right,
,,,,,,,,,,,,,,,,,578,18,Man,Right,2,23,0.4,2,180,0,0,0.35311189999993076,['y'],2.4041799000005994,2.0,1311.4979021999998,,,,,578,18,Man,Right,
,,,,,,,,,,,,,,,,,578,18,Man,Right,2,4,1,1,0,-,0,0.28825959999994666,['n'],1.044170099999974,2.0,1315.4312844999995,,,,,578,18,Man,Right,
,,,,,,,,,,,,,,,,,578,18,Man,Right,2,43,0.4,2,180,0,0,0.24956360000032873,['y'],1.0373024000000441,2.0,1319.5312188999997,,,,,578,18,Man,Right,
,,,,,,,,,,,,,,,,,578,18,Man,Right,2,38,0.4,1,180,-,180,0.5083740000000034,['n'],0.7496219000004203,1.854,1323.397916,,,,,578,18,Man,Right,
,,,,,,,,,,,,,,,,,578,18,Man,Right,2,52,0.15,1,0,-,0,0.6047859999998764,['n'],0.822403299999678,1.794,1327.3810275999995,,,,,578,18,Man,Right,
,,,,,,,,,,,,,,,,,578,18,Man,Right,2,70,0.15,1,180,-,180,1.909953399999722,['n'],0.8313945999998396,1.592,1333.3145665000002,,,,,578,18,Man,Right,
,,,,,,,,,,,,,,,,,578,18,Man,Right,2,72,0.15,1,0,-,0,0.4434966999997414,['n'],0.8796235999998316,1.696,1337.3144511,,,,,578,18,Man,Right,
,,,,,,,,,,,,,,,,,578,18,Man,Right,2,71,0.15,2,180,0,0,0.3130584999998973,['y'],0.9359764000000723,1.684,1340.6810749999995,,,,,578,18,Man,Right,
,,,,,,,,,,,,,,,,,578,18,Man,Right,2,46,0.15,1,180,-,180,1.143244699999741,['n'],1.0166277999996964,1.686,1345.0477296999998,,,,,578,18,Man,Right,
,,,,,,,,,,,,,,,,,578,18,Man,Right,2,18,0.4,1,180,-,180,2.8516896000000997,['n'],0.9450686999998652,1.708,1351.5477179,,,,,578,18,Man,Right,
,,,,,,,,,,,,,,,,,578,18,Man,Right,2,32,0.4,1,0,-,0,0.41957930000080523,['n'],1.3699894000001223,1.12,1356.1977510999996,,,,,578,18,Man,Right,
,,,,,,,,,,,,,,,,,578,18,Man,Right,2,51,0.15,2,180,0,0,1.0333997999996427,['y'],1.2351631999999881,1.294,1361.9476533999996,,,,,578,18,Man,Right,
,,,,,,,,,,,,,,,,,578,18,Man,Right,2,26,0.4,1,180,-,180,0.6910719999996218,['n'],0.9150517999996737,1.592,1366.6476848000002,,,,,578,18,Man,Right,
,,,,,,,,,,,,,,,,,578,18,Man,Right,2,64,0.15,1,0,-,0,0.4315182000000277,['n'],0.8678166999998211,1.6,1370.2143545,,,,,578,18,Man,Right,
,,,,,,,,,,,,,,,,,578,18,Man,Right,2,62,0.15,1,180,-,180,2.9391395000002376,['n'],1.6604544000001624,1.6059999999999999,1377.3143605999994,,,,,578,18,Man,Right,
,,,,,,,,,,,,,,,,,578,18,Man,Right,2,12,0.4,1,0,-,0,1.0927812999998423,['n'],2.42082180000034,1.388,1388.3809188999994,,,,,578,18,Man,Right,
,,,,,,,,,,,,,,,,,578,18,Man,Right,2,63,0.15,2,180,0,180,7.692938299999696,['n'],2.6316108999999415,1.6640000000000001,1401.3309180999995,,,,,578,18,Man,Right,
,,,,,,,,,,,,,,,,,578,18,Man,Right,2,53,0.15,2,0,180,180,0.8080626999999367,['y'],0.8878905999999915,1.736,1405.3975885999998,,,,,578,18,Man,Right,
,,,,,,,,,,,,,,,,,578,18,Man,Right,2,77,0.15,2,0,180,180,3.0916778999999224,['n'],0.8567000000002736,1.554,1412.2308429999994,,,,,578,18,Man,Right,
,,,,,,,,,,,,,,,,,578,18,Man,Right,2,37,0.4,2,0,180,180,0.38775059999989026,['y'],1.4730371999994532,1.0,1416.6643112000002,,,,,578,18,Man,Right,
,,,,,,,,,,,,,,,,,578,18,Man,Right,2,1,1,2,0,180,180,1.0838063000001057,['y'],0.36312900000029913,2.0,1420.8142066999999,,,,,578,18,Man,Right,
,,,,,,,,,,,,,,,,,578,18,Man,Right,2,41,0.4,2,0,180,180,0.30901730000005045,['y'],0.8103859000002558,2.0,1424.4143677000002,,,,,578,18,Man,Right,
,,,,,,,,,,,,,,,,,578,18,Man,Right,2,21,0.4,2,0,180,180,0.2578537999997934,['y'],0.6589893000000302,2.0,1427.5643442,,,,,578,18,Man,Right,
,,,,,,,,,,,,,,,,,578,18,Man,Right,2,39,0.4,2,180,0,180,0.45978230000037,['y'],2.7633546999995815,2.0,1432.9310122999996,,,,,578,18,Man,Right,
,,,,,,,,,,,,,,,,,578,18,Man,Right,2,65,0.15,2,0,180,180,0.5252540999999837,['y'],1.1478322000002663,2.0,1436.8975765999994,,,,,578,18,Man,Right,
,,,,,,,,,,,,,,,,,578,18,Man,Right,2,5,1,2,0,180,180,0.3269889000002877,['y'],0.5961659000004147,2.0,1440.6475043,,,,,578,18,Man,Right,
,,,,,,,,,,,,,,,,,578,18,Man,Right,2,14,0.4,1,180,-,180,0.7097654999997758,['n'],1.3408762999997634,2.0,1445.0809430999998,,,,,578,18,Man,Right,
,,,,,,,,,,,,,,,,,578,18,Man,Right,2,78,0.15,1,180,-,0,1.49395050000021,['n'],1.6374217000002318,1.028,1450.8641822,,,,,578,18,Man,Right,
,,,,,,,,,,,,,,,,,578,18,Man,Right,2,0,1,1,0,-,0,0.4636703000005582,['n'],1.0780666000000565,2.0,1455.4642360999997,,,,,578,18,Man,Right,
,,,,,,,,,,,,,,,,,578,18,Man,Right,2,67,0.15,2,180,0,180,1.528515900000457,['n'],0.895078999999896,1.786,1460.6474594000001,,,,,578,18,Man,Right,
,,,,,,,,,,,,,,,,,578,18,Man,Right,2,68,0.15,1,0,-,0,1.663035900000068,['n'],0.8073663000004672,1.726,1465.4807953,,,,,578,18,Man,Right,
,,,,,,,,,,,,,,,,,578,18,Man,Right,2,8,0.4,1,0,-,0,0.30068759999994654,['n'],0.7839165999994293,2.0,1468.9474632000001,,,,,578,18,Man,Right,
,,,,,,,,,,,,,,,,,578,18,Man,Right,2,44,0.15,1,0,-,0,1.2512107999991713,['n'],2.1764761000004,1.73,1475.4307866,,,,,578,18,Man,Right,
,,,,,,,,,,,,,,,,,578,18,Man,Right,2,19,0.4,2,180,0,0,0.4959953999996287,['y'],1.1453216999998403,2.0,1479.6808319000002,,,,,578,18,Man,Right,
,,,,,,,,,,,,,,,,,578,18,Man,Right,2,66,0.15,1,180,-,0,2.5039050000004863,['n'],0.8577266000002055,1.828,1485.8474041,,,,,578,18,Man,Right,
,,,,,,,,,,,,,,,,,578,18,Man,Right,2,27,0.4,2,180,0,0,0.2870467999991888,['y'],0.9542773000002853,2.0,1490.4308215,,,,,578,18,Man,Right,
,,,,,,,,,,,,,,,,,578,18,Man,Right,2,9,0.4,2,0,180,180,0.2865432000007786,['y'],2.322824099999707,1.822,1495.8307512000001,,,,,578,18,Man,Right,
,,,,,,,,,,,,,,,,,578,18,Man,Right,2,79,0.15,2,180,0,0,0.7598087999995187,['n'],1.14768340000046,1.776,1500.2640818999998,,,,,578,18,Man,Right,
,,,,,,,,,,,,,,,,,578,18,Man,Right,2,36,0.4,1,0,-,0,0.7782093999994686,['n'],0.8678382999996757,1.688,1504.2139553999996,,,,,578,18,Man,Right,
,,,,,,,,,,,,,,,,,578,18,Man,Right,2,30,0.4,1,180,-,180,0.6797669999996288,['n'],0.7485653999992792,1.726,1508.2974563999996,,,,,578,18,Man,Right,
,,,,,,,,,,,,,,,,,578,18,Man,Right,2,25,0.4,2,0,180,180,0.32580049999978655,['y'],0.8450293999994756,2.0,1512.1809526999996,,,,,578,18,Man,Right,
,,,,,,,,,,,,,,,,,578,18,Man,Right,2,17,0.4,2,0,180,180,0.37070889999995416,['y'],0.7493255000008503,2.0,1515.5473535,,,,,578,18,Man,Right,
,,,,,,,,,,,,,,,,,578,18,Man,Right,2,20,0.4,1,0,-,0,0.3634876999994958,['n'],0.6456605000003037,2.0,1518.7806383999996,,,,,578,18,Man,Right,
,,,,,,,,,,,,,,,,,578,18,Man,Right,2,61,0.15,2,0,180,0,2.000565500000448,['n'],0.5902826999999888,1.806,1524.381058,,,,,578,18,Man,Right,
,,,,,,,,,,,,,,,,,578,18,Man,Right,2,57,0.15,2,0,180,180,0.5392283999999563,['y'],3.6311837000002924,1.1219999999999999,1531.1639807000001,,,,,578,18,Man,Right,
,,,,,,,,,,,,,,,,,578,18,Man,Right,2,22,0.4,1,180,-,180,0.5523309999998673,['n'],0.8400714999997945,1.792,1535.1140263999996,,,,,578,18,Man,Right,
,,,,,,,,,,,,,,,,,578,18,Man,Right,2,35,0.4,2,180,0,0,0.449667099999715,['y'],1.2484140000005937,1.946,1539.4806928999997,,,,,578,18,Man,Right,
,,,,,,,,,,,,,,,,,578,18,Man,Right,2,13,0.4,2,0,180,180,0.4553544000000329,['y'],1.4169141000002128,1.8639999999999999,1544.2306233999998,,,,,578,18,Man,Right,
,,,,,,,,,,,,,,,,,578,18,Man,Right,2,73,0.15,2,0,180,180,0.8047520999998596,['n'],1.025333600000522,1.8639999999999999,1544.2306233999998,,,,,578,18,Man,Right,
,,,,,,,,,,,,,,,,,578,18,Man,Right,2,58,0.15,1,180,-,180,1.141677300000083,['n'],1.0181511000000683,1.81,1552.8472660999996,,,,,578,18,Man,Right,
,,,,,,,,,,,,,,,,,578,18,Man,Right,2,2,1,1,180,-,180,0.41527159999986907,['n'],2.642880499999592,1.806,1558.3471541999997,,,,,578,18,Man,Right,
,,,,,,,,,,,,,,,,,578,18,Man,Right,2,45,0.15,2,0,180,0,1.7646398999995654,['n'],0.827383099999679,1.792,1564.7472480999995,,,,,578,18,Man,Right,
,,,,,,,,,,,,,,,,,578,18,Man,Right,2,3,1,2,180,0,0,0.34661549999964336,['y'],0.9401616000004651,2.0,1568.5473321999998,,,,,578,18,Man,Right,
,,,,,,,,,,,,,,,,,578,18,Man,Right,2,6,1,1,180,-,180,0.370893100000103,['n'],0.5801501000005373,2.0,1572.1139984000001,,,,,578,18,Man,Right,
,,,,,,,,,,,,,,,,,578,18,Man,Right,2,49,0.15,2,0,180,0,1.610779999999977,['n'],1.597544399999606,1.9060000000000001,1578.0638843999996,,,,,578,18,Man,Right,
,,,,,,,,,,,,,,,,,578,18,Man,Right,2,50,0.15,1,180,-,180,1.2533086000003095,['n'],1.2379219000004014,1.752,1583.5305388999996,,,,,578,18,Man,Right,
,,,,,,,,,,,,,,,,,578,18,Man,Right,2,59,0.15,2,180,0,180,6.133371400000215,['n'],1.1594049000004816,1.752,1593.2305944999998,,,,,578,18,Man,Right,
,,,,,,,,,,,,,,,,,578,18,Man,Right,2,56,0.15,1,0,-,0,4.48288279999997,['n'],1.4998820000000705,1.726,1602.8470796000001,,,,,578,18,Man,Right,
,,,,,,,,,,,,,,,,,578,18,Man,Right,2,76,0.15,1,0,-,0,0.848062399999435,['n'],0.992791099999522,1.726,1606.8305137999996,,,,,578,18,Man,Right,
,,,,,,,,,,,,,,,,,578,18,Man,Right,2,48,0.15,1,0,-,0,1.4073826000003464,['n'],2.937614200000098,1.6059999999999999,1614.8303644999996,,,,,578,18,Man,Right,
,,,,,,,,,,,,,,,,,578,18,Man,Right,2,7,1,2,180,0,0,1.112708399999974,['y'],0.9703755999998975,2.0,1619.3306092000003,,,,,578,18,Man,Right,
,,,,,,,,,,,,,,,,,578,18,Man,Right,2,24,0.4,1,0,-,0,0.28526739999961137,['n'],1.1549275000006674,1.684,1623.3637946999997,,,,,578,18,Man,Right,
,,,,,,,,,,,,,,,,,578,18,Man,Right,2,33,0.4,2,0,180,180,0.43586190000041825,['y'],0.8032567999998719,1.684,1626.8971161999998,,,,,578,18,Man,Right,
,,,,,,,,,,,,,,,,,578,18,Man,Right,2,15,0.4,2,180,0,0,0.6225194999997257,['y'],0.5636539999995875,2.0,1630.4303952999999,,,,,578,18,Man,Right,
,,,,,,,,,,,,,,,,,578,18,Man,Right,2,16,0.4,1,0,-,0,0.8825040000001536,['n'],0.8680139999996754,1.638,1634.6470966999996,,,,,578,18,Man,Right,
,,,,,,,,,,,,,,,,,578,18,Man,Right,2,55,0.15,2,180,0,0,1.4650084000004426,['y'],0.8524956000001112,1.4060000000000001,1640.2803881999998,,,,,578,18,Man,Right,
,,,,,,,,,,,,,,,,,578,18,Man,Right,2,54,0.15,1,180,-,180,3.408850099999654,['n'],1.7253829999999653,1.6,1648.6638315999999,,,,,578,18,Man,Right,
,,,,,,,,,,,,,,,,,578,18,Man,Right,2,40,0.4,1,0,-,0,0.3932948000001488,['n'],0.7742110999997749,1.722,1652.3137203999995,,,,,578,18,Man,Right,
,,,,,,,,,,,,,,,,,578,18,Man,Right,2,47,0.15,2,180,0,0,1.3931023999994068,['n'],9.927414900000258,1.686,1665.8470153999997,,,,,578,18,Man,Right,
,,,,,,,,,,,,,,,,,578,18,Man,Right,3,15,0.4,2,180,0,0,0.35963079999964975,['y'],1.1577864000000773,2.0,1713.8802629000002,87.5,97.5,72.5,,578,18,Man,Right,
,,,,,,,,,,,,,,,,,578,18,Man,Right,3,4,1,1,0,-,0,0.30037150000043766,['n'],1.3529312999999092,1.776,1718.0969313999994,,,,,578,18,Man,Right,
,,,,,,,,,,,,,,,,,578,18,Man,Right,3,11,0.4,2,180,0,0,0.25123189999976603,['y'],0.7181877000002714,1.762,1721.2969224999997,,,,,578,18,Man,Right,
,,,,,,,,,,,,,,,,,578,18,Man,Right,3,36,0.4,1,0,-,0,0.23298260000046866,['n'],0.7988673999998355,1.768,1724.4301361999997,,,,,578,18,Man,Right,
,,,,,,,,,,,,,,,,,578,18,Man,Right,3,38,0.4,1,180,-,180,0.25798659999964,['n'],1.135732700000517,1.75,1728.7971459999999,,,,,578,18,Man,Right,
,,,,,,,,,,,,,,,,,578,18,Man,Right,3,65,0.15,2,0,180,180,0.9100372000002608,['y'],0.751858099999481,1.08,1732.997053,,,,,578,18,Man,Right,
,,,,,,,,,,,,,,,,,578,18,Man,Right,3,41,0.4,2,0,180,180,0.3306902000003902,['y'],1.0245717999996486,1.75,1738.0301029000002,,,,,578,18,Man,Right,
,,,,,,,,,,,,,,,,,578,18,Man,Right,3,29,0.4,2,0,180,180,0.28247949999968114,['y'],0.5532867000001715,2.0,1741.4635940999997,,,,,578,18,Man,Right,
,,,,,,,,,,,,,,,,,578,18,Man,Right,3,39,0.4,2,180,0,0,0.20028529999945022,['y'],0.6334535999994841,1.924,1744.9136127000002,,,,,578,18,Man,Right,
,,,,,,,,,,,,,,,,,578,18,Man,Right,3,25,0.4,2,0,180,180,0.22826939999958995,['y'],0.705658100000619,2.0,1748.5303009999998,,,,,578,18,Man,Right,
,,,,,,,,,,,,,,,,,578,18,Man,Right,3,55,0.15,2,180,0,180,0.6133002000005945,['n'],1.2982965999999578,1.802,1752.7969575999996,,,,,578,18,Man,Right,
,,,,,,,,,,,,,,,,,578,18,Man,Right,3,60,0.15,1,0,-,180,2.050237599999491,['y'],0.4911219000005076,1.0,1757.9802700999999,,,,,578,18,Man,Right,
,,,,,,,,,,,,,,,,,578,18,Man,Right,3,2,1,1,180,-,180,0.4337120000000141,['n'],0.6036775000002308,2.0,1761.6635287,,,,,578,18,Man,Right,
,,,,,,,,,,,,,,,,,578,18,Man,Right,3,0,1,1,0,-,0,0.35332710000056977,['n'],0.9881983000004766,1.842,1765.2301284999994,,,,,578,18,Man,Right,
,,,,,,,,,,,,,,,,,578,18,Man,Right,3,45,0.15,2,0,180,180,1.6569085000000996,['n'],0.6044517999998789,1.6019999999999999,1770.6301695000002,,,,,578,18,Man,Right,
,,,,,,,,,,,,,,,,,578,18,Man,Right,3,5,1,2,0,180,180,0.35975389999930485,['y'],0.6845013000001927,2.0,1773.8968871999996,,,,,578,18,Man,Right,
,,,,,,,,,,,,,,,,,578,18,Man,Right,3,69,0.15,2,0,180,180,1.696725300000253,['n'],1.053689000000304,1.1480000000000001,1779.1467860000002,,,,,578,18,Man,Right,
,,,,,,,,,,,,,,,,,578,18,Man,Right,3,78,0.15,1,180,-,180,2.9004409999997733,['y'],0.30722049999985757,1.0,1784.8300693,,,,,578,18,Man,Right,
,,,,,,,,,,,,,,,,,578,18,Man,Right,3,1,1,2,0,180,180,0.3920043000007354,['y'],0.7666669000000184,2.0,1788.4801639999996,,,,,578,18,Man,Right,
,,,,,,,,,,,,,,,,,578,18,Man,Right,3,50,0.15,1,180,-,180,1.263748499999565,['n'],0.9115531999996165,1.6360000000000001,1793.0967157999994,,,,,578,18,Man,Right,
,,,,,,,,,,,,,,,,,578,18,Man,Right,3,12,0.4,1,0,-,0,0.3062677999996595,['n'],0.8078482000000804,1.62,1796.3134493999996,,,,,578,18,Man,Right,
,,,,,,,,,,,,,,,,,578,18,Man,Right,3,75,0.15,2,180,0,0,1.3431117999998605,['n'],1.6486371000000872,1.0,1801.7301036999997,,,,,578,18,Man,Right,
,,,,,,,,,,,,,,,,,578,18,Man,Right,3,68,0.15,1,0,-,0,0.7620787000005294,['n'],0.9533488999995825,1.42,1806.1467573999998,,,,,578,18,Man,Right,
,,,,,,,,,,,,,,,,,578,18,Man,Right,3,74,0.15,1,180,-,180,0.580531499999779,['n'],0.5935421999993196,2.0,1810.7467422999998,,,,,578,18,Man,Right,
,,,,,,,,,,,,,,,,,578,18,Man,Right,3,72,0.15,1,0,-,180,0.44476050000048417,['n'],0.5618461000003663,1.544,1814.5466435999997,,,,,578,18,Man,Right,
,,,,,,,,,,,,,,,,,578,18,Man,Right,3,7,1,2,180,0,0,0.2526095000002897,['y'],0.6584193999997296,2.0,1817.6635041999998,,,,,578,18,Man,Right,
,,,,,,,,,,,,,,,,,578,18,Man,Right,3,30,0.4,1,180,-,180,0.3858658999997715,['n'],0.7147649999997157,1.904,1820.9801171999998,,,,,578,18,Man,Right,
,,,,,,,,,,,,,,,,,578,18,Man,Right,3,37,0.4,2,0,180,180,0.36405589999958465,['y'],0.6750512999997227,1.718,1824.4133854000002,,,,,578,18,Man,Right,
,,,,,,,,,,,,,,,,,578,18,Man,Right,3,61,0.15,2,0,180,180,0.785883699999431,['n'],0.5877742000002399,1.694,1827.9971662999997,,,,,578,18,Man,Right,
,,,,,,,,,,,,,,,,,578,18,Man,Right,3,34,0.4,1,180,-,180,1.202496599999904,['n'],0.8524301000006744,1.694,1832.1965721999995,,,,,578,18,Man,Right,
,,,,,,,,,,,,,,,,,578,18,Man,Right,3,16,0.4,1,0,-,0,0.2997912999999244,['n'],0.6288448999994216,1.694,1835.4132756999998,,,,,578,18,Man,Right,
,,,,,,,,,,,,,,,,,578,18,Man,Right,3,18,0.4,1,180,-,180,0.38371360000019195,['n'],1.0008948999993663,2.0,1839.0800419999996,,,,,578,18,Man,Right,
,,,,,,,,,,,,,,,,,578,18,Man,Right,3,33,0.4,2,0,180,180,0.45051409999996395,['y'],0.5962905000005776,2.0,1843.1799671999997,,,,,578,18,Man,Right,
,,,,,,,,,,,,,,,,,578,18,Man,Right,3,51,0.15,2,180,0,0,0.580089300000509,['y'],0.5658856999998534,1.788,1846.5299810999995,,,,,578,18,Man,Right,
,,,,,,,,,,,,,,,,,578,18,Man,Right,3,44,0.15,1,0,-,0,0.31732020000072225,['n'],0.6143481999997675,1.662,1849.7467059,,,,,578,18,Man,Right,
,,,,,,,,,,,,,,,,,578,18,Man,Right,3,14,0.4,1,180,-,180,0.5073105000001306,['n'],0.47867569999925763,1.616,1853.0465538999997,,,,,578,18,Man,Right,
,,,,,,,,,,,,,,,,,578,18,Man,Right,3,53,0.15,2,0,180,180,0.5518129000001863,['n'],0.735582099999192,1.616,1856.5133276999995,,,,,578,18,Man,Right,
,,,,,,,,,,,,,,,,,578,18,Man,Right,3,64,0.15,1,0,-,0,0.2879632000003767,['n'],0.7596527000005153,2.0,1859.6299093999996,,,,,578,18,Man,Right,
,,,,,,,,,,,,,,,,,578,18,Man,Right,3,26,0.4,1,180,-,180,0.5392621000000872,['n'],0.6240186000004542,1.832,1863.2798462,,,,,578,18,Man,Right,
,,,,,,,,,,,,,,,,,578,18,Man,Right,3,46,0.15,1,180,-,180,0.4240958000000319,['n'],0.6484220000002097,1.708,1866.6631625999999,,,,,578,18,Man,Right,
,,,,,,,,,,,,,,,,,578,18,Man,Right,3,73,0.15,2,0,180,0,0.6078245999997307,['y'],2.929355100000066,1.708,1872.4965744,,,,,578,18,Man,Right,
,,,,,,,,,,,,,,,,,578,18,Man,Right,3,19,0.4,2,180,0,0,0.30920959999912156,['y'],1.3138176000002204,1.708,1876.2965349999995,,,,,578,18,Man,Right,
,,,,,,,,,,,,,,,,,578,18,Man,Right,3,22,0.4,1,180,-,180,0.4585654999991675,['y'],1.345937199999753,1.708,1880.2632023999995,,,,,578,18,Man,Right,
,,,,,,,,,,,,,,,,,578,18,Man,Right,3,59,0.15,2,180,0,0,0.6009993000006943,['y'],0.7225663999997778,1.708,1883.7965440999997,,,,,578,18,Man,Right,
,,,,,,,,,,,,,,,,,578,18,Man,Right,3,8,0.4,1,0,-,0,0.2790850999999748,['n'],0.5469769000001179,1.708,1886.7964959,,,,,578,18,Man,Right,
,,,,,,,,,,,,,,,,,578,18,Man,Right,3,77,0.15,2,0,180,0,2.0757172000003266,['n'],0.9396671000004062,1.708,1886.7964959,,,,,578,18,Man,Right,
,,,,,,,,,,,,,,,,,578,18,Man,Right,3,13,0.4,2,0,180,180,0.41086300000006304,['y'],1.1637774999999237,2.0,1895.7801989999998,,,,,578,18,Man,Right,
,,,,,,,,,,,,,,,,,578,18,Man,Right,3,66,0.15,1,180,-,180,0.8463079000002836,['n'],0.6922365000000354,2.0,1895.7801989999998,,,,,578,18,Man,Right,
,,,,,,,,,,,,,,,,,578,18,Man,Right,3,9,0.4,2,0,180,180,0.3171619999993709,['y'],1.1326268000002528,1.708,1903.8463917,,,,,578,18,Man,Right,
,,,,,,,,,,,,,,,,,578,18,Man,Right,3,58,0.15,1,180,-,180,0.6056579999994938,['n'],0.621518400000241,1.708,1907.3131685999997,,,,,578,18,Man,Right,
,,,,,,,,,,,,,,,,,578,18,Man,Right,3,56,0.15,1,0,-,0,1.4289072999999917,['y'],0.8858964999999444,1.576,1912.4798861,,,,,578,18,Man,Right,
,,,,,,,,,,,,,,,,,578,18,Man,Right,3,35,0.4,2,180,0,0,0.3705033000005642,['y'],1.0306312000002436,1.65,1916.5797780000003,,,,,578,18,Man,Right,
,,,,,,,,,,,,,,,,,578,18,Man,Right,3,6,1,1,180,-,180,0.29176759999973,['n'],0.6385854000000108,1.946,1920.5964112000001,,,,,578,18,Man,Right,
,,,,,,,,,,,,,,,,,578,18,Man,Right,3,57,0.15,2,0,180,180,0.49286100000063016,['y'],0.7672295000002123,1.946,1920.5964112000001,,,,,578,18,Man,Right,
,,,,,,,,,,,,,,,,,578,18,Man,Right,3,10,0.4,1,180,-,180,0.37170900000000984,['y'],0.6316964999996344,1.634,1927.6797840999998,,,,,578,18,Man,Right,
,,,,,,,,,,,,,,,,,578,18,Man,Right,3,71,0.15,2,180,0,0,0.4834584000000177,['y'],0.5682552999996915,1.6099999999999999,1930.8631242000001,,,,,578,18,Man,Right,
,,,,,,,,,,,,,,,,,578,18,Man,Right,3,76,0.15,1,0,-,0,0.6826015000006009,['n'],0.5530091000000539,1.6099999999999999,1930.8631242000001,,,,,578,18,Man,Right,
,,,,,,,,,,,,,,,,,578,18,Man,Right,3,21,0.4,2,0,180,180,0.9853198000000702,['y'],0.48929839999982505,2.0,1938.5631950999996,,,,,578,18,Man,Right,
,,,,,,,,,,,,,,,,,578,18,Man,Right,3,3,1,2,180,0,0,0.3339923000003182,['y'],0.5457502999997814,2.0,1941.6965671999997,,,,,578,18,Man,Right,
,,,,,,,,,,,,,,,,,578,18,Man,Right,3,54,0.15,1,180,-,180,0.7615012999995088,['n'],0.6500612999998339,2.0,1941.6965671999997,,,,,578,18,Man,Right,
,,,,,,,,,,,,,,,,,578,18,Man,Right,3,40,0.4,1,0,-,0,0.24339379999946686,['n'],0.7305944999998246,2.0,1948.8464296000002,,,,,578,18,Man,Right,
,,,,,,,,,,,,,,,,,578,18,Man,Right,3,62,0.15,1,180,-,180,0.904520600000069,['y'],0.9307380000000194,1.0,1953.3797493000002,,,,,578,18,Man,Right,
,,,,,,,,,,,,,,,,,578,18,Man,Right,3,63,0.15,2,180,0,0,1.1005546999995204,['y'],0.8099342000004981,1.3559999999999999,1957.6297551999996,,,,,578,18,Man,Right,
,,,,,,,,,,,,,,,,,578,18,Man,Right,3,23,0.4,2,180,0,0,1.3099631999994017,['y'],0.18019879999974364,2.0,1961.8798414000003,,,,,578,18,Man,Right,
,,,,,,,,,,,,,,,,,578,18,Man,Right,3,67,0.15,2,180,0,0,0.42679099999986647,['y'],0.5245630999997957,1.0,1965.0465026000002,,,,,578,18,Man,Right,
,,,,,,,,,,,,,,,,,578,18,Man,Right,3,52,0.15,1,0,-,0,1.2005554999996093,['n'],0.7092291999997542,1.0,1969.363085,,,,,578,18,Man,Right,
,,,,,,,,,,,,,,,,,578,18,Man,Right,3,24,0.4,1,0,-,0,0.26921480000055453,['n'],1.0532296999999744,2.0,1973.0297460000002,,,,,578,18,Man,Right,
,,,,,,,,,,,,,,,,,578,18,Man,Right,3,17,0.4,2,0,180,180,0.3317822000008164,['y'],0.45333750000008877,1.0,1976.0797653999998,,,,,578,18,Man,Right,
,,,,,,,,,,,,,,,,,578,18,Man,Right,3,79,0.15,2,180,0,0,0.4176735999999437,['y'],0.5820940999992672,2.0,1979.3963597000002,,,,,578,18,Man,Right,
,,,,,,,,,,,,,,,,,578,18,Man,Right,3,48,0.15,1,0,-,0,0.3501667999998972,['n'],0.7827150000002803,2.0,1982.6297064,,,,,578,18,Man,Right,
,,,,,,,,,,,,,,,,,578,18,Man,Right,3,31,0.4,2,180,0,0,0.5162326000008761,['y'],0.8712038000003304,2.0,1986.1299921,,,,,578,18,Man,Right,
,,,,,,,,,,,,,,,,,578,18,Man,Right,3,28,0.4,1,0,-,0,0.47175530000004073,['n'],0.5113597999998092,1.694,1989.3963125999999,,,,,578,18,Man,Right,
,,,,,,,,,,,,,,,,,578,18,Man,Right,3,49,0.15,2,0,180,180,0.29834980000032374,['y'],0.6638134000004356,1.166,1992.8629942999996,,,,,578,18,Man,Right,
,,,,,,,,,,,,,,,,,578,18,Man,Right,3,32,0.4,1,0,-,0,1.5446326000001136,['n'],0.9682822000004307,1.0,1997.6630636,,,,,578,18,Man,Right,
,,,,,,,,,,,,,,,,,578,18,Man,Right,3,70,0.15,1,180,-,180,0.6886335999997755,['n'],1.0007260000002134,1.0,1997.6630636,,,,,578,18,Man,Right,
,,,,,,,,,,,,,,,,,578,18,Man,Right,3,27,0.4,2,180,0,0,0.3845839999994496,['y'],0.5694458999996641,2.0,2004.7797252,,,,,578,18,Man,Right,
,,,,,,,,,,,,,,,,,578,18,Man,Right,3,43,0.4,2,180,0,0,0.2537094999997862,['y'],0.4575885999993261,1.838,2007.6461536999996,,,,,578,18,Man,Right,
,,,,,,,,,,,,,,,,,578,18,Man,Right,3,20,0.4,1,0,-,0,1.6201317000004565,['n'],0.39416849999997794,1.0,2012.0297187999995,,,,,578,18,Man,Right,
,,,,,,,,,,,,,,,,,578,18,Man,Right,3,42,0.4,1,180,-,180,1.146476600000824,['n'],0.3147490999999718,1.806,2016.2629497999997,,,,,578,18,Man,Right,
,,,,,,,,,,,,,,,,,578,18,Man,Right,3,47,0.15,2,180,0,0,0.42082510000000184,['y'],0.42731199999980163,1.9,2019.4130041999997,,,,,578,18,Man,Right,
,,,,,,,,,,,,,,,,,578,18,Man,Right,4,76,0.15,1,0,-,180,0.7343943999994735,['n'],1.2853695999992851,1.6059999999999999,2040.6628620000001,93.75,85.0,82.5,,578,18,Man,Right,
,,,,,,,,,,,,,,,,,578,18,Man,Right,4,70,0.15,1,180,-,0,0.350956799999949,['n'],0.9106931000005716,1.724,2044.3962211999997,,,,,578,18,Man,Right,
,,,,,,,,,,,,,,,,,578,18,Man,Right,4,19,0.4,2,180,0,0,0.3946133999997983,['y'],0.8544436000001951,1.634,2050.2128126,,,,,578,18,Man,Right,
,,,,,,,,,,,,,,,,,578,18,Man,Right,4,32,0.4,1,0,-,0,0.46764170000005834,['y'],0.41529869999976654,1.634,2054.0628536000004,,,,,578,18,Man,Right,
,,,,,,,,,,,,,,,,,578,18,Man,Right,4,73,0.15,2,0,180,180,2.071085400000811,['n'],0.7920025000003079,1.6400000000000001,2059.5461094,,,,,578,18,Man,Right,
,,,,,,,,,,,,,,,,,578,18,Man,Right,4,34,0.4,1,180,-,180,0.5360660999995162,['n'],0.4565563000014663,1.592,2062.8294719999994,,,,,578,18,Man,Right,
,,,,,,,,,,,,,,,,,578,18,Man,Right,4,43,0.4,2,180,0,0,0.3286127999999735,['y'],0.6170601999983774,1.79,2066.0794640999993,,,,,578,18,Man,Right,
,,,,,,,,,,,,,,,,,578,18,Man,Right,4,48,0.15,1,0,-,0,0.4580945999987307,['n'],0.5209278999991511,1.686,2069.2628435999995,,,,,578,18,Man,Right,
,,,,,,,,,,,,,,,,,578,18,Man,Right,4,60,0.15,1,0,-,0,0.6515274000012141,['n'],1.050020199998471,2.0,2072.9962345000004,,,,,578,18,Man,Right,
,,,,,,,,,,,,,,,,,578,18,Man,Right,4,35,0.4,2,180,0,0,0.4502462000000378,['y'],0.34964409999884083,2.0,2076.0461871999996,,,,,578,18,Man,Right,
,,,,,,,,,,,,,,,,,578,18,Man,Right,4,13,0.4,2,0,180,180,0.300569799999721,['y'],1.1224536000008811,2.0,2079.5629511999996,,,,,578,18,Man,Right,
,,,,,,,,,,,,,,,,,578,18,Man,Right,4,78,0.15,1,180,-,180,1.0140277999998943,['n'],0.21115400000053342,2.0,2083.4294972000007,,,,,578,18,Man,Right,
,,,,,,,,,,,,,,,,,578,18,Man,Right,4,27,0.4,2,180,0,0,0.48857609999868146,['y'],0.25921740000012505,1.8439999999999999,2086.4130050000003,,,,,578,18,Man,Right,
,,,,,,,,,,,,,,,,,578,18,Man,Right,4,72,0.15,1,0,-,180,1.388518899999326,['y'],0.49980110000069544,1.98,2090.4294735999993,,,,,578,18,Man,Right,
,,,,,,,,,,,,,,,,,578,18,Man,Right,4,21,0.4,2,0,180,180,1.531955399999788,['y'],0.5315898999997444,1.916,2094.5795689000006,,,,,578,18,Man,Right,
,,,,,,,,,,,,,,,,,578,18,Man,Right,4,6,1,1,180,-,180,0.9421503000012308,['n'],0.26887469999928726,2.0,2097.9629342999997,,,,,578,18,Man,Right,
,,,,,,,,,,,,,,,,,578,18,Man,Right,4,74,0.15,1,180,-,180,0.5804109000000608,['n'],0.30124810000052094,2.0,2101.0129142000005,,,,,578,18,Man,Right,
,,,,,,,,,,,,,,,,,578,18,Man,Right,4,12,0.4,1,0,-,0,0.36406519999945886,['n'],1.1573699000000488,2.0,2104.6794355,,,,,578,18,Man,Right,
,,,,,,,,,,,,,,,,,578,18,Man,Right,4,9,0.4,2,0,180,180,0.5104370999997627,['y'],0.7901080999999976,1.812,2108.2627549999997,,,,,578,18,Man,Right,
,,,,,,,,,,,,,,,,,578,18,Man,Right,4,64,0.15,1,0,-,180,1.0490019999997457,['n'],0.9025440000004892,1.0,2112.4128218000005,,,,,578,18,Man,Right,
,,,,,,,,,,,,,,,,,578,18,Man,Right,4,75,0.15,2,180,0,0,0.5246881000002759,['y'],2.8711261000007653,1.0,2118.2127284,,,,,578,18,Man,Right,
,,,,,,,,,,,,,,,,,578,18,Man,Right,4,36,0.4,1,0,-,0,0.36401549999936833,['n'],0.40747389999887673,2.0,2121.1295637000003,,,,,578,18,Man,Right,
,,,,,,,,,,,,,,,,,578,18,Man,Right,4,52,0.15,1,0,-,0,1.0157939000000624,['n'],0.9442118999995728,1.6480000000000001,2125.2461423000004,,,,,578,18,Man,Right,
,,,,,,,,,,,,,,,,,578,18,Man,Right,4,26,0.4,1,180,-,180,0.8841119000007893,['n'],0.488762000000861,1.684,2129.312708199999,,,,,578,18,Man,Right,
,,,,,,,,,,,,,,,,,578,18,Man,Right,4,2,1,1,180,-,180,1.2962956000010308,['n'],1.1052524000006088,1.826,2134.1127073000007,,,,,578,18,Man,Right,
,,,,,,,,,,,,,,,,,578,18,Man,Right,4,58,0.15,1,180,-,180,1.1174172999999428,['n'],0.34751040000082867,2.0,2137.7960772000006,,,,,578,18,Man,Right,
,,,,,,,,,,,,,,,,,578,18,Man,Right,4,11,0.4,2,180,0,0,0.32383350000054634,['y'],0.7061269000005268,1.938,2140.829346299999,,,,,578,18,Man,Right,
,,,,,,,,,,,,,,,,,578,18,Man,Right,4,47,0.15,2,180,0,0,0.4038148999989062,['n'],0.6989453999995021,1.072,2144.3960415,,,,,578,18,Man,Right,
,,,,,,,,,,,,,,,,,578,18,Man,Right,4,51,0.15,2,180,0,0,0.280460399999356,['y'],0.6509925000009389,1.1360000000000001,2147.8626423999995,,,,,578,18,Man,Right,
,,,,,,,,,,,,,,,,,578,18,Man,Right,4,59,0.15,2,180,0,0,1.7406310999995185,['y'],1.0275013999998919,1.0,2153.5460731000003,,,,,578,18,Man,Right,
,,,,,,,,,,,,,,,,,578,18,Man,Right,4,0,1,1,0,-,0,0.29992159999892465,['n'],1.2441197000007378,1.748,2157.4292733,,,,,578,18,Man,Right,
,,,,,,,,,,,,,,,,,578,18,Man,Right,4,41,0.4,2,0,180,180,0.38641370000004827,['y'],0.41253669999969134,2.0,2160.3294411000006,,,,,578,18,Man,Right,
,,,,,,,,,,,,,,,,,578,18,Man,Right,4,67,0.15,2,180,0,0,0.9597976999993989,['y'],0.6050699000006716,1.258,2164.1958928999993,,,,,578,18,Man,Right,
,,,,,,,,,,,,,,,,,578,18,Man,Right,4,68,0.15,1,0,-,0,0.625908600000912,['n'],0.86140400000113,1.666,2167.979228,,,,,578,18,Man,Right,
,,,,,,,,,,,,,,,,,578,18,Man,Right,4,42,0.4,1,180,-,0,0.354890599999635,['n'],1.0058692000002338,1.654,2171.512617299999,,,,,578,18,Man,Right,
,,,,,,,,,,,,,,,,,578,18,Man,Right,4,66,0.15,1,180,-,0,2.8882364999990386,['n'],0.6467262999995,1.146,2177.645916899999,,,,,578,18,Man,Right,
,,,,,,,,,,,,,,,,,578,18,Man,Right,4,69,0.15,2,0,180,180,1.2547273000000132,['n'],0.9750373999995645,1.0,2182.1625829999994,,,,,578,18,Man,Right,
,,,,,,,,,,,,,,,,,578,18,Man,Right,4,49,0.15,2,0,180,180,1.5723097999998572,['y'],1.3353787999985798,1.0,2188.3126441999993,,,,,578,18,Man,Right,
,,,,,,,,,,,,,,,,,578,18,Man,Right,4,38,0.4,1,180,-,180,0.8440823999990243,['n'],0.7122294000000693,1.826,2192.4125196999994,,,,,578,18,Man,Right,
,,,,,,,,,,,,,,,,,578,18,Man,Right,4,14,0.4,1,180,-,180,0.7289126999985456,['n'],3.6569625000011,1.786,2199.2458308000005,,,,,578,18,Man,Right,
,,,,,,,,,,,,,,,,,578,18,Man,Right,4,7,1,2,180,0,0,0.2529049999993731,['y'],0.45775249999860534,1.786,2202.0458904000006,,,,,578,18,Man,Right,
,,,,,,,,,,,,,,,,,578,18,Man,Right,4,30,0.4,1,180,-,180,0.36721140000008745,['n'],0.4794244000004255,1.79,2205.795818999999,,,,,578,18,Man,Right,
,,,,,,,,,,,,,,,,,578,18,Man,Right,4,57,0.15,2,0,180,180,1.575279099999534,['y'],0.4185885999995662,1.0,2210.0958998000006,,,,,578,18,Man,Right,
,,,,,,,,,,,,,,,,,578,18,Man,Right,4,50,0.15,1,180,-,180,0.7429026000008889,['n'],1.378271900000982,1.028,2214.8625221,,,,,578,18,Man,Right,
,,,,,,,,,,,,,,,,,578,18,Man,Right,4,54,0.15,1,180,-,180,0.40115229999901203,['n'],0.6675368000014714,1.8719999999999999,2218.4958702999993,,,,,578,18,Man,Right,
,,,,,,,,,,,,,,,,,578,18,Man,Right,4,24,0.4,1,0,-,0,0.3465789000001678,['n'],0.6360657000004721,1.8719999999999999,2218.4958702999993,,,,,578,18,Man,Right,
,,,,,,,,,,,,,,,,,578,18,Man,Right,4,44,0.15,1,0,-,0,0.3693562999997084,['n'],0.6843613000000914,1.5,2224.4499873000004,,,,,578,18,Man,Right,
,,,,,,,,,,,,,,,,,578,18,Man,Right,4,4,1,1,0,-,0,0.31250980000004347,['n'],0.36423910000121396,1.828,2228.662402,,,,,578,18,Man,Right,
,,,,,,,,,,,,,,,,,578,18,Man,Right,4,71,0.15,2,180,0,180,0.7627388000000792,['n'],0.5972199999996519,1.0,2232.4624549,,,,,578,18,Man,Right,
,,,,,,,,,,,,,,,,,578,18,Man,Right,4,8,0.4,1,0,-,0,3.336722900001405,['n'],0.83808130000034,1.0,2232.4624549,,,,,578,18,Man,Right,
,,,,,,,,,,,,,,,,,578,18,Man,Right,4,33,0.4,2,0,180,180,0.7490437000014936,['y'],0.24655150000035064,2.0,2242.8458838000006,,,,,578,18,Man,Right,
,,,,,,,,,,,,,,,,,578,18,Man,Right,4,45,0.15,2,0,180,180,0.6029233000008389,['y'],1.3989935999998124,1.752,2247.6293774000005,,,,,578,18,Man,Right,
,,,,,,,,,,,,,,,,,578,18,Man,Right,4,55,0.15,2,180,0,0,2.617189299999154,['y'],1.0479255999998713,1.0,2253.8625353000007,,,,,578,18,Man,Right,
,,,,,,,,,,,,,,,,,578,18,Man,Right,4,56,0.15,1,0,-,0,0.3840134999991278,['n'],0.8723675000001094,1.8519999999999999,2257.8290454,,,,,578,18,Man,Right,
,,,,,,,,,,,,,,,,,578,18,Man,Right,4,5,1,2,0,180,180,0.4460413000015251,['y'],0.34488450000026205,2.0,2261.2957432999992,,,,,578,18,Man,Right,
,,,,,,,,,,,,,,,,,578,18,Man,Right,4,25,0.4,2,0,180,180,0.7520989000004192,['y'],0.2892572000000655,2.0,2261.2957432999992,,,,,578,18,Man,Right,
,,,,,,,,,,,,,,,,,578,18,Man,Right,4,79,0.15,2,180,0,0,2.3327418999997462,['y'],0.7858849000003829,1.0,2270.1291105,,,,,578,18,Man,Right,
,,,,,,,,,,,,,,,,,578,18,Man,Right,4,28,0.4,1,0,-,0,0.2722406000011688,['n'],0.5941492000001745,1.714,2273.0958644,,,,,578,18,Man,Right,
,,,,,,,,,,,,,,,,,578,18,Man,Right,4,23,0.4,2,180,0,0,1.1378989999993792,['y'],0.6424899000012374,1.814,2276.9956939000003,,,,,578,18,Man,Right,
,,,,,,,,,,,,,,,,,578,18,Man,Right,4,20,0.4,1,0,-,0,0.24779130000024452,['n'],0.586966000000757,1.814,2279.8961653999995,,,,,578,18,Man,Right,
,,,,,,,,,,,,,,,,,578,18,Man,Right,4,65,0.15,2,0,180,180,0.9795661000007385,['n'],0.9155117000009341,2.0,2283.7957876,,,,,578,18,Man,Right,
,,,,,,,,,,,,,,,,,578,18,Man,Right,4,31,0.4,2,180,0,0,0.798854399999982,['y'],0.6200156999984756,1.75,2287.4790279999997,,,,,578,18,Man,Right,
,,,,,,,,,,,,,,,,,578,18,Man,Right,4,29,0.4,2,0,180,180,0.41797029999906954,['y'],0.8370709999999235,1.752,2290.912391599999,,,,,578,18,Man,Right,
,,,,,,,,,,,,,,,,,578,18,Man,Right,4,10,0.4,1,180,-,180,0.4321083999984694,['n'],0.4528632999990805,1.854,2294.212302599999,,,,,578,18,Man,Right,
,,,,,,,,,,,,,,,,,578,18,Man,Right,4,53,0.15,2,0,180,180,0.5312178000003769,['y'],0.9089138000017556,1.8599999999999999,2297.8956292000003,,,,,578,18,Man,Right,
,,,,,,,,,,,,,,,,,578,18,Man,Right,4,15,0.4,2,180,0,0,0.8233626000001095,['y'],0.3018269000003784,1.8599999999999999,2301.2289220000002,,,,,578,18,Man,Right,
,,,,,,,,,,,,,,,,,578,18,Man,Right,4,62,0.15,1,180,-,180,0.6900772999997571,['n'],0.3822481000006519,1.778,2305.0623959999994,,,,,578,18,Man,Right,
,,,,,,,,,,,,,,,,,578,18,Man,Right,4,22,0.4,1,180,-,180,1.2933482000007643,['n'],0.47071999999934633,1.776,2309.995650499999,,,,,578,18,Man,Right,
,,,,,,,,,,,,,,,,,578,18,Man,Right,4,1,1,2,0,180,180,0.5101296000011644,['y'],0.8633794999987003,2.0,2313.8455938999996,,,,,578,18,Man,Right,
,,,,,,,,,,,,,,,,,578,18,Man,Right,4,40,0.4,1,0,-,0,0.5234314999997878,['n'],0.487763700000869,1.6219999999999999,2317.7289089999995,,,,,578,18,Man,Right,
,,,,,,,,,,,,,,,,,578,18,Man,Right,4,63,0.15,2,180,0,0,0.7042364999997517,['n'],0.9202122000006057,2.0,2321.4122461999996,,,,,578,18,Man,Right,
,,,,,,,,,,,,,,,,,578,18,Man,Right,4,16,0.4,1,0,-,0,0.2670617999992828,['n'],0.4518463000003976,2.0,2324.9956624000006,,,,,578,18,Man,Right,
,,,,,,,,,,,,,,,,,578,18,Man,Right,4,3,1,2,180,0,0,0.5334667999995872,['y'],0.6331664999997884,2.0,2328.6290716999993,,,,,578,18,Man,Right,
,,,,,,,,,,,,,,,,,578,18,Man,Right,4,46,0.15,1,180,-,180,0.7470573000009608,['n'],0.26528700000017125,2.0,2331.9956820000007,,,,,578,18,Man,Right,
,,,,,,,,,,,,,,,,,578,18,Man,Right,4,39,0.4,2,180,0,0,0.5322066000007908,['y'],0.5619276000015816,1.6680000000000001,2335.3623542999994,,,,,578,18,Man,Right,
,,,,,,,,,,,,,,,,,578,18,Man,Right,4,17,0.4,2,0,180,180,0.6459378999988985,['y'],0.8340611999992689,2.0,2339.445737099999,,,,,578,18,Man,Right,
,,,,,,,,,,,,,,,,,578,18,Man,Right,4,61,0.15,2,0,180,180,1.356957699999839,['y'],0.3947793000006641,1.78,2343.3955726999993,,,,,578,18,Man,Right,
,,,,,,,,,,,,,,,,,578,18,Man,Right,4,37,0.4,2,0,180,180,0.33261769999990065,['y'],0.6114145999999892,1.96,2346.578996099999,,,,,578,18,Man,Right,
,,,,,,,,,,,,,,,,,578,18,Man,Right,4,18,0.4,1,180,-,180,0.5668384000000515,['n'],0.291595699998652,1.72,2349.7623645000003,,,,,578,18,Man,Right,
,,,,,,,,,,,,,,,,,578,18,Man,Right,4,77,0.15,2,0,180,180,0.6523116999997001,['y'],0.6440235999998549,1.0,2353.3289318000006,,,,,578,18,Man,Right,
,,,,,,,,,,,,,,,,,578,18,Man,Right,5,75,0.15,2,180,0,180,1.08225019999918,['n'],0.8694594999997207,1.0,2363.4956636999996,91.25,95.0,85.0,,578,18,Man,Right,
,,,,,,,,,,,,,,,,,578,18,Man,Right,5,6,1,1,180,-,180,0.39948680000088643,['n'],0.31786479999937,2.0,2367.395604899999,,,,,578,18,Man,Right,
,,,,,,,,,,,,,,,,,578,18,Man,Right,5,11,0.4,2,180,0,0,0.30694799999946554,['y'],0.7022908999988431,2.0,2370.595593,,,,,578,18,Man,Right,
,,,,,,,,,,,,,,,,,578,18,Man,Right,5,70,0.15,1,180,-,180,0.5190589000012551,['n'],0.3665092999999615,2.0,2373.8288011999994,,,,,578,18,Man,Right,
,,,,,,,,,,,,,,,,,578,18,Man,Right,5,14,0.4,1,180,-,180,0.8671405999994022,['n'],0.8869811999993544,1.0,2377.812194599999,,,,,578,18,Man,Right,
,,,,,,,,,,,,,,,,,578,18,Man,Right,5,79,0.15,2,180,0,180,1.1330365000012534,['n'],1.00759300000027,1.0,2382.5288674999993,,,,,578,18,Man,Right,
,,,,,,,,,,,,,,,,,578,18,Man,Right,5,56,0.15,1,0,-,0,0.7355867000005674,['n'],0.4644643999999971,1.836,2386.1288234000003,,,,,578,18,Man,Right,
,,,,,,,,,,,,,,,,,578,18,Man,Right,5,36,0.4,1,0,-,0,0.5593931999992492,['n'],0.5446493999988888,1.6640000000000001,2389.3955143999992,,,,,578,18,Man,Right,
,,,,,,,,,,,,,,,,,578,18,Man,Right,5,72,0.15,1,0,-,0,0.3563797999995586,['n'],0.5372748999998294,1.666,2392.4954691000003,,,,,578,18,Man,Right,
,,,,,,,,,,,,,,,,,578,18,Man,Right,5,19,0.4,2,180,0,0,1.4157638999986375,['y'],0.7533548999999766,1.666,2396.8954044,,,,,578,18,Man,Right,
,,,,,,,,,,,,,,,,,578,18,Man,Right,5,38,0.4,1,180,-,180,0.32312199999978475,['y'],0.705853899999056,1.666,2400.5121041,,,,,578,18,Man,Right,
,,,,,,,,,,,,,,,,,578,18,Man,Right,5,68,0.15,1,0,-,0,0.260976199999277,['n'],0.506448600001022,1.666,2404.1787602999993,,,,,578,18,Man,Right,
,,,,,,,,,,,,,,,,,578,18,Man,Right,5,57,0.15,2,0,180,0,0.9903842000003351,['n'],0.3067644000002474,1.666,2407.7787467,,,,,578,18,Man,Right,
,,,,,,,,,,,,,,,,,578,18,Man,Right,5,73,0.15,2,0,180,180,1.4127910999995947,['y'],0.6434224999993603,1.662,2412.4288326000005,,,,,578,18,Man,Right,
,,,,,,,,,,,,,,,,,578,18,Man,Right,5,9,0.4,2,0,180,180,0.24494310000045516,['n'],0.39615020000019285,1.0,2416.4129247,,,,,578,18,Man,Right,
,,,,,,,,,,,,,,,,,578,18,Man,Right,5,63,0.15,2,180,0,0,0.4683929000002536,['y'],0.5722016999989137,2.0,2419.8954871000005,,,,,578,18,Man,Right,
,,,,,,,,,,,,,,,,,578,18,Man,Right,5,43,0.4,2,180,0,0,0.24129069999980857,['y'],0.6764191999991453,1.8599999999999999,2423.1455138,,,,,578,18,Man,Right,
,,,,,,,,,,,,,,,,,578,18,Man,Right,5,47,0.15,2,180,0,0,0.33555469999919296,['y'],1.0050279999995837,1.76,2427.4455055,,,,,578,18,Man,Right,
,,,,,,,,,,,,,,,,,578,18,Man,Right,5,42,0.4,1,180,-,180,0.9686590999990585,['n'],0.3253189000006387,1.734,2431.2289203,,,,,578,18,Man,Right,
,,,,,,,,,,,,,,,,,578,18,Man,Right,5,54,0.15,1,180,-,180,1.6601152000002912,['y'],0.26190179999866814,1.0,2435.2619133999997,,,,,578,18,Man,Right,
,,,,,,,,,,,,,,,,,578,18,Man,Right,5,64,0.15,1,0,-,0,0.4360554000013508,['n'],0.5343566000010469,1.8980000000000001,2438.728723099999,,,,,578,18,Man,Right,
,,,,,,,,,,,,,,,,,578,18,Man,Right,5,5,1,2,0,180,180,0.35299879999911354,['y'],0.4792514000000665,1.974,2441.9122181000002,,,,,578,18,Man,Right,
,,,,,,,,,,,,,,,,,578,18,Man,Right,5,26,0.4,1,180,-,180,0.9352087000006577,['n'],0.28732140000101936,2.0,2445.4454552000007,,,,,578,18,Man,Right,
,,,,,,,,,,,,,,,,,578,18,Man,Right,5,4,1,1,0,-,0,0.36220569999932195,['n'],0.4474300999991101,2.0,2448.5953217000006,,,,,578,18,Man,Right,
,,,,,,,,,,,,,,,,,578,18,Man,Right,5,58,0.15,1,180,-,180,1.4704041000004509,['n'],0.840436000000409,1.666,2453.0453233999997,,,,,578,18,Man,Right,
,,,,,,,,,,,,,,,,,578,18,Man,Right,5,28,0.4,1,0,-,0,0.32292860000052315,['n'],0.9208081000015227,2.0,2456.5287427999992,,,,,578,18,Man,Right,
,,,,,,,,,,,,,,,,,578,18,Man,Right,5,44,0.15,1,0,-,0,0.28130659999987984,['n'],0.48110110000015993,2.0,2459.4289580999994,,,,,578,18,Man,Right,
,,,,,,,,,,,,,,,,,578,18,Man,Right,5,20,0.4,1,0,-,0,0.12317059999986668,['n'],0.5932661000006192,2.0,2462.3453847,,,,,578,18,Man,Right,
,,,,,,,,,,,,,,,,,578,18,Man,Right,5,27,0.4,2,180,0,0,0.47121209999932034,['y'],0.6338450999992347,2.0,2465.7787673000003,,,,,578,18,Man,Right,
,,,,,,,,,,,,,,,,,578,18,Man,Right,5,39,0.4,2,180,0,0,0.3093093999996199,['y'],0.5059557999993558,2.0,2469.1287992,,,,,578,18,Man,Right,
,,,,,,,,,,,,,,,,,578,18,Man,Right,5,55,0.15,2,180,0,0,0.6364534999993339,['n'],0.48269489999984216,1.926,2472.4787343999997,,,,,578,18,Man,Right,
,,,,,,,,,,,,,,,,,578,18,Man,Right,5,60,0.15,1,0,-,0,0.4917222000003676,['n'],0.443195800000467,1.966,2475.678667099999,,,,,578,18,Man,Right,
,,,,,,,,,,,,,,,,,578,18,Man,Right,5,59,0.15,2,180,0,0,0.3307081000002654,['n'],0.4352010999991762,2.0,2478.6119977,,,,,578,18,Man,Right,
,,,,,,,,,,,,,,,,,578,18,Man,Right,5,31,0.4,2,180,0,0,1.7728218000011111,['y'],0.2354832000000897,2.0,2483.3952907000003,,,,,578,18,Man,Right,
,,,,,,,,,,,,,,,,,578,18,Man,Right,5,8,0.4,1,0,-,0,0.34605089999968186,['n'],0.6928886999994575,1.776,2487.8619156999994,,,,,578,18,Man,Right,
,,,,,,,,,,,,,,,,,578,18,Man,Right,5,40,0.4,1,0,-,0,0.6516159000002517,['n'],0.5971857000004093,2.0,2491.178620999999,,,,,578,18,Man,Right,
,,,,,,,,,,,,,,,,,578,18,Man,Right,5,15,0.4,2,180,0,0,0.29693269999916083,['y'],0.5968738999999914,2.0,2494.2785941,,,,,578,18,Man,Right,
,,,,,,,,,,,,,,,,,578,18,Man,Right,5,23,0.4,2,180,0,0,0.28174220000073547,['y'],0.6219416000003548,2.0,2497.578665699999,,,,,578,18,Man,Right,
,,,,,,,,,,,,,,,,,578,18,Man,Right,5,0,1,1,0,-,0,0.3615791000011086,['n'],0.4697725000005448,2.0,2500.6785937999994,,,,,578,18,Man,Right,
,,,,,,,,,,,,,,,,,578,18,Man,Right,5,1,1,2,0,180,180,1.129844699999012,['y'],0.37466979999953764,2.0,2504.5286182,,,,,578,18,Man,Right,
,,,,,,,,,,,,,,,,,578,18,Man,Right,5,12,0.4,1,0,-,0,0.6322344000000157,['n'],0.3187574000003224,1.612,2507.995200899999,,,,,578,18,Man,Right,
,,,,,,,,,,,,,,,,,578,18,Man,Right,5,61,0.15,2,0,180,180,0.3080685999993875,['n'],0.519097000000329,1.0,2511.8453929000007,,,,,578,18,Man,Right,
,,,,,,,,,,,,,,,,,578,18,Man,Right,5,21,0.4,2,0,180,180,0.9787092000005941,['y'],0.24794180000026245,1.6680000000000001,2515.6785468,,,,,578,18,Man,Right,
,,,,,,,,,,,,,,,,,578,18,Man,Right,5,30,0.4,1,180,-,180,1.3467080000009446,['n'],0.2641521000005014,1.874,2519.5284969000004,,,,,578,18,Man,Right,
,,,,,,,,,,,,,,,,,578,18,Man,Right,5,65,0.15,2,0,180,180,0.7144914000000426,['y'],0.5611135999988619,1.774,2523.0785194,,,,,578,18,Man,Right,
,,,,,,,,,,,,,,,,,578,18,Man,Right,5,74,0.15,1,180,-,180,1.9441284999993513,['n'],3.329447199999777,1.696,2531.0617242999997,,,,,578,18,Man,Right,
,,,,,,,,,,,,,,,,,578,18,Man,Right,5,29,0.4,2,0,180,180,0.27517100000113714,['y'],0.6250880000006873,1.778,2534.2451808000005,,,,,578,18,Man,Right,
,,,,,,,,,,,,,,,,,578,18,Man,Right,5,48,0.15,1,0,-,0,0.442291599998498,['y'],0.7632018999993306,1.698,2538.445323599999,,,,,578,18,Man,Right,
,,,,,,,,,,,,,,,,,578,18,Man,Right,5,37,0.4,2,0,180,180,1.1086371000001236,['y'],0.24322049999864248,1.986,2542.1785055,,,,,578,18,Man,Right,
,,,,,,,,,,,,,,,,,578,18,Man,Right,5,52,0.15,1,0,-,0,0.48727059999873745,['n'],0.4277334999987943,1.98,2545.1785093,,,,,578,18,Man,Right,
,,,,,,,,,,,,,,,,,578,18,Man,Right,5,45,0.15,2,0,180,180,1.1995062999994843,['n'],1.5724028000004182,1.8479999999999999,2550.1284854999994,,,,,578,18,Man,Right,
,,,,,,,,,,,,,,,,,578,18,Man,Right,5,10,0.4,1,180,-,180,0.5362939999995433,['n'],0.9007082999996783,1.8479999999999999,2550.1284854999994,,,,,578,18,Man,Right,
,,,,,,,,,,,,,,,,,578,18,Man,Right,5,3,1,2,180,0,0,0.25013639999997395,['y'],0.7001660000005359,2.0,2556.8951001999994,,,,,578,18,Man,Right,
,,,,,,,,,,,,,,,,,578,18,Man,Right,5,51,0.15,2,180,0,180,0.5459396000005654,['n'],0.41339030000017374,2.0,2559.995168199999,,,,,578,18,Man,Right,
,,,,,,,,,,,,,,,,,578,18,Man,Right,5,53,0.15,2,0,180,180,1.4054796000000351,['n'],2.773919900000692,1.674,2566.2785550999997,,,,,578,18,Man,Right,
,,,,,,,,,,,,,,,,,578,18,Man,Right,5,25,0.4,2,0,180,180,0.6924370000015188,['y'],0.4462198000001081,1.938,2569.8617469,,,,,578,18,Man,Right,
,,,,,,,,,,,,,,,,,578,18,Man,Right,5,35,0.4,2,180,0,0,0.49855009999919275,['y'],0.28714989999934915,2.0,2572.7785134999995,,,,,578,18,Man,Right,
,,,,,,,,,,,,,,,,,578,18,Man,Right,5,49,0.15,2,0,180,180,1.6140657000014471,['n'],0.43982259999938833,2.0,2576.9285208,,,,,578,18,Man,Right,
,,,,,,,,,,,,,,,,,578,18,Man,Right,5,7,1,2,180,0,0,0.2569613000014215,['y'],0.44790549999925133,2.0,2579.8452196,,,,,578,18,Man,Right,
,,,,,,,,,,,,,,,,,578,18,Man,Right,5,13,0.4,2,0,180,180,0.9934125999989192,['y'],0.6960842000007688,1.748,2583.9450531,,,,,578,18,Man,Right,
,,,,,,,,,,,,,,,,,578,18,Man,Right,5,41,0.4,2,0,180,180,0.6061299000011786,['y'],0.7123599000005925,1.748,2587.4950602999997,,,,,578,18,Man,Right,
,,,,,,,,,,,,,,,,,578,18,Man,Right,5,66,0.15,1,180,-,180,0.5045941999997012,['n'],0.6253713999994943,1.748,2590.9117573000003,,,,,578,18,Man,Right,
,,,,,,,,,,,,,,,,,578,18,Man,Right,5,50,0.15,1,180,-,180,1.4327324999994744,['n'],0.8338590999992448,1.748,2595.2450061,,,,,578,18,Man,Right,
,,,,,,,,,,,,,,,,,578,18,Man,Right,5,18,0.4,1,180,-,180,0.45008600000073784,['n'],0.5382173999987572,1.748,2598.2784704999995,,,,,578,18,Man,Right,
,,,,,,,,,,,,,,,,,578,18,Man,Right,5,2,1,1,180,-,180,0.792600400000083,['n'],0.6427769999991142,2.0,2602.1117429000005,,,,,578,18,Man,Right,
,,,,,,,,,,,,,,,,,578,18,Man,Right,5,78,0.15,1,180,-,180,0.9992705000004207,['n'],0.6512777999996615,2.0,2605.9116887,,,,,578,18,Man,Right,
,,,,,,,,,,,,,,,,,578,18,Man,Right,5,77,0.15,2,0,180,180,0.5373134999990725,['y'],0.46749999999883585,1.198,2609.9283281999997,,,,,578,18,Man,Right,
,,,,,,,,,,,,,,,,,578,18,Man,Right,5,46,0.15,1,180,-,180,0.9535337000015716,['n'],0.7402808999995614,1.376,2613.945085899999,,,,,578,18,Man,Right,
,,,,,,,,,,,,,,,,,578,18,Man,Right,5,32,0.4,1,0,-,0,0.7286523999991914,['n'],0.6206361000004108,1.81,2617.4116694999993,,,,,578,18,Man,Right,
,,,,,,,,,,,,,,,,,578,18,Man,Right,5,16,0.4,1,0,-,0,0.6467559000011533,['n'],0.3012935999995534,1.806,2620.361664599999,,,,,578,18,Man,Right,
,,,,,,,,,,,,,,,,,578,18,Man,Right,5,34,0.4,1,180,-,180,0.4405026000004,['n'],0.7253187999995134,1.806,2623.8949759999996,,,,,578,18,Man,Right,
,,,,,,,,,,,,,,,,,578,18,Man,Right,5,67,0.15,2,180,0,180,0.6168047999999544,['n'],0.5690563999996812,1.806,2627.1283451,,,,,578,18,Man,Right,
,,,,,,,,,,,,,,,,,578,18,Man,Right,5,62,0.15,1,180,-,180,0.6491447999997035,['n'],0.7506108999987191,1.806,2627.1283451,,,,,578,18,Man,Right,
,,,,,,,,,,,,,,,,,578,18,Man,Right,5,76,0.15,1,0,-,0,1.924673099998472,['n'],0.9109215999997105,1.5,2635.3643596,,,,,578,18,Man,Right,
,,,,,,,,,,,,,,,,,578,18,Man,Right,5,17,0.4,2,0,180,180,0.5865749000004143,['y'],0.7998920000009093,1.744,2639.6282797999993,,,,,578,18,Man,Right,
,,,,,,,,,,,,,,,,,578,18,Man,Right,5,33,0.4,2,0,180,180,0.3899541999999201,['y'],0.8397713999984262,1.744,2643.0282267000002,,,,,578,18,Man,Right,
,,,,,,,,,,,,,,,,,578,18,Man,Right,5,22,0.4,1,180,-,180,0.6132626999988133,['n'],0.8885195999991993,1.684,2647.1282606999994,,,,,578,18,Man,Right,
,,,,,,,,,,,,,,,,,578,18,Man,Right,5,69,0.15,2,0,180,180,0.5856750000002648,['y'],0.42368660000101954,1.0,2650.5949598999996,,,,,578,18,Man,Right,
,,,,,,,,,,,,,,,,,578,18,Man,Right,5,24,0.4,1,0,-,0,0.4067027999990387,['n'],0.4483634999996866,1.77,2653.7448848000004,,,,,578,18,Man,Right,
,,,,,,,,,,,,,,,,,578,18,Man,Right,5,71,0.15,2,180,0,180,0.45753309999963676,['n'],0.6733857999988686,1.746,2657.0282456999994,,,,,578,18,Man,Right,
,,,,,,,,,,,,,,,,,,,,,,,,,,,,,,,,,92.5,92.5,67.5,2393.8290282999997,,,,,
