p_block,p_section,p_coherence,p_direction1,p_direction2,p_direction_response,p_direction_RT,p_change_response,p_change_RT,p_confidence,p_full_correct,p_without5_correct,p_full_total,p_without5_total,p_full_avg,p_witout5_avg,p_total_time,sub,age,sex,handedness,loop,trial randomization,coherence,condition,direction1,direction2,direction_response,direction_RT,change_response,change_RT,change_confidence,change_confidence_RT,block_direction_avg,block_stable_avg,block_change_avg,total_time,sub,age,sex,handedness,
1,1,1.0,180,-,180,5.485492400000112,-,-,-,,,,,,,,550,18,Woman,Right,,,,,,,,,,,,,,,,,550,18,Woman,Right,
1,1,1.0,0,-,0,0.8196965999995882,-,-,-,,,,,,,,550,18,Woman,Right,,,,,,,,,,,,,,,,,550,18,Woman,Right,
1,1,1.0,0,-,0,0.016812500000014552,-,-,-,,,,,,,,550,18,Woman,Right,,,,,,,,,,,,,,,,,550,18,Woman,Right,
1,1,1.0,0,-,0,0.016665000000102737,-,-,-,,,,,,,,550,18,Woman,Right,,,,,,,,,,,,,,,,,550,18,Woman,Right,
1,1,1.0,180,-,180,0.04715649999980087,-,-,-,,,,,,,,550,18,Woman,Right,,,,,,,,,,,,,,,,,550,18,Woman,Right,
1,1,1.0,0,-,0,2.016108499999973,-,-,-,,,,,,,,550,18,Woman,Right,,,,,,,,,,,,,,,,,550,18,Woman,Right,
1,1,1.0,0,-,0,0.01745039999968867,-,-,-,,,,,,,,550,18,Woman,Right,,,,,,,,,,,,,,,,,550,18,Woman,Right,
1,1,1.0,0,-,0,0.016740000000027067,-,-,-,,,,,,,,550,18,Woman,Right,,,,,,,,,,,,,,,,,550,18,Woman,Right,
1,1,1.0,180,-,180,1.652371299999686,-,-,-,,,,,,,,550,18,Woman,Right,,,,,,,,,,,,,,,,,550,18,Woman,Right,
1,1,1.0,0,-,0,0.1793757999994341,-,-,-,10,10,10,10,1.0,1.0,,550,18,Woman,Right,,,,,,,,,,,,,,,,,550,18,Woman,Right,
2,1,0.15,180,-,180,0.016900700000405777,-,-,-,,,,,,,,550,18,Woman,Right,,,,,,,,,,,,,,,,,550,18,Woman,Right,
2,1,0.15,180,-,0,0.01679280000007566,-,-,-,,,,,,,,550,18,Woman,Right,,,,,,,,,,,,,,,,,550,18,Woman,Right,
2,1,0.4,0,-,0,0.0165406999994957,-,-,-,,,,,,,,550,18,Woman,Right,,,,,,,,,,,,,,,,,550,18,Woman,Right,
2,1,0.4,180,-,180,0.8249526999998125,-,-,-,,,,,,,,550,18,Woman,Right,,,,,,,,,,,,,,,,,550,18,Woman,Right,
2,1,0.15,180,-,180,0.14662589999988995,-,-,-,,,,,,,,550,18,Woman,Right,,,,,,,,,,,,,,,,,550,18,Woman,Right,
2,1,0.15,180,-,180,0.3830660000003263,-,-,-,,,,,,,,550,18,Woman,Right,,,,,,,,,,,,,,,,,550,18,Woman,Right,
2,1,0.15,0,-,0,0.06600109999999404,-,-,-,,,,,,,,550,18,Woman,Right,,,,,,,,,,,,,,,,,550,18,Woman,Right,
2,1,0.4,180,-,180,0.6327514000004157,-,-,-,,,,,,,,550,18,Woman,Right,,,,,,,,,,,,,,,,,550,18,Woman,Right,
2,1,0.4,180,-,180,0.01690839999992022,-,-,-,,,,,,,,550,18,Woman,Right,,,,,,,,,,,,,,,,,550,18,Woman,Right,
2,1,0.15,0,-,0,0.22741170000062993,-,-,-,9,4,10,4,0.9,1.0,,550,18,Woman,Right,,,,,,,,,,,,,,,,,550,18,Woman,Right,
3,2,1.0,0,180,180,4.80024819999926,['y'],5.8038892000004125,2,,,,,,,,550,18,Woman,Right,,,,,,,,,,,,,,,,,550,18,Woman,Right,
3,2,1.0,0,180,180,1.3889369000007719,['y'],1.089697299999898,1.978,,,,,,,,550,18,Woman,Right,,,,,,,,,,,,,,,,,550,18,Woman,Right,
3,2,1.0,0,180,180,1.0161088999993808,['y'],0.5220917000006011,1.994,,,,,,,,550,18,Woman,Right,,,,,,,,,,,,,,,,,550,18,Woman,Right,
3,2,1.0,0,180,180,0.7064910999997664,['y'],0.8101454000006925,1.994,,,,,,,,550,18,Woman,Right,,,,,,,,,,,,,,,,,550,18,Woman,Right,
3,2,1.0,0,180,180,0.7197871999997005,['y'],0.2540888999992603,1.996,,,,,,,,550,18,Woman,Right,,,,,,,,,,,,,,,,,550,18,Woman,Right,
3,2,1.0,180,0,0,0.5513898999997764,['y'],0.45330160000048636,1.996,,,,,,,,550,18,Woman,Right,,,,,,,,,,,,,,,,,550,18,Woman,Right,
3,2,1.0,180,0,0,0.7553651999996873,['y'],0.24148609999974724,1.996,,,,,,,,550,18,Woman,Right,,,,,,,,,,,,,,,,,550,18,Woman,Right,
3,2,1.0,180,0,0,0.659420100000716,['y'],0.22160400000029767,1.996,,,,,,,,550,18,Woman,Right,,,,,,,,,,,,,,,,,550,18,Woman,Right,
3,2,1.0,180,0,0,0.48271569999997155,['y'],0.3957027999995262,1.996,,,,,,,,550,18,Woman,Right,,,,,,,,,,,,,,,,,550,18,Woman,Right,
3,2,1.0,180,0,0,0.2994562000003498,['y'],0.2675085000000763,1.996,10,10,10,10,1.0,1.0,,550,18,Woman,Right,,,,,,,,,,,,,,,,,550,18,Woman,Right,
4,2,0.4,0,180,0,0.9178758999996717,['y'],1.9720738999994865,1.986,,,,,,,,550,18,Woman,Right,,,,,,,,,,,,,,,,,550,18,Woman,Right,
4,2,0.4,0,180,180,0.4455660000003263,['y'],0.33684509999966394,1.986,,,,,,,,550,18,Woman,Right,,,,,,,,,,,,,,,,,550,18,Woman,Right,
4,2,0.4,180,0,0,0.49905519999992975,['y'],0.34639310000056867,1.986,,,,,,,,550,18,Woman,Right,,,,,,,,,,,,,,,,,550,18,Woman,Right,
4,2,0.15,180,0,0,0.32359509999969305,['y'],0.48292700000001787,1.986,,,,,,,,550,18,Woman,Right,,,,,,,,,,,,,,,,,550,18,Woman,Right,
4,2,0.15,180,0,0,0.5258414999998422,['y'],0.3002589999996417,1.986,,,,,,,,550,18,Woman,Right,,,,,,,,,,,,,,,,,550,18,Woman,Right,
4,2,0.4,180,0,0,1.1498279999996157,['y'],0.8002610000003187,1.986,,,,,,,,550,18,Woman,Right,,,,,,,,,,,,,,,,,550,18,Woman,Right,
4,2,0.4,180,0,180,0.38179070000023785,['y'],0.4740027999996528,1.986,,,,,,,,550,18,Woman,Right,,,,,,,,,,,,,,,,,550,18,Woman,Right,
4,2,0.4,180,0,180,0.7869754999992438,['y'],1.2625561999993806,1.986,,,,,,,,550,18,Woman,Right,,,,,,,,,,,,,,,,,550,18,Woman,Right,
4,2,0.15,0,180,180,0.5753103000006377,['y'],0.3567481999998563,1.984,,,,,,,,550,18,Woman,Right,,,,,,,,,,,,,,,,,550,18,Woman,Right,
4,2,0.4,180,0,0,0.623299699999734,['y'],0.6425192999995488,1.984,,,,,,,,550,18,Woman,Right,,,,,,,,,,,,,,,,,550,18,Woman,Right,
4,2,0.15,180,0,180,0.9990612999999939,['y'],0.5103131000005305,1.984,,,,,,,,550,18,Woman,Right,,,,,,,,,,,,,,,,,550,18,Woman,Right,
4,2,0.15,0,180,180,0.3829554999992979,['y'],0.373459799999182,1.984,,,,,,,,550,18,Woman,Right,,,,,,,,,,,,,,,,,550,18,Woman,Right,
4,2,0.4,180,0,0,0.23375900000064576,['y'],0.38075449999996636,1.984,,,,,,,,550,18,Woman,Right,,,,,,,,,,,,,,,,,550,18,Woman,Right,
4,2,0.15,0,180,0,0.9907427000007374,['y'],0.33889060000001336,1.984,,,,,,,,550,18,Woman,Right,,,,,,,,,,,,,,,,,550,18,Woman,Right,
4,2,0.4,0,180,180,0.3573505999993358,['y'],0.2837590999997701,1.984,,,,,,,,550,18,Woman,Right,,,,,,,,,,,,,,,,,550,18,Woman,Right,
4,2,0.15,0,180,0,1.6262471000000005,['y'],0.24620969999978115,1.8,,,,,,,,550,18,Woman,Right,,,,,,,,,,,,,,,,,550,18,Woman,Right,
4,2,0.15,180,0,0,0.6687150999996447,['y'],0.24581180000041059,2.0,,,,,,,,550,18,Woman,Right,,,,,,,,,,,,,,,,,550,18,Woman,Right,
4,2,0.15,180,0,0,0.2825892999999269,['y'],0.2671093999997538,1.996,,,,,,,,550,18,Woman,Right,,,,,,,,,,,,,,,,,550,18,Woman,Right,
4,2,0.4,0,180,180,0.2802924999996321,['y'],0.3143523999997342,1.996,,,,,,,,550,18,Woman,Right,,,,,,,,,,,,,,,,,550,18,Woman,Right,
4,2,0.15,180,0,0,0.3158106000000771,['y'],0.2845894000001863,1.996,7,3,10,3,0.7,1.0,,550,18,Woman,Right,,,,,,,,,,,,,,,,,550,18,Woman,Right,
5,3,0.15,0,180,180,0.34580000000005384,['y'],0.21659360000012384,1.996,,,,,,,,550,18,Woman,Right,,,,,,,,,,,,,,,,,550,18,Woman,Right,
5,3,1.0,0,180,180,1.0163047000005463,['y'],0.24677069999961532,1.996,,,,,,,,550,18,Woman,Right,,,,,,,,,,,,,,,,,550,18,Woman,Right,
5,3,0.15,0,180,0,2.6725753999999142,['n'],0.9939254999999321,1.026,,,,,,,,550,18,Woman,Right,,,,,,,,,,,,,,,,,550,18,Woman,Right,
5,3,0.15,0,-,0,1.4688925000000381,['n'],0.9094357999993008,1.06,,,,,,,,550,18,Woman,Right,,,,,,,,,,,,,,,,,550,18,Woman,Right,
5,3,1.0,0,180,180,0.7566047000000253,['y'],0.3708261000001585,1.958,,,,,,,,550,18,Woman,Right,,,,,,,,,,,,,,,,,550,18,Woman,Right,
5,3,0.15,0,180,180,1.699110099999416,['y'],0.21893550000004325,1.76,,,,,,,,550,18,Woman,Right,,,,,,,,,,,,,,,,,550,18,Woman,Right,
5,3,1.0,0,180,180,0.2458598000002894,['y'],0.34475279999969644,2.0,,,,,,,,550,18,Woman,Right,,,,,,,,,,,,,,,,,550,18,Woman,Right,
5,3,0.15,180,0,0,0.2875745999999708,['y'],0.27961619999950926,2.0,,,,,,,,550,18,Woman,Right,,,,,,,,,,,,,,,,,550,18,Woman,Right,
5,3,1.0,0,180,180,0.42384360000050947,['y'],1.314146100000471,1.998,,,,,,,,550,18,Woman,Right,,,,,,,,,,,,,,,,,550,18,Woman,Right,
5,3,1.0,180,-,180,1.2323452999999063,['y'],0.23553649999939807,1.0,9,5,10,5,0.9,1.0,,550,18,Woman,Right,,,,,,,,,,,,,,,,,550,18,Woman,Right,
,,,,,,,,,,,,,,,,5.699999746866524e-06,550,18,Woman,Right,,,,,,,,,,,,,,,,,550,18,Woman,Right,
,,,,,,,,,,,,,,,,,550,18,Woman,Right,0,64,0.15,1,0,-,180,3.629925700000058,['y'],3.5765559999999823,1.52,328.9663647999996,,,,,550,18,Woman,Right,
,,,,,,,,,,,,,,,,,550,18,Woman,Right,0,10,0.4,1,180,-,0,0.2816334999997707,['y'],1.4004245999994964,1.52,328.9663647999996,,,,,550,18,Woman,Right,
,,,,,,,,,,,,,,,,,550,18,Woman,Right,0,19,0.4,2,180,0,0,0.21271150000029593,['y'],0.9123959999997169,2.0,337.3001454999994,,,,,550,18,Woman,Right,
,,,,,,,,,,,,,,,,,550,18,Woman,Right,0,56,0.15,1,0,-,0,0.23100330000033864,['y'],1.7283327999994071,1.682,343.0495487999997,,,,,550,18,Woman,Right,
,,,,,,,,,,,,,,,,,550,18,Woman,Right,0,65,0.15,2,0,180,180,2.0436622000006537,['n'],1.3119929999993474,1.704,350.35082949999924,,,,,550,18,Woman,Right,
,,,,,,,,,,,,,,,,,550,18,Woman,Right,0,63,0.15,2,180,0,0,1.1451421000001574,['n'],2.3283971000000747,1.57,356.9830869999996,,,,,550,18,Woman,Right,
,,,,,,,,,,,,,,,,,550,18,Woman,Right,0,62,0.15,1,180,-,180,0.7745362999994541,['y'],1.5201356000006854,1.79,362.2674337999997,,,,,550,18,Woman,Right,
,,,,,,,,,,,,,,,,,550,18,Woman,Right,0,55,0.15,2,180,0,0,0.13732989999971323,['y'],1.1043518999995285,1.564,366.3509009999998,,,,,550,18,Woman,Right,
,,,,,,,,,,,,,,,,,550,18,Woman,Right,0,34,0.4,1,180,-,0,0.17258740000033868,['y'],0.528092800000195,2.0,370.06672439999966,,,,,550,18,Woman,Right,
,,,,,,,,,,,,,,,,,550,18,Woman,Right,0,68,0.15,1,0,-,180,0.39927689999967697,['y'],1.7342337999998563,1.72,375.1171762999993,,,,,550,18,Woman,Right,
,,,,,,,,,,,,,,,,,550,18,Woman,Right,0,27,0.4,2,180,0,0,0.26741670000046724,['y'],0.576148999999532,1.804,378.5832711999992,,,,,550,18,Woman,Right,
,,,,,,,,,,,,,,,,,550,18,Woman,Right,0,33,0.4,2,0,180,180,0.11176210000030551,['y'],0.455980499999896,2.0,381.71626449999985,,,,,550,18,Woman,Right,
,,,,,,,,,,,,,,,,,550,18,Woman,Right,0,49,0.15,2,0,180,180,0.24340789999951085,['y'],0.943705100000443,1.6440000000000001,385.4336072999995,,,,,550,18,Woman,Right,
,,,,,,,,,,,,,,,,,550,18,Woman,Right,0,54,0.15,1,180,-,0,0.15214070000001811,['y'],0.5521370000005845,1.5979999999999999,388.93348569999944,,,,,550,18,Woman,Right,
,,,,,,,,,,,,,,,,,550,18,Woman,Right,0,30,0.4,1,180,-,0,0.16727549999995972,['y'],0.568312600000354,1.714,393.40067029999955,,,,,550,18,Woman,Right,
,,,,,,,,,,,,,,,,,550,18,Woman,Right,0,53,0.15,2,0,180,0,0.24657049999950686,['y'],0.6883421000002272,1.6680000000000001,397.0172004999995,,,,,550,18,Woman,Right,
,,,,,,,,,,,,,,,,,550,18,Woman,Right,0,12,0.4,1,0,-,0,0.04854859999977634,['y'],1.6559562000002188,1.722,401.9164658999998,,,,,550,18,Woman,Right,
,,,,,,,,,,,,,,,,,550,18,Woman,Right,0,41,0.4,2,0,180,180,0.41244430000006105,['y'],0.8163589999994656,1.714,405.86738219999916,,,,,550,18,Woman,Right,
,,,,,,,,,,,,,,,,,550,18,Woman,Right,0,21,0.4,2,0,180,180,0.14975440000034723,['y'],0.5359210000005987,1.97,409.1336655999994,,,,,550,18,Woman,Right,
,,,,,,,,,,,,,,,,,550,18,Woman,Right,0,46,0.15,1,180,-,0,0.15452920000006998,['y'],0.5605335000000196,1.8980000000000001,412.2668159999994,,,,,550,18,Woman,Right,
,,,,,,,,,,,,,,,,,550,18,Woman,Right,0,44,0.15,1,0,-,180,0.15744050000012066,['y'],0.336290100000042,1.778,415.0832991999996,,,,,550,18,Woman,Right,
,,,,,,,,,,,,,,,,,550,18,Woman,Right,0,43,0.4,2,180,0,0,0.06299070000022766,['y'],0.40812389999973675,1.992,418.16722859999936,,,,,550,18,Woman,Right,
,,,,,,,,,,,,,,,,,550,18,Woman,Right,0,0,1,1,0,-,180,2.3492779999996856,['y'],2.3437656999994942,1.6400000000000001,425.6004690999998,,,,,550,18,Woman,Right,
,,,,,,,,,,,,,,,,,550,18,Woman,Right,0,5,1,2,0,180,180,0.06825690000005125,['y'],0.3597445000004882,2.0,428.4501556999994,,,,,550,18,Woman,Right,
,,,,,,,,,,,,,,,,,550,18,Woman,Right,0,38,0.4,1,180,-,0,0.1457988000001933,['y'],0.36804990000018734,1.97,431.83323069999915,,,,,550,18,Woman,Right,
,,,,,,,,,,,,,,,,,550,18,Woman,Right,0,42,0.4,1,180,-,0,0.30293520000032004,['y'],2.1680001000004268,1.716,437.16705809999985,,,,,550,18,Woman,Right,
,,,,,,,,,,,,,,,,,550,18,Woman,Right,0,59,0.15,2,180,0,180,1.6214614999998958,['n'],0.9677228999998988,1.536,442.3496196999995,,,,,550,18,Woman,Right,
,,,,,,,,,,,,,,,,,550,18,Woman,Right,0,58,0.15,1,180,-,0,0.32343200000013894,['y'],0.4882402000002912,1.686,446.1173532999992,,,,,550,18,Woman,Right,
,,,,,,,,,,,,,,,,,550,18,Woman,Right,0,48,0.15,1,0,-,180,0.33267629999954806,['y'],0.6317660000004253,1.778,449.50053039999966,,,,,550,18,Woman,Right,
,,,,,,,,,,,,,,,,,550,18,Woman,Right,0,76,0.15,1,0,-,180,0.4395234999992681,['n'],1.33646409999983,1.658,453.8500346999999,,,,,550,18,Woman,Right,
,,,,,,,,,,,,,,,,,550,18,Woman,Right,0,35,0.4,2,180,0,0,0.3350921000001108,['y'],1.2641123000003063,1.826,457.93292929999916,,,,,550,18,Woman,Right,
,,,,,,,,,,,,,,,,,550,18,Woman,Right,0,67,0.15,2,180,0,0,0.3304100000004837,['y'],0.5279634999997143,1.5859999999999999,463.16697959999965,,,,,550,18,Woman,Right,
,,,,,,,,,,,,,,,,,550,18,Woman,Right,0,2,1,1,180,-,180,0.3721259000003556,['n'],0.9439430000002176,1.822,467.1505438999993,,,,,550,18,Woman,Right,
,,,,,,,,,,,,,,,,,550,18,Woman,Right,0,61,0.15,2,0,180,0,0.46076369999991584,['y'],2.335989199999858,1.564,472.5163804999993,,,,,550,18,Woman,Right,
,,,,,,,,,,,,,,,,,550,18,Woman,Right,0,66,0.15,1,180,-,180,0.4627656000002389,['y'],0.824041899999429,1.434,476.6503000999992,,,,,550,18,Woman,Right,
,,,,,,,,,,,,,,,,,550,18,Woman,Right,0,57,0.15,2,0,180,180,0.26781779999964783,['y'],1.0160962999998446,1.496,480.60038129999975,,,,,550,18,Woman,Right,
,,,,,,,,,,,,,,,,,550,18,Woman,Right,0,26,0.4,1,180,-,0,0.284834499999306,['y'],1.1120246000000407,1.434,486.65025929999956,,,,,550,18,Woman,Right,
,,,,,,,,,,,,,,,,,550,18,Woman,Right,0,74,0.15,1,180,-,0,0.22246119999999792,['y'],1.0964078999995763,1.624,490.45022189999963,,,,,550,18,Woman,Right,
,,,,,,,,,,,,,,,,,550,18,Woman,Right,0,8,0.4,1,0,-,180,0.3682711000001291,['y'],0.6879940999997416,1.6139999999999999,493.9830244999994,,,,,550,18,Woman,Right,
,,,,,,,,,,,,,,,,,550,18,Woman,Right,0,78,0.15,1,180,-,0,0.3787981999994372,['y'],2.1121521999994,1.056,500.43265749999955,,,,,550,18,Woman,Right,
,,,,,,,,,,,,,,,,,550,18,Woman,Right,0,50,0.15,1,180,-,0,0.23555880000003526,['y'],0.8321762000005037,1.504,504.0666816999992,,,,,550,18,Woman,Right,
,,,,,,,,,,,,,,,,,550,18,Woman,Right,0,40,0.4,1,0,-,180,0.26944389999971463,['y'],0.5435772999999244,1.512,507.38387559999956,,,,,550,18,Woman,Right,
,,,,,,,,,,,,,,,,,550,18,Woman,Right,0,47,0.15,2,180,0,0,0.2882521000001361,['y'],0.5361548999999286,1.528,510.6999589999996,,,,,550,18,Woman,Right,
,,,,,,,,,,,,,,,,,550,18,Woman,Right,0,11,0.4,2,180,0,0,0.2631583000002138,['y'],0.664232400000401,1.7,514.2669652999994,,,,,550,18,Woman,Right,
,,,,,,,,,,,,,,,,,550,18,Woman,Right,0,36,0.4,1,0,-,180,0.5647960000005696,['y'],1.176285700000335,1.68,518.5827778999992,,,,,550,18,Woman,Right,
,,,,,,,,,,,,,,,,,550,18,Woman,Right,0,23,0.4,2,180,0,0,0.22689009999976406,['y'],0.40017729999999574,1.998,521.6666184999995,,,,,550,18,Woman,Right,
,,,,,,,,,,,,,,,,,550,18,Woman,Right,0,31,0.4,2,180,0,0,0.2543883000007554,['y'],0.4080575999996654,1.966,524.6002081999995,,,,,550,18,Woman,Right,
,,,,,,,,,,,,,,,,,550,18,Woman,Right,0,77,0.15,2,0,180,180,0.28967109999939566,['y'],0.4237910000001648,1.6360000000000001,527.9169470999996,,,,,550,18,Woman,Right,
,,,,,,,,,,,,,,,,,550,18,Woman,Right,0,6,1,1,180,-,180,0.42283279999992374,['n'],0.6878473000006124,2.0,533.1324234999993,,,,,550,18,Woman,Right,
,,,,,,,,,,,,,,,,,550,18,Woman,Right,0,4,1,1,0,-,0,0.15472099999988131,['y'],0.9918502000000444,1.0,539.2499157999991,,,,,550,18,Woman,Right,
,,,,,,,,,,,,,,,,,550,18,Woman,Right,0,1,1,2,0,180,180,0.3415144999999029,['n'],0.7760520000001634,1.0,544.5825888999998,,,,,550,18,Woman,Right,
,,,,,,,,,,,,,,,,,550,18,Woman,Right,0,14,0.4,1,180,-,180,0.4387376000004224,['n'],1.3918432999998913,1.84,549.9160305999994,,,,,550,18,Woman,Right,
,,,,,,,,,,,,,,,,,550,18,Woman,Right,0,39,0.4,2,180,0,0,0.49057620000075985,['y'],1.0004837000005864,1.9060000000000001,554.2162743999997,,,,,550,18,Woman,Right,
,,,,,,,,,,,,,,,,,550,18,Woman,Right,0,51,0.15,2,180,0,0,0.9154748000000836,['y'],0.712618399999883,1.91,558.2491185999997,,,,,550,18,Woman,Right,
,,,,,,,,,,,,,,,,,550,18,Woman,Right,0,18,0.4,1,180,-,180,0.5181769999999233,['n'],0.872687400000359,1.908,561.9494181,,,,,550,18,Woman,Right,
,,,,,,,,,,,,,,,,,550,18,Woman,Right,0,13,0.4,2,0,180,180,0.5296868999994331,['y'],0.8235666999999012,1.952,566.3663018999996,,,,,550,18,Woman,Right,
,,,,,,,,,,,,,,,,,550,18,Woman,Right,0,7,1,2,180,0,0,0.20901400000002468,['y'],0.7519694000002346,1.984,570.3158699999994,,,,,550,18,Woman,Right,
,,,,,,,,,,,,,,,,,550,18,Woman,Right,0,25,0.4,2,0,180,180,0.5544081999996706,['y'],0.4564113999995243,1.976,574.0320710999995,,,,,550,18,Woman,Right,
,,,,,,,,,,,,,,,,,550,18,Woman,Right,0,28,0.4,1,0,-,180,0.5051149999999325,['y'],0.7683680000000095,1.254,578.4658824999997,,,,,550,18,Woman,Right,
,,,,,,,,,,,,,,,,,550,18,Woman,Right,0,20,0.4,1,0,-,180,0.6970608999999968,['n'],0.9444774000003235,1.318,583.0994250999993,,,,,550,18,Woman,Right,
,,,,,,,,,,,,,,,,,550,18,Woman,Right,0,29,0.4,2,0,180,180,0.2890954000004058,['y'],0.6882490999996662,1.992,587.0158564999992,,,,,550,18,Woman,Right,
,,,,,,,,,,,,,,,,,550,18,Woman,Right,0,72,0.15,1,0,-,0,0.4842795999993541,['n'],1.799875200000315,1.1139999999999999,592.0667045,,,,,550,18,Woman,Right,
,,,,,,,,,,,,,,,,,550,18,Woman,Right,0,15,0.4,2,180,0,0,0.4109360000002198,['y'],1.288001200000508,1.958,596.4827163,,,,,550,18,Woman,Right,
,,,,,,,,,,,,,,,,,550,18,Woman,Right,0,3,1,2,180,0,0,0.15122789999986708,['y'],0.44006939999962924,1.836,599.6662836999994,,,,,550,18,Woman,Right,
,,,,,,,,,,,,,,,,,550,18,Woman,Right,0,22,0.4,1,180,-,180,0.3613319000005504,['n'],0.624366099999861,1.75,603.8659313999997,,,,,550,18,Woman,Right,
,,,,,,,,,,,,,,,,,550,18,Woman,Right,0,24,0.4,1,0,-,0,0.9733329999999114,['n'],1.520419899999979,1.754,608.9823115999998,,,,,550,18,Woman,Right,
,,,,,,,,,,,,,,,,,550,18,Woman,Right,0,37,0.4,2,0,180,180,0.179439800000182,['y'],0.7594513999993069,2.0,612.7832267999993,,,,,550,18,Woman,Right,
,,,,,,,,,,,,,,,,,550,18,Woman,Right,0,45,0.15,2,0,180,180,0.24373760000071343,['y'],0.8798535000005359,1.984,616.3826491999998,,,,,550,18,Woman,Right,
,,,,,,,,,,,,,,,,,550,18,Woman,Right,0,16,0.4,1,0,-,0,3.082692599999973,['n'],2.5529757000003883,1.3639999999999999,624.9665847999995,,,,,550,18,Woman,Right,
,,,,,,,,,,,,,,,,,550,18,Woman,Right,0,73,0.15,2,0,180,180,2.199180499999784,['n'],1.4879374000001917,1.252,631.3321084999998,,,,,550,18,Woman,Right,
,,,,,,,,,,,,,,,,,550,18,Woman,Right,0,52,0.15,1,0,-,0,0.3969168000003265,['y'],0.5923579000000245,1.158,634.9985502999998,,,,,550,18,Woman,Right,
,,,,,,,,,,,,,,,,,550,18,Woman,Right,0,71,0.15,2,180,0,0,0.22691459999987273,['y'],0.4724129999995057,1.742,639.1154134999997,,,,,550,18,Woman,Right,
,,,,,,,,,,,,,,,,,550,18,Woman,Right,0,60,0.15,1,0,-,180,0.46108769999955257,['y'],0.8801096999995934,1.562,642.8497711,,,,,550,18,Woman,Right,
,,,,,,,,,,,,,,,,,550,18,Woman,Right,0,79,0.15,2,180,0,0,0.10594080000009853,['y'],1.1121917999998914,1.706,646.5984143999995,,,,,550,18,Woman,Right,
,,,,,,,,,,,,,,,,,550,18,Woman,Right,0,70,0.15,1,180,-,180,1.8431009999994785,['y'],0.7684941000006802,1.758,652.3324952999992,,,,,550,18,Woman,Right,
,,,,,,,,,,,,,,,,,550,18,Woman,Right,0,9,0.4,2,0,180,180,0.46604040000056557,['y'],0.6133784999992713,1.758,657.0005590999999,,,,,550,18,Woman,Right,
,,,,,,,,,,,,,,,,,550,18,Woman,Right,0,69,0.15,2,0,180,180,0.37551970000004076,['y'],0.7925285999999687,1.758,660.7157355999998,,,,,550,18,Woman,Right,
,,,,,,,,,,,,,,,,,550,18,Woman,Right,0,75,0.15,2,180,0,0,1.111489499999152,['n'],0.7044415999998819,1.758,665.0990703999996,,,,,550,18,Woman,Right,
,,,,,,,,,,,,,,,,,550,18,Woman,Right,0,17,0.4,2,0,180,0,3.464223900000434,['n'],1.839862699999685,1.1280000000000001,672.7995689999998,,,,,550,18,Woman,Right,
,,,,,,,,,,,,,,,,,550,18,Woman,Right,0,32,0.4,1,0,-,180,0.6186510999996244,['n'],1.1521848000002137,1.312,678.1168942999993,,,,,550,18,Woman,Right,
,,,,,,,,,,,,,,,,,550,18,Woman,Right,1,15,0.4,2,180,0,0,0.3893497999997635,['y'],0.5435797000000093,1.8719999999999999,716.4992467999991,63.75,27.5,82.5,,550,18,Woman,Right,
,,,,,,,,,,,,,,,,,550,18,Woman,Right,1,49,0.15,2,0,180,180,0.5274466000000757,['y'],0.7603764999994382,1.73,720.3815419999992,,,,,550,18,Woman,Right,
,,,,,,,,,,,,,,,,,550,18,Woman,Right,1,54,0.15,1,180,-,180,0.2908269999998083,['n'],0.9763381999991907,1.242,724.8318012,,,,,550,18,Woman,Right,
,,,,,,,,,,,,,,,,,550,18,Woman,Right,1,42,0.4,1,180,-,0,0.1541789000002609,['y'],0.5439521000007517,1.78,727.8153036999993,,,,,550,18,Woman,Right,
,,,,,,,,,,,,,,,,,550,18,Woman,Right,1,55,0.15,2,180,0,0,0.7058081999994101,['y'],0.5205549000002065,1.78,731.2656010999999,,,,,550,18,Woman,Right,
,,,,,,,,,,,,,,,,,550,18,Woman,Right,1,17,0.4,2,0,180,180,0.23656599999958416,['y'],0.456481199999871,1.78,734.2483790999995,,,,,550,18,Woman,Right,
,,,,,,,,,,,,,,,,,550,18,Woman,Right,1,23,0.4,2,180,0,0,0.5543567000004259,['y'],1.9122033000003285,1.944,739.4655675999993,,,,,550,18,Woman,Right,
,,,,,,,,,,,,,,,,,550,18,Woman,Right,1,29,0.4,2,0,180,180,0.49995790000048146,['y'],0.3220175999995263,1.92,742.6658491999997,,,,,550,18,Woman,Right,
,,,,,,,,,,,,,,,,,550,18,Woman,Right,1,72,0.15,1,0,-,180,1.1490797999995266,['y'],1.0926945999999589,1.488,748.16543,,,,,550,18,Woman,Right,
,,,,,,,,,,,,,,,,,550,18,Woman,Right,1,45,0.15,2,0,180,180,0.18031780000001163,['y'],0.7522853000000396,1.8639999999999999,751.2818615999995,,,,,550,18,Woman,Right,
,,,,,,,,,,,,,,,,,550,18,Woman,Right,1,52,0.15,1,0,-,0,0.11088050000034855,['y'],0.3365243999996892,1.8639999999999999,754.0317894,,,,,550,18,Woman,Right,
,,,,,,,,,,,,,,,,,550,18,Woman,Right,1,61,0.15,2,0,180,180,1.3073630999997476,['y'],0.9759778999996342,1.716,759.0826236999992,,,,,550,18,Woman,Right,
,,,,,,,,,,,,,,,,,550,18,Woman,Right,1,33,0.4,2,0,180,180,0.15074809999987338,['y'],0.9520648999996411,1.982,763.3827850999996,,,,,550,18,Woman,Right,
,,,,,,,,,,,,,,,,,550,18,Woman,Right,1,77,0.15,2,0,180,0,1.2063942000004317,['y'],1.5839144000001397,1.732,768.8319015999996,,,,,550,18,Woman,Right,
,,,,,,,,,,,,,,,,,550,18,Woman,Right,1,13,0.4,2,0,180,180,0.1774385999997321,['y'],0.7119880999998713,1.84,772.4488513999995,,,,,550,18,Woman,Right,
,,,,,,,,,,,,,,,,,550,18,Woman,Right,1,24,0.4,1,0,-,0,0.4330774999998539,['y'],0.6576990000003207,1.866,775.6990605999999,,,,,550,18,Woman,Right,
,,,,,,,,,,,,,,,,,550,18,Woman,Right,1,63,0.15,2,180,0,0,0.29310810000060883,['y'],1.1444168999996691,1.5939999999999999,780.3478611999999,,,,,550,18,Woman,Right,
,,,,,,,,,,,,,,,,,550,18,Woman,Right,1,2,1,1,180,-,180,2.243621099999473,['n'],0.9281252999999197,1.5779999999999998,787.4159632999999,,,,,550,18,Woman,Right,
,,,,,,,,,,,,,,,,,550,18,Woman,Right,1,37,0.4,2,0,180,180,0.18844709999939369,['y'],0.6161392000003616,1.836,790.3988204999996,,,,,550,18,Woman,Right,
,,,,,,,,,,,,,,,,,550,18,Woman,Right,1,35,0.4,2,180,0,0,0.19744679999985237,['y'],0.36031699999966804,1.834,793.1663103999999,,,,,550,18,Woman,Right,
,,,,,,,,,,,,,,,,,550,18,Woman,Right,1,21,0.4,2,0,180,180,0.6488849999996091,['y'],0.4406104999998206,1.6219999999999999,797.3982627999994,,,,,550,18,Woman,Right,
,,,,,,,,,,,,,,,,,550,18,Woman,Right,1,40,0.4,1,0,-,180,0.2287241999993057,['y'],0.3917234999998982,1.62,800.1324758999999,,,,,550,18,Woman,Right,
,,,,,,,,,,,,,,,,,550,18,Woman,Right,1,69,0.15,2,0,180,180,0.8783386999994036,['n'],0.6719720999999481,1.334,805.4991178,,,,,550,18,Woman,Right,
,,,,,,,,,,,,,,,,,550,18,Woman,Right,1,58,0.15,1,180,-,0,0.3291826000004221,['y'],1.8724060000004101,1.616,810.1156525999995,,,,,550,18,Woman,Right,
,,,,,,,,,,,,,,,,,550,18,Woman,Right,1,65,0.15,2,0,180,180,3.0956700000006094,['n'],3.3042168000001766,1.1019999999999999,819.4481818999993,,,,,550,18,Woman,Right,
,,,,,,,,,,,,,,,,,550,18,Woman,Right,1,56,0.15,1,0,-,0,1.0169073999995817,['n'],0.760204000000158,1.3479999999999999,824.3482522999993,,,,,550,18,Woman,Right,
,,,,,,,,,,,,,,,,,550,18,Woman,Right,1,48,0.15,1,0,-,180,0.38269380000019737,['n'],4.4801102999999785,1.29,832.5157595999999,,,,,550,18,Woman,Right,
,,,,,,,,,,,,,,,,,550,18,Woman,Right,1,67,0.15,2,180,0,180,0.9192087000001266,['n'],1.0320004999994126,1.404,837.4156505999999,,,,,550,18,Woman,Right,
,,,,,,,,,,,,,,,,,550,18,Woman,Right,1,39,0.4,2,180,0,0,0.20586379999986093,['y'],0.8560559000006833,1.94,840.6155145999992,,,,,550,18,Woman,Right,
,,,,,,,,,,,,,,,,,550,18,Woman,Right,1,5,1,2,0,180,180,0.2835230999999112,['y'],0.768283500000507,1.94,843.9487767999999,,,,,550,18,Woman,Right,
,,,,,,,,,,,,,,,,,550,18,Woman,Right,1,34,0.4,1,180,-,180,0.30546099999992293,['n'],0.6319993999995859,1.69,848.0156995999996,,,,,550,18,Woman,Right,
,,,,,,,,,,,,,,,,,550,18,Woman,Right,1,7,1,2,180,0,0,0.31656480000037845,['y'],0.7521086999995532,1.982,851.3482101999998,,,,,550,18,Woman,Right,
,,,,,,,,,,,,,,,,,550,18,Woman,Right,1,22,0.4,1,180,-,180,0.27078760000040347,['n'],0.8165234000007331,1.8639999999999999,855.0822395999994,,,,,550,18,Woman,Right,
,,,,,,,,,,,,,,,,,550,18,Woman,Right,1,12,0.4,1,0,-,0,0.5518825999997716,['n'],0.7679852999999639,1.85,859.1489499999998,,,,,550,18,Woman,Right,
,,,,,,,,,,,,,,,,,550,18,Woman,Right,1,38,0.4,1,180,-,180,0.047311899999840534,['n'],1.0084586000002673,1.642,862.7478949999995,,,,,550,18,Woman,Right,
,,,,,,,,,,,,,,,,,550,18,Woman,Right,1,59,0.15,2,180,0,0,0.3213810999995985,['n'],1.4476244999996197,1.854,866.6817641999996,,,,,550,18,Woman,Right,
,,,,,,,,,,,,,,,,,550,18,Woman,Right,1,19,0.4,2,180,0,0,0.24146679999921616,['y'],1.967834099999891,1.87,872.0320565999991,,,,,550,18,Woman,Right,
,,,,,,,,,,,,,,,,,550,18,Woman,Right,1,32,0.4,1,0,-,180,0.20606390000011743,['y'],1.0159215000003314,1.876,875.3308469999993,,,,,550,18,Woman,Right,
,,,,,,,,,,,,,,,,,550,18,Woman,Right,1,20,0.4,1,0,-,180,0.6221320000004198,['n'],0.8960075000004508,1.24,880.3980573999997,,,,,550,18,Woman,Right,
,,,,,,,,,,,,,,,,,550,18,Woman,Right,1,11,0.4,2,180,0,0,0.2609352999998009,['y'],0.5445937000004051,2.0,884.0813325999998,,,,,550,18,Woman,Right,
,,,,,,,,,,,,,,,,,550,18,Woman,Right,1,47,0.15,2,180,0,0,0.16950339999948483,['y'],0.5603078000003734,1.762,887.3983512999994,,,,,550,18,Woman,Right,
,,,,,,,,,,,,,,,,,550,18,Woman,Right,1,57,0.15,2,0,180,180,0.34381460000076913,['y'],0.6157708000000639,1.7,890.9319075999992,,,,,550,18,Woman,Right,
,,,,,,,,,,,,,,,,,550,18,Woman,Right,1,26,0.4,1,180,-,0,0.3436730000003081,['n'],3.215865699999995,1.634,896.9815720999995,,,,,550,18,Woman,Right,
,,,,,,,,,,,,,,,,,550,18,Woman,Right,1,44,0.15,1,0,-,0,0.3944129999999859,['y'],6.648137400000451,1.158,909.5320604999997,,,,,550,18,Woman,Right,
,,,,,,,,,,,,,,,,,550,18,Woman,Right,1,64,0.15,1,0,-,180,0.36615119999987655,['y'],1.184047499999906,1.6520000000000001,913.6651420999997,,,,,550,18,Woman,Right,
,,,,,,,,,,,,,,,,,550,18,Woman,Right,1,73,0.15,2,0,180,180,0.3302443000002313,['y'],2.5360379000003377,1.56,919.2482817999999,,,,,550,18,Woman,Right,
,,,,,,,,,,,,,,,,,550,18,Woman,Right,1,68,0.15,1,0,-,0,0.2503538999999364,['n'],0.9542907999993986,1.31,923.0642806999995,,,,,550,18,Woman,Right,
,,,,,,,,,,,,,,,,,550,18,Woman,Right,1,3,1,2,180,0,0,0.2890098999996553,['y'],0.504246399999829,2.0,926.4310569999998,,,,,550,18,Woman,Right,
,,,,,,,,,,,,,,,,,550,18,Woman,Right,1,46,0.15,1,180,-,0,0.18727539999963483,['n'],1.8086554000001343,1.088,932.5316376999999,,,,,550,18,Woman,Right,
,,,,,,,,,,,,,,,,,550,18,Woman,Right,1,41,0.4,2,0,180,180,0.15651170000001002,['y'],0.9280789000004006,1.932,936.2481251999998,,,,,550,18,Woman,Right,
,,,,,,,,,,,,,,,,,550,18,Woman,Right,1,8,0.4,1,0,-,180,0.8413482999994812,['n'],0.7600889000004827,1.308,940.8143922999998,,,,,550,18,Woman,Right,
,,,,,,,,,,,,,,,,,550,18,Woman,Right,1,66,0.15,1,180,-,180,0.46537679999983084,['n'],0.9759003999997731,1.464,945.1646843999997,,,,,550,18,Woman,Right,
,,,,,,,,,,,,,,,,,550,18,Woman,Right,1,16,0.4,1,0,-,180,0.3483274000000165,['n'],0.9842816999998831,1.342,949.2811069999998,,,,,550,18,Woman,Right,
,,,,,,,,,,,,,,,,,550,18,Woman,Right,1,30,0.4,1,180,-,180,0.26817140000002837,['n'],1.0644578000001275,1.876,953.2649483999994,,,,,550,18,Woman,Right,
,,,,,,,,,,,,,,,,,550,18,Woman,Right,1,10,0.4,1,180,-,180,0.3844433000003846,['n'],0.759667499999523,2.0,957.2645741999995,,,,,550,18,Woman,Right,
,,,,,,,,,,,,,,,,,550,18,Woman,Right,1,60,0.15,1,0,-,0,0.6694925000001604,['n'],0.9844049000002997,1.724,961.6817058999995,,,,,550,18,Woman,Right,
,,,,,,,,,,,,,,,,,550,18,Woman,Right,1,76,0.15,1,0,-,0,0.5844963999998072,['n'],1.5755599000003713,1.806,966.2816864999995,,,,,550,18,Woman,Right,
,,,,,,,,,,,,,,,,,550,18,Woman,Right,1,28,0.4,1,0,-,180,0.45702519999940705,['n'],1.2077902000000904,1.464,971.5980563999992,,,,,550,18,Woman,Right,
,,,,,,,,,,,,,,,,,550,18,Woman,Right,1,0,1,1,0,-,180,2.4286473000001934,['n'],1.4960277999998652,1.5979999999999999,979.4480254,,,,,550,18,Woman,Right,
,,,,,,,,,,,,,,,,,550,18,Woman,Right,1,14,0.4,1,180,-,180,0.31624159999955737,['n'],0.8107076999995115,2.0,984.0308667999998,,,,,550,18,Woman,Right,
,,,,,,,,,,,,,,,,,550,18,Woman,Right,1,75,0.15,2,180,0,180,0.37598609999986365,['n'],0.7835385999997015,1.812,988.6810259999993,,,,,550,18,Woman,Right,
,,,,,,,,,,,,,,,,,550,18,Woman,Right,1,25,0.4,2,0,180,180,0.35656549999930576,['y'],0.7360727999994197,1.8599999999999999,992.2987228999991,,,,,550,18,Woman,Right,
,,,,,,,,,,,,,,,,,550,18,Woman,Right,1,74,0.15,1,180,-,180,0.10437940000065282,['n'],1.0717505000002348,1.7,995.8818390999995,,,,,550,18,Woman,Right,
,,,,,,,,,,,,,,,,,550,18,Woman,Right,1,70,0.15,1,180,-,180,0.8717421000001195,['n'],0.7763961000000563,1.918,1000.0150933999994,,,,,550,18,Woman,Right,
,,,,,,,,,,,,,,,,,550,18,Woman,Right,1,53,0.15,2,0,180,180,0.3360685999996349,['y'],0.9679546000006667,1.92,1003.9150795999994,,,,,550,18,Woman,Right,
,,,,,,,,,,,,,,,,,550,18,Woman,Right,1,31,0.4,2,180,0,0,0.5890484999999899,['y'],0.6486304999998538,1.92,1007.4810049999996,,,,,550,18,Woman,Right,
,,,,,,,,,,,,,,,,,550,18,Woman,Right,1,51,0.15,2,180,0,180,0.4284759000001941,['y'],1.0645496999995885,1.062,1012.2984639999995,,,,,550,18,Woman,Right,
,,,,,,,,,,,,,,,,,550,18,Woman,Right,1,6,1,1,180,-,180,0.28271139999924344,['n'],1.1402644999998302,2.0,1017.0644002999998,,,,,550,18,Woman,Right,
,,,,,,,,,,,,,,,,,550,18,Woman,Right,1,43,0.4,2,180,0,0,0.28657810000004247,['y'],0.5517737000000125,2.0,1020.2140739999995,,,,,550,18,Woman,Right,
,,,,,,,,,,,,,,,,,550,18,Woman,Right,1,71,0.15,2,180,0,0,0.3060456000002887,['y'],0.5844538999999713,2.0,1023.3481982999992,,,,,550,18,Woman,Right,
,,,,,,,,,,,,,,,,,550,18,Woman,Right,1,1,1,2,0,180,180,0.19041050000032556,['y'],0.5124998000001142,2.0,1026.3312154999994,,,,,550,18,Woman,Right,
,,,,,,,,,,,,,,,,,550,18,Woman,Right,1,18,0.4,1,180,-,180,0.3837917999999263,['n'],0.4805020000003424,1.74,1029.9641454999992,,,,,550,18,Woman,Right,
,,,,,,,,,,,,,,,,,550,18,Woman,Right,1,9,0.4,2,0,180,180,0.11098849999962113,['y'],0.4562095000001136,1.972,1032.7653482999995,,,,,550,18,Woman,Right,
,,,,,,,,,,,,,,,,,550,18,Woman,Right,1,62,0.15,1,180,-,180,0.22871589999977004,['n'],0.712478899999951,1.69,1036.2645149,,,,,550,18,Woman,Right,
,,,,,,,,,,,,,,,,,550,18,Woman,Right,1,27,0.4,2,180,0,0,0.4070842999999513,['y'],1.1681461999996827,2.0,1040.6648173999993,,,,,550,18,Woman,Right,
,,,,,,,,,,,,,,,,,550,18,Woman,Right,1,79,0.15,2,180,0,0,0.29954989999987447,['y'],0.8910968999998659,1.806,1044.1645431999996,,,,,550,18,Woman,Right,
,,,,,,,,,,,,,,,,,550,18,Woman,Right,1,36,0.4,1,0,-,180,0.3657022000006691,['y'],2.7845501000001605,1.836,1049.5980664999997,,,,,550,18,Woman,Right,
,,,,,,,,,,,,,,,,,550,18,Woman,Right,1,50,0.15,1,180,-,0,0.7560579999999391,['n'],0.8719419999997626,1.29,1053.6983326,,,,,550,18,Woman,Right,
,,,,,,,,,,,,,,,,,550,18,Woman,Right,1,78,0.15,1,180,-,180,0.2748199999996359,['n'],1.3278951000002053,1.0,1058.2643194999991,,,,,550,18,Woman,Right,
,,,,,,,,,,,,,,,,,550,18,Woman,Right,1,4,1,1,0,-,180,0.37974990000020625,['n'],2.2879445999997188,1.0,1063.4143445,,,,,550,18,Woman,Right,
,,,,,,,,,,,,,,,,,550,18,Woman,Right,2,67,0.15,2,180,0,180,2.5341253000005963,['n'],1.351802800000769,1.002,1075.4476398999996,73.75,75.0,87.5,,550,18,Woman,Right,
,,,,,,,,,,,,,,,,,550,18,Woman,Right,2,39,0.4,2,180,0,0,0.20563399999991816,['y'],0.4241770999997243,1.84,1078.2981754999992,,,,,550,18,Woman,Right,
,,,,,,,,,,,,,,,,,550,18,Woman,Right,2,78,0.15,1,180,-,180,0.5877983999998833,['n'],1.168359600000258,1.396,1082.3649767999996,,,,,550,18,Woman,Right,
,,,,,,,,,,,,,,,,,550,18,Woman,Right,2,40,0.4,1,0,-,0,0.548884700000599,['n'],0.8718409000002794,1.77,1086.9309058,,,,,550,18,Woman,Right,
,,,,,,,,,,,,,,,,,550,18,Woman,Right,2,22,0.4,1,180,-,180,0.5591223000001264,['n'],0.8717747999999119,1.246,1090.7144614,,,,,550,18,Woman,Right,
,,,,,,,,,,,,,,,,,550,18,Woman,Right,2,4,1,1,0,-,0,0.391404799999691,['y'],0.5120266000003539,1.0,1094.6803204999997,,,,,550,18,Woman,Right,
,,,,,,,,,,,,,,,,,550,18,Woman,Right,2,24,0.4,1,0,-,0,2.720154200000252,['n'],0.8001050000002579,1.662,1101.0137493999991,,,,,550,18,Woman,Right,
,,,,,,,,,,,,,,,,,550,18,Woman,Right,2,23,0.4,2,180,0,0,0.4827083999998649,['y'],0.4002754000002824,2.0,1104.7308914999994,,,,,550,18,Woman,Right,
,,,,,,,,,,,,,,,,,550,18,Woman,Right,2,43,0.4,2,180,0,0,0.25497899999936635,['y'],0.5847230999997919,2.0,1107.8473602999993,,,,,550,18,Woman,Right,
,,,,,,,,,,,,,,,,,550,18,Woman,Right,2,34,0.4,1,180,-,180,0.2730485999991288,['n'],1.1123285000003307,1.694,1113.1479657999998,,,,,550,18,Woman,Right,
,,,,,,,,,,,,,,,,,550,18,Woman,Right,2,38,0.4,1,180,-,180,0.15903090000028897,['n'],0.832232899999326,1.8780000000000001,1116.6313326,,,,,550,18,Woman,Right,
,,,,,,,,,,,,,,,,,550,18,Woman,Right,2,30,0.4,1,180,-,180,0.29942430000028253,['n'],1.1523448000007193,1.934,1121.5969041999997,,,,,550,18,Woman,Right,
,,,,,,,,,,,,,,,,,550,18,Woman,Right,2,6,1,1,180,-,180,0.6311537000001408,['n'],0.784617100000105,1.534,1126.5976121999993,,,,,550,18,Woman,Right,
,,,,,,,,,,,,,,,,,550,18,Woman,Right,2,58,0.15,1,180,-,0,0.5344705999996222,['n'],2.9439032999998744,1.4020000000000001,1132.3970520999992,,,,,550,18,Woman,Right,
,,,,,,,,,,,,,,,,,550,18,Woman,Right,2,9,0.4,2,0,180,180,0.30785539999942557,['y'],0.959885100000065,1.6219999999999999,1136.1468983999994,,,,,550,18,Woman,Right,
,,,,,,,,,,,,,,,,,550,18,Woman,Right,2,44,0.15,1,0,-,0,0.6559483999999429,['n'],1.5682366000000911,1.3359999999999999,1141.5804561999994,,,,,550,18,Woman,Right,
,,,,,,,,,,,,,,,,,550,18,Woman,Right,2,18,0.4,1,180,-,180,0.2554768999998487,['n'],0.951789099999587,1.792,1145.9142791999993,,,,,550,18,Woman,Right,
,,,,,,,,,,,,,,,,,550,18,Woman,Right,2,70,0.15,1,180,-,0,1.2630959000007351,['y'],0.9520182000005661,1.6400000000000001,1150.5480123999996,,,,,550,18,Woman,Right,
,,,,,,,,,,,,,,,,,550,18,Woman,Right,2,27,0.4,2,180,0,0,0.3310077000005549,['y'],0.7681112000000212,1.6360000000000001,1154.2634136999995,,,,,550,18,Woman,Right,
,,,,,,,,,,,,,,,,,550,18,Woman,Right,2,56,0.15,1,0,-,0,0.34039209999991726,['n'],1.5683150000004389,1.6400000000000001,1159.4306042999997,,,,,550,18,Woman,Right,
,,,,,,,,,,,,,,,,,550,18,Woman,Right,2,33,0.4,2,0,180,180,0.24942620000001625,['y'],0.4472415000000183,2.0,1162.6137474999996,,,,,550,18,Woman,Right,
,,,,,,,,,,,,,,,,,550,18,Woman,Right,2,42,0.4,1,180,-,0,0.4531208999997034,['y'],1.576193300000341,1.8439999999999999,1167.6148301999992,,,,,550,18,Woman,Right,
,,,,,,,,,,,,,,,,,550,18,Woman,Right,2,46,0.15,1,180,-,0,0.14306970000052388,['y'],0.5036790999993173,1.846,1170.5477852999993,,,,,550,18,Woman,Right,
,,,,,,,,,,,,,,,,,550,18,Woman,Right,2,74,0.15,1,180,-,0,0.12299299999995128,['y'],0.704404600000089,1.818,1173.5133456999993,,,,,550,18,Woman,Right,
,,,,,,,,,,,,,,,,,550,18,Woman,Right,2,13,0.4,2,0,180,180,0.0991572000002634,['y'],1.3842979000000923,1.954,1177.1644738999994,,,,,550,18,Woman,Right,
,,,,,,,,,,,,,,,,,550,18,Woman,Right,2,50,0.15,1,180,-,180,0.1989168999998583,['y'],0.9679348999998183,1.846,1180.5967753999994,,,,,550,18,Woman,Right,
,,,,,,,,,,,,,,,,,550,18,Woman,Right,2,5,1,2,0,180,180,0.09571520000008604,['y'],0.6002047000001767,2.0,1183.9324241999993,,,,,550,18,Woman,Right,
,,,,,,,,,,,,,,,,,550,18,Woman,Right,2,28,0.4,1,0,-,0,0.09759970000050089,['n'],0.6806022999999186,1.3719999999999999,1187.6970519999995,,,,,550,18,Woman,Right,
,,,,,,,,,,,,,,,,,550,18,Woman,Right,2,17,0.4,2,0,180,180,0.8229154999999082,['y'],1.0082761000003302,1.968,1191.9138306999994,,,,,550,18,Woman,Right,
,,,,,,,,,,,,,,,,,550,18,Woman,Right,2,47,0.15,2,180,0,0,0.7154749000001175,['y'],1.6880326000000423,1.666,1196.6638223,,,,,550,18,Woman,Right,
,,,,,,,,,,,,,,,,,550,18,Woman,Right,2,45,0.15,2,0,180,180,0.6572371000002022,['y'],1.1596575000003213,1.3860000000000001,1202.2634045999994,,,,,550,18,Woman,Right,
,,,,,,,,,,,,,,,,,550,18,Woman,Right,2,53,0.15,2,0,180,0,0.8408840000001874,['n'],1.0801476000006005,1.6440000000000001,1207.4464242999993,,,,,550,18,Woman,Right,
,,,,,,,,,,,,,,,,,550,18,Woman,Right,2,48,0.15,1,0,-,180,0.8191901000000144,['n'],0.9596743999991304,1.476,1212.2804223999992,,,,,550,18,Woman,Right,
,,,,,,,,,,,,,,,,,550,18,Woman,Right,2,69,0.15,2,0,180,180,1.0256265999996685,['n'],0.768014299999777,1.496,1216.6973420999993,,,,,550,18,Woman,Right,
,,,,,,,,,,,,,,,,,550,18,Woman,Right,2,66,0.15,1,180,-,0,0.29010119999929884,['y'],1.3683537000006254,1.47,1221.8132725999994,,,,,550,18,Woman,Right,
,,,,,,,,,,,,,,,,,550,18,Woman,Right,2,29,0.4,2,0,180,180,0.5189358000006905,['y'],1.5362482999998974,1.476,1226.7472681,,,,,550,18,Woman,Right,
,,,,,,,,,,,,,,,,,550,18,Woman,Right,2,64,0.15,1,0,-,0,0.8019070999998803,['n'],1.1362459000001763,1.43,1231.530847,,,,,550,18,Woman,Right,
,,,,,,,,,,,,,,,,,550,18,Woman,Right,2,14,0.4,1,180,-,180,1.461225099999865,['n'],1.1761405999995986,1.43,1236.7138972999992,,,,,550,18,Woman,Right,
,,,,,,,,,,,,,,,,,550,18,Woman,Right,2,16,0.4,1,0,-,0,0.536500100000012,['n'],1.1926177000004827,1.446,1240.8310904999998,,,,,550,18,Woman,Right,
,,,,,,,,,,,,,,,,,550,18,Woman,Right,2,57,0.15,2,0,180,180,1.075951000000714,['n'],1.8396675999993022,1.46,1246.6971802999997,,,,,550,18,Woman,Right,
,,,,,,,,,,,,,,,,,550,18,Woman,Right,2,32,0.4,1,0,-,180,0.28719879999971454,['y'],3.51151260000006,1.546,1255.0971473,,,,,550,18,Woman,Right,
,,,,,,,,,,,,,,,,,550,18,Woman,Right,2,51,0.15,2,180,0,180,0.28020639999976993,['y'],0.43980850000025384,1.52,1258.3639973,,,,,550,18,Woman,Right,
,,,,,,,,,,,,,,,,,550,18,Woman,Right,2,0,1,1,0,-,180,2.4827965999993467,['y'],0.7925108999997974,1.0,1264.6298789999992,,,,,550,18,Woman,Right,
,,,,,,,,,,,,,,,,,550,18,Woman,Right,2,35,0.4,2,180,0,0,0.1382026000001133,['y'],2.2244940000000497,1.814,1270.131227499999,,,,,550,18,Woman,Right,
,,,,,,,,,,,,,,,,,550,18,Woman,Right,2,21,0.4,2,0,180,180,0.29015110000000277,['y'],1.216199599999527,1.782,1273.8300084999992,,,,,550,18,Woman,Right,
,,,,,,,,,,,,,,,,,550,18,Woman,Right,2,31,0.4,2,180,0,180,0.46867719999954716,['n'],0.632200400000329,1.05,1278.0971137999995,,,,,550,18,Woman,Right,
,,,,,,,,,,,,,,,,,550,18,Woman,Right,2,1,1,2,0,180,180,0.24432339999930264,['y'],0.5525109999998676,1.968,1281.3475891999997,,,,,550,18,Woman,Right,
,,,,,,,,,,,,,,,,,550,18,Woman,Right,2,11,0.4,2,180,0,0,0.057840099999339145,['n'],2.992258999999649,1.024,1286.9138024999993,,,,,550,18,Woman,Right,
,,,,,,,,,,,,,,,,,550,18,Woman,Right,2,68,0.15,1,0,-,180,0.6301466000004439,['n'],0.816027199999553,1.0,1291.3644795,,,,,550,18,Woman,Right,
,,,,,,,,,,,,,,,,,550,18,Woman,Right,2,61,0.15,2,0,180,180,0.07784510000055889,['n'],1.3441898999999466,1.064,1295.6133428999992,,,,,550,18,Woman,Right,
,,,,,,,,,,,,,,,,,550,18,Woman,Right,2,3,1,2,180,0,0,1.0457140999997137,['y'],0.48850770000080956,2.0,1299.5806102999995,,,,,550,18,Woman,Right,
,,,,,,,,,,,,,,,,,550,18,Woman,Right,2,10,0.4,1,180,-,180,0.31903820000025007,['y'],0.44792710000001534,1.486,1303.3807085999997,,,,,550,18,Woman,Right,
,,,,,,,,,,,,,,,,,550,18,Woman,Right,2,75,0.15,2,180,0,180,0.2327754999996614,['n'],0.9522297000003164,1.26,1306.9801301999996,,,,,550,18,Woman,Right,
,,,,,,,,,,,,,,,,,550,18,Woman,Right,2,59,0.15,2,180,0,180,0.29719350000050326,['y'],0.632013299999926,1.304,1310.3474266999992,,,,,550,18,Woman,Right,
,,,,,,,,,,,,,,,,,550,18,Woman,Right,2,36,0.4,1,0,-,0,0.24048930000026303,['y'],0.7116638999996212,1.3820000000000001,1314.0129613999998,,,,,550,18,Woman,Right,
,,,,,,,,,,,,,,,,,550,18,Woman,Right,2,55,0.15,2,180,0,180,0.19435969999994995,['n'],0.9439928000001601,1.362,1317.8301526999994,,,,,550,18,Woman,Right,
,,,,,,,,,,,,,,,,,550,18,Woman,Right,2,54,0.15,1,180,-,180,1.1127337999996598,['n'],3.495827900000222,1.0,1325.5136035999994,,,,,550,18,Woman,Right,
,,,,,,,,,,,,,,,,,550,18,Woman,Right,2,12,0.4,1,0,-,0,0.23286929999994754,['n'],1.1762561999994432,1.0,1329.3475141,,,,,550,18,Woman,Right,
,,,,,,,,,,,,,,,,,550,18,Woman,Right,2,37,0.4,2,0,180,180,0.22321050000027753,['y'],0.4079175999995641,2.0,1332.3968321999992,,,,,550,18,Woman,Right,
,,,,,,,,,,,,,,,,,550,18,Woman,Right,2,7,1,2,180,0,0,0.3186940000005052,['y'],0.8558767999993506,2.0,1336.0295735999998,,,,,550,18,Woman,Right,
,,,,,,,,,,,,,,,,,550,18,Woman,Right,2,72,0.15,1,0,-,0,0.22698959999979706,['y'],0.4559064999994007,2.0,1339.0304748999997,,,,,550,18,Woman,Right,
,,,,,,,,,,,,,,,,,550,18,Woman,Right,2,73,0.15,2,0,180,0,0.08441379999931087,['y'],0.5205101000001378,1.0,1342.2458831999993,,,,,550,18,Woman,Right,
,,,,,,,,,,,,,,,,,550,18,Woman,Right,2,77,0.15,2,0,180,180,0.8096968999998353,['n'],1.0237450000004173,1.0,1346.4131684999993,,,,,550,18,Woman,Right,
,,,,,,,,,,,,,,,,,550,18,Woman,Right,2,62,0.15,1,180,-,180,0.43006599999989703,['n'],1.0797091000004002,1.0,1350.1959901999999,,,,,550,18,Woman,Right,
,,,,,,,,,,,,,,,,,550,18,Woman,Right,2,49,0.15,2,0,180,180,0.6989650000004985,['y'],0.807772200000727,1.734,1354.8801405999993,,,,,550,18,Woman,Right,
,,,,,,,,,,,,,,,,,550,18,Woman,Right,2,8,0.4,1,0,-,180,0.22662810000019817,['y'],1.815906100000575,1.88,1359.7972781999997,,,,,550,18,Woman,Right,
,,,,,,,,,,,,,,,,,550,18,Woman,Right,2,65,0.15,2,0,180,180,0.3659603000005518,['y'],0.9604495000003226,1.066,1363.4461599999995,,,,,550,18,Woman,Right,
,,,,,,,,,,,,,,,,,550,18,Woman,Right,2,15,0.4,2,180,0,180,0.07355749999987893,['n'],0.8645010000000184,1.0,1367.1633702,,,,,550,18,Woman,Right,
,,,,,,,,,,,,,,,,,550,18,Woman,Right,2,63,0.15,2,180,0,0,0.5924697999998898,['y'],1.080238699999427,1.79,1371.5469497999993,,,,,550,18,Woman,Right,
,,,,,,,,,,,,,,,,,550,18,Woman,Right,2,26,0.4,1,180,-,180,0.4410944000001109,['y'],0.5759742999998707,1.27,1375.5132641999999,,,,,550,18,Woman,Right,
,,,,,,,,,,,,,,,,,550,18,Woman,Right,2,79,0.15,2,180,0,180,3.025237200000447,['y'],1.4801033000003372,1.054,1383.0630324999993,,,,,550,18,Woman,Right,
,,,,,,,,,,,,,,,,,550,18,Woman,Right,2,19,0.4,2,180,0,0,1.8751920999993672,['y'],0.28752129999975296,1.772,1388.4472649999998,,,,,550,18,Woman,Right,
,,,,,,,,,,,,,,,,,550,18,Woman,Right,2,2,1,1,180,-,180,0.34419529999922815,['n'],0.6639967000000979,2.0,1392.5638175999993,,,,,550,18,Woman,Right,
,,,,,,,,,,,,,,,,,550,18,Woman,Right,2,52,0.15,1,0,-,180,0.2664709999999104,['y'],0.6722927999999229,1.548,1395.7965902999995,,,,,550,18,Woman,Right,
,,,,,,,,,,,,,,,,,550,18,Woman,Right,2,41,0.4,2,0,180,180,0.12569890000031592,['y'],0.8638662000003023,2.0,1399.2290426999998,,,,,550,18,Woman,Right,
,,,,,,,,,,,,,,,,,550,18,Woman,Right,2,20,0.4,1,0,-,0,0.437397200000305,['n'],0.8562706000002436,1.318,1403.8303354999998,,,,,550,18,Woman,Right,
,,,,,,,,,,,,,,,,,550,18,Woman,Right,2,71,0.15,2,180,0,180,0.247135900000103,['y'],0.5198786000000837,1.302,1407.5472892999996,,,,,550,18,Woman,Right,
,,,,,,,,,,,,,,,,,550,18,Woman,Right,2,60,0.15,1,0,-,180,0.12758990000020276,['y'],0.6079087999996773,1.026,1411.4125993999996,,,,,550,18,Woman,Right,
,,,,,,,,,,,,,,,,,550,18,Woman,Right,2,76,0.15,1,0,-,180,0.28636139999980514,['y'],0.7359603999993851,1.172,1415.2631401999997,,,,,550,18,Woman,Right,
,,,,,,,,,,,,,,,,,550,18,Woman,Right,2,25,0.4,2,0,180,180,0.19944089999989956,['y'],0.6077961000000869,2.0,1418.3969572999995,,,,,550,18,Woman,Right,
,,,,,,,,,,,,,,,,,550,18,Woman,Right,3,75,0.15,2,180,0,0,0.35879929999919113,['y'],0.7200329000006604,1.982,1448.6797598999992,68.75,57.5,72.5,,550,18,Woman,Right,
,,,,,,,,,,,,,,,,,550,18,Woman,Right,3,46,0.15,1,180,-,180,0.2622773999992205,['y'],0.42430119999971794,1.832,1451.7127566999998,,,,,550,18,Woman,Right,
,,,,,,,,,,,,,,,,,550,18,Woman,Right,3,3,1,2,180,0,0,0.18072970000048372,['y'],1.1765969999996742,2.0,1455.2627361999994,,,,,550,18,Woman,Right,
,,,,,,,,,,,,,,,,,550,18,Woman,Right,3,14,0.4,1,180,-,0,0.2547982999994929,['y'],0.5844330999998419,1.214,1458.3626907999997,,,,,550,18,Woman,Right,
,,,,,,,,,,,,,,,,,550,18,Woman,Right,3,27,0.4,2,180,0,0,0.299466599999505,['y'],0.41583360000004177,1.6139999999999999,1461.8458636999994,,,,,550,18,Woman,Right,
,,,,,,,,,,,,,,,,,550,18,Woman,Right,3,44,0.15,1,0,-,180,0.2522203999997146,['y'],0.35244630000033794,1.72,1465.0961941999994,,,,,550,18,Woman,Right,
,,,,,,,,,,,,,,,,,550,18,Woman,Right,3,26,0.4,1,180,-,0,0.3437312000005477,['y'],0.7921691999999894,1.138,1469.1966626999993,,,,,550,18,Woman,Right,
,,,,,,,,,,,,,,,,,550,18,Woman,Right,3,65,0.15,2,0,180,180,0.1943316999995659,['y'],0.9038781999997809,1.376,1472.6631045999993,,,,,550,18,Woman,Right,
,,,,,,,,,,,,,,,,,550,18,Woman,Right,3,79,0.15,2,180,0,0,0.15243999999984226,['y'],0.36010799999985466,1.7,1475.5970658999995,,,,,550,18,Woman,Right,
,,,,,,,,,,,,,,,,,550,18,Woman,Right,3,40,0.4,1,0,-,180,0.393358199999966,['y'],0.336182000000008,1.27,1479.2805999999991,,,,,550,18,Woman,Right,
,,,,,,,,,,,,,,,,,550,18,Woman,Right,3,54,0.15,1,180,-,180,0.23143139999956475,['y'],0.7278948000002856,1.6019999999999999,1482.8294318999997,,,,,550,18,Woman,Right,
,,,,,,,,,,,,,,,,,550,18,Woman,Right,3,77,0.15,2,0,180,0,0.2515091000004759,['y'],0.520379700000376,1.5819999999999999,1485.9966879999993,,,,,550,18,Woman,Right,
,,,,,,,,,,,,,,,,,550,18,Woman,Right,3,39,0.4,2,180,0,180,0.8514525000000503,['y'],0.41575319999992644,1.666,1489.3961868999995,,,,,550,18,Woman,Right,
,,,,,,,,,,,,,,,,,550,18,Woman,Right,3,69,0.15,2,0,180,180,0.14784700000018347,['y'],0.3277184999997189,1.32,1492.5462192999994,,,,,550,18,Woman,Right,
,,,,,,,,,,,,,,,,,550,18,Woman,Right,3,24,0.4,1,0,-,180,0.06545189999997092,['y'],0.4078935999996247,1.292,1495.5624425999995,,,,,550,18,Woman,Right,
,,,,,,,,,,,,,,,,,550,18,Woman,Right,3,18,0.4,1,180,-,180,1.2005932000001849,['y'],1.2625344999996742,1.4,1501.0804227999997,,,,,550,18,Woman,Right,
,,,,,,,,,,,,,,,,,550,18,Woman,Right,3,52,0.15,1,0,-,0,0.26386709999951563,['n'],0.7681486999999834,1.502,1504.4954611999992,,,,,550,18,Woman,Right,
,,,,,,,,,,,,,,,,,550,18,Woman,Right,3,47,0.15,2,180,0,0,0.2760011000000304,['y'],0.43209509999996953,1.828,1508.0456468999992,,,,,550,18,Woman,Right,
,,,,,,,,,,,,,,,,,550,18,Woman,Right,3,7,1,2,180,0,0,0.38240920000043843,['y'],0.23980310000024474,2.0,1510.9964846999992,,,,,550,18,Woman,Right,
,,,,,,,,,,,,,,,,,550,18,Woman,Right,3,50,0.15,1,180,-,0,0.25508460000037303,['y'],0.3358799999996336,1.786,1513.9624848999993,,,,,550,18,Woman,Right,
,,,,,,,,,,,,,,,,,550,18,Woman,Right,3,41,0.4,2,0,180,180,0.35124180000002525,['y'],0.36819439999999304,2.0,1517.1291629999996,,,,,550,18,Woman,Right,
,,,,,,,,,,,,,,,,,550,18,Woman,Right,3,2,1,1,180,-,180,0.27346699999998236,['n'],0.5518295000001672,2.0,1520.8959773999995,,,,,550,18,Woman,Right,
,,,,,,,,,,,,,,,,,550,18,Woman,Right,3,6,1,1,180,-,180,0.3040919999994003,['n'],0.48010729999987234,1.834,1524.3800868999997,,,,,550,18,Woman,Right,
,,,,,,,,,,,,,,,,,550,18,Woman,Right,3,11,0.4,2,180,0,0,0.388159999999516,['y'],0.4243138000001636,1.8860000000000001,1527.2635336999992,,,,,550,18,Woman,Right,
,,,,,,,,,,,,,,,,,550,18,Woman,Right,3,67,0.15,2,180,0,0,0.5571686000002956,['n'],0.7446323000003758,1.88,1530.7624141999995,,,,,550,18,Woman,Right,
,,,,,,,,,,,,,,,,,550,18,Woman,Right,3,68,0.15,1,0,-,180,0.2759635000002163,['n'],1.2805267000003369,1.552,1534.5622679999997,,,,,550,18,Woman,Right,
,,,,,,,,,,,,,,,,,550,18,Woman,Right,3,37,0.4,2,0,180,180,0.48154989999966347,['n'],0.7282421999998405,1.314,1538.0451733999998,,,,,550,18,Woman,Right,
,,,,,,,,,,,,,,,,,550,18,Woman,Right,3,59,0.15,2,180,0,180,0.23925400000007357,['n'],0.4237112000000707,1.784,1540.9966405999994,,,,,550,18,Woman,Right,
,,,,,,,,,,,,,,,,,550,18,Woman,Right,3,36,0.4,1,0,-,0,0.22994459999972605,['n'],0.9286057000008441,1.796,1544.7125324999997,,,,,550,18,Woman,Right,
,,,,,,,,,,,,,,,,,550,18,Woman,Right,3,1,1,2,0,180,0,0.01677819999986241,['y'],1.8351462999999058,1.926,1549.0454820999994,,,,,550,18,Woman,Right,
,,,,,,,,,,,,,,,,,550,18,Woman,Right,3,25,0.4,2,0,180,180,0.29323330000079295,['y'],1.2478399000001446,1.6480000000000001,1552.7626394,,,,,550,18,Woman,Right,
,,,,,,,,,,,,,,,,,550,18,Woman,Right,3,30,0.4,1,180,-,180,0.34664729999985866,['n'],0.5994223999996393,1.704,1555.7805079999998,,,,,550,18,Woman,Right,
,,,,,,,,,,,,,,,,,550,18,Woman,Right,3,38,0.4,1,180,-,180,0.30027050000080635,['n'],0.8199373999996169,1.732,1559.2786311,,,,,550,18,Woman,Right,
,,,,,,,,,,,,,,,,,550,18,Woman,Right,3,72,0.15,1,0,-,180,0.19867019999946933,['n'],1.0719893000004959,1.756,1562.5792632999992,,,,,550,18,Woman,Right,
,,,,,,,,,,,,,,,,,550,18,Woman,Right,3,22,0.4,1,180,-,180,0.2654608000002554,['n'],0.45664769999984856,1.756,1565.8623748999998,,,,,550,18,Woman,Right,
,,,,,,,,,,,,,,,,,550,18,Woman,Right,3,4,1,1,0,-,0,0.1391156999998202,['n'],1.2802639999999883,1.762,1569.3791261999995,,,,,550,18,Woman,Right,
,,,,,,,,,,,,,,,,,550,18,Woman,Right,3,76,0.15,1,0,-,0,0.3043534999997064,['y'],0.8244177999995372,1.764,1572.6616129999993,,,,,550,18,Woman,Right,
,,,,,,,,,,,,,,,,,550,18,Woman,Right,3,15,0.4,2,180,0,0,0.39297980000083044,['y'],0.6805666000000201,1.766,1575.7627809999994,,,,,550,18,Woman,Right,
,,,,,,,,,,,,,,,,,550,18,Woman,Right,3,49,0.15,2,0,180,180,0.6040563999995356,['y'],0.33688249999977415,1.766,1578.7297240999997,,,,,550,18,Woman,Right,
,,,,,,,,,,,,,,,,,550,18,Woman,Right,3,23,0.4,2,180,0,0,0.265775400000166,['y'],0.2897211999998035,1.766,1581.3953656999993,,,,,550,18,Woman,Right,
,,,,,,,,,,,,,,,,,550,18,Woman,Right,3,45,0.15,2,0,180,180,0.9422203000003719,['y'],0.271924300000137,1.766,1581.3953656999993,,,,,550,18,Woman,Right,
,,,,,,,,,,,,,,,,,550,18,Woman,Right,3,60,0.15,1,0,-,0,0.33419919999960257,['n'],1.0326105000003736,1.772,1588.1118262999998,,,,,550,18,Woman,Right,
,,,,,,,,,,,,,,,,,550,18,Woman,Right,3,78,0.15,1,180,-,0,0.3316475999999966,['y'],0.37654509999993024,1.772,1591.0288850999996,,,,,550,18,Woman,Right,
,,,,,,,,,,,,,,,,,550,18,Woman,Right,3,13,0.4,2,0,180,180,1.3196899999984453,['y'],0.6885719999991124,1.772,1595.8295276,,,,,550,18,Woman,Right,
,,,,,,,,,,,,,,,,,550,18,Woman,Right,3,66,0.15,1,180,-,180,1.2668039000000135,['y'],1.2641375999992306,1.6099999999999999,1601.2959254999996,,,,,550,18,Woman,Right,
,,,,,,,,,,,,,,,,,550,18,Woman,Right,3,31,0.4,2,180,0,0,0.27082139999947685,['y'],0.6561479000010877,1.708,1604.7118659999987,,,,,550,18,Woman,Right,
,,,,,,,,,,,,,,,,,550,18,Woman,Right,3,55,0.15,2,180,0,0,0.5138958999996248,['y'],0.5120366999999533,1.74,1608.0960812000003,,,,,550,18,Woman,Right,
,,,,,,,,,,,,,,,,,550,18,Woman,Right,3,35,0.4,2,180,0,0,0.2531007999987196,['y'],0.35247590000108175,1.744,1611.2959211999996,,,,,550,18,Woman,Right,
,,,,,,,,,,,,,,,,,550,18,Woman,Right,3,43,0.4,2,180,0,180,1.4875238000004174,['y'],0.5040281000001414,1.708,1616.3128287999998,,,,,550,18,Woman,Right,
,,,,,,,,,,,,,,,,,550,18,Woman,Right,3,62,0.15,1,180,-,180,0.28262309999990975,['y'],0.5291371000002982,1.732,1619.2456709999997,,,,,550,18,Woman,Right,
,,,,,,,,,,,,,,,,,550,18,Woman,Right,3,28,0.4,1,0,-,180,0.28904180000063207,['y'],2.7441311000002315,1.734,1624.3959418999993,,,,,550,18,Woman,Right,
,,,,,,,,,,,,,,,,,550,18,Woman,Right,3,19,0.4,2,180,0,180,0.3962078999993537,['y'],2.848651600001176,1.736,1629.8788209000004,,,,,550,18,Woman,Right,
,,,,,,,,,,,,,,,,,550,18,Woman,Right,3,33,0.4,2,0,180,180,0.28317989999959536,['y'],1.1359819999997853,1.738,1633.2956036999994,,,,,550,18,Woman,Right,
,,,,,,,,,,,,,,,,,550,18,Woman,Right,3,58,0.15,1,180,-,180,0.36797850000039034,['y'],2.151986400000169,1.742,1637.911634699999,,,,,550,18,Woman,Right,
,,,,,,,,,,,,,,,,,550,18,Woman,Right,3,10,0.4,1,180,-,180,0.5129419000004418,['y'],1.3042967000001227,1.746,1641.6782405999993,,,,,550,18,Woman,Right,
,,,,,,,,,,,,,,,,,550,18,Woman,Right,3,29,0.4,2,0,180,180,0.3287244000002829,['y'],0.32036089999928663,1.748,1645.0787727999987,,,,,550,18,Woman,Right,
,,,,,,,,,,,,,,,,,550,18,Woman,Right,3,17,0.4,2,0,180,180,0.8228064999984781,['y'],0.416299300000901,1.778,1648.3621326999992,,,,,550,18,Woman,Right,
,,,,,,,,,,,,,,,,,550,18,Woman,Right,3,73,0.15,2,0,180,180,0.7485216000004584,['y'],0.34428550000120595,1.782,1651.4960827000004,,,,,550,18,Woman,Right,
,,,,,,,,,,,,,,,,,550,18,Woman,Right,3,34,0.4,1,180,-,180,0.24850129999867931,['y'],1.9764259999992646,1.784,1656.2450395999995,,,,,550,18,Woman,Right,
,,,,,,,,,,,,,,,,,550,18,Woman,Right,3,74,0.15,1,180,-,180,0.25255720000131987,['y'],0.48790569999982836,1.784,1656.2450395999995,,,,,550,18,Woman,Right,
,,,,,,,,,,,,,,,,,550,18,Woman,Right,3,70,0.15,1,180,-,180,0.2054693000009138,['y'],0.14434820000133186,1.784,1661.1955549999993,,,,,550,18,Woman,Right,
,,,,,,,,,,,,,,,,,550,18,Woman,Right,3,21,0.4,2,0,180,180,1.2707558000001882,['y'],0.9838149999995949,1.674,1666.045759399999,,,,,550,18,Woman,Right,
,,,,,,,,,,,,,,,,,550,18,Woman,Right,3,64,0.15,1,0,-,180,0.34806140000000596,['n'],2.1439821000003576,1.698,1670.5291389999993,,,,,550,18,Woman,Right,
,,,,,,,,,,,,,,,,,550,18,Woman,Right,3,12,0.4,1,0,-,0,0.4670888000000559,['n'],1.5204211999989639,1.558,1675.5116135999988,,,,,550,18,Woman,Right,
,,,,,,,,,,,,,,,,,550,18,Woman,Right,3,56,0.15,1,0,-,0,1.7912467999994988,['y'],0.6157884999993257,1.662,1680.0454879,,,,,550,18,Woman,Right,
,,,,,,,,,,,,,,,,,550,18,Woman,Right,3,53,0.15,2,0,180,180,0.46071519999895827,['n'],1.1922199000000546,1.358,1684.4953323,,,,,550,18,Woman,Right,
,,,,,,,,,,,,,,,,,550,18,Woman,Right,3,61,0.15,2,0,180,180,0.9356337000008352,['y'],0.4719796999997925,1.8820000000000001,1687.961953699999,,,,,550,18,Woman,Right,
,,,,,,,,,,,,,,,,,550,18,Woman,Right,3,0,1,1,0,-,0,0.4135922000004939,['n'],0.8566539000003104,2.0,1691.445358599999,,,,,550,18,Woman,Right,
,,,,,,,,,,,,,,,,,550,18,Woman,Right,3,63,0.15,2,180,0,180,1.1272546999989572,['y'],0.496190599998954,1.77,1695.2292580999992,,,,,550,18,Woman,Right,
,,,,,,,,,,,,,,,,,550,18,Woman,Right,3,48,0.15,1,0,-,180,0.27939509999851,['n'],1.2562276999997266,1.3719999999999999,1699.1116382999999,,,,,550,18,Woman,Right,
,,,,,,,,,,,,,,,,,550,18,Woman,Right,3,9,0.4,2,0,180,180,1.4167408000012074,['y'],0.6002197999987402,1.912,1704.0618389,,,,,550,18,Woman,Right,
,,,,,,,,,,,,,,,,,550,18,Woman,Right,3,51,0.15,2,180,0,180,0.9143019000002823,['n'],0.6718676999989839,1.0,1707.9125983999993,,,,,550,18,Woman,Right,
,,,,,,,,,,,,,,,,,550,18,Woman,Right,3,5,1,2,0,180,180,0.7840809999997873,['y'],0.5122002999996766,2.0,1712.0448827999999,,,,,550,18,Woman,Right,
,,,,,,,,,,,,,,,,,550,18,Woman,Right,3,71,0.15,2,180,0,0,0.40794089999872085,['y'],0.9201534000003448,2.0,1715.6288706999994,,,,,550,18,Woman,Right,
,,,,,,,,,,,,,,,,,550,18,Woman,Right,3,32,0.4,1,0,-,180,0.4434834999992745,['n'],2.2244473999999173,1.024,1721.1285528999988,,,,,550,18,Woman,Right,
,,,,,,,,,,,,,,,,,550,18,Woman,Right,3,8,0.4,1,0,-,0,0.2367011000005732,['y'],0.3277224000012211,1.302,1724.7114582999993,,,,,550,18,Woman,Right,
,,,,,,,,,,,,,,,,,550,18,Woman,Right,3,57,0.15,2,0,180,180,0.8909361000005447,['y'],0.9753577999999834,1.866,1728.8451194999989,,,,,550,18,Woman,Right,
,,,,,,,,,,,,,,,,,550,18,Woman,Right,3,20,0.4,1,0,-,0,1.0443338999994012,['y'],6.488180899999861,1.192,1740.0450898999998,,,,,550,18,Woman,Right,
,,,,,,,,,,,,,,,,,550,18,Woman,Right,3,16,0.4,1,0,-,0,0.26624900000024354,['n'],0.5674634000006336,1.752,1743.6124129999998,,,,,550,18,Woman,Right,
,,,,,,,,,,,,,,,,,550,18,Woman,Right,3,42,0.4,1,180,-,180,0.4427023999996891,['n'],3.7923936000006506,1.646,1750.2461321,,,,,550,18,Woman,Right,
,,,,,,,,,,,,,,,,,550,18,Woman,Right,4,43,0.4,2,180,0,0,0.3310604999987845,['y'],0.4478906999993342,1.978,1790.8958049999992,73.75,45.0,87.5,,550,18,Woman,Right,
,,,,,,,,,,,,,,,,,550,18,Woman,Right,4,33,0.4,2,0,180,180,0.21565020000161894,['y'],0.4886177999997017,1.964,1793.7618522999992,,,,,550,18,Woman,Right,
,,,,,,,,,,,,,,,,,550,18,Woman,Right,4,74,0.15,1,180,-,180,0.39107979999971576,['n'],0.8403694999997242,1.312,1797.2112671000004,,,,,550,18,Woman,Right,
,,,,,,,,,,,,,,,,,550,18,Woman,Right,4,18,0.4,1,180,-,180,0.10007839999889256,['n'],0.7195772000013676,1.774,1800.2291610000002,,,,,550,18,Woman,Right,
,,,,,,,,,,,,,,,,,550,18,Woman,Right,4,45,0.15,2,0,180,180,0.16774199999963457,['y'],0.4401419000005262,1.836,1803.0779300000004,,,,,550,18,Woman,Right,
,,,,,,,,,,,,,,,,,550,18,Woman,Right,4,71,0.15,2,180,0,0,0.3836130999989109,['y'],0.4163573000005272,1.838,1805.9449218,,,,,550,18,Woman,Right,
,,,,,,,,,,,,,,,,,550,18,Woman,Right,4,44,0.15,1,0,-,0,0.06327749999945809,['y'],0.8725513999997929,1.838,1808.8952491999999,,,,,550,18,Woman,Right,
,,,,,,,,,,,,,,,,,550,18,Woman,Right,4,50,0.15,1,180,-,180,0.5630043000001024,['n'],1.4967059999999037,1.354,1813.194549499999,,,,,550,18,Woman,Right,
,,,,,,,,,,,,,,,,,550,18,Woman,Right,4,61,0.15,2,0,180,180,0.12289329999839538,['n'],0.6000511000002007,1.168,1817.0116964999988,,,,,550,18,Woman,Right,
,,,,,,,,,,,,,,,,,550,18,Woman,Right,4,26,0.4,1,180,-,180,0.3392926000014995,['n'],0.9195749999998952,2.0,1821.1444036000003,,,,,550,18,Woman,Right,
,,,,,,,,,,,,,,,,,550,18,Woman,Right,4,38,0.4,1,180,-,180,0.5981547999999748,['n'],1.7441958999988856,1.908,1826.1276544999992,,,,,550,18,Woman,Right,
,,,,,,,,,,,,,,,,,550,18,Woman,Right,4,21,0.4,2,0,180,180,0.47769569999945816,['y'],1.680366900000081,1.9,1830.6946493999994,,,,,550,18,Woman,Right,
,,,,,,,,,,,,,,,,,550,18,Woman,Right,4,11,0.4,2,180,0,0,0.17253060000075493,['y'],0.671807999999146,1.986,1833.8938836999996,,,,,550,18,Woman,Right,
,,,,,,,,,,,,,,,,,550,18,Woman,Right,4,19,0.4,2,180,0,0,0.15615410000100383,['y'],0.5359803999999713,1.996,1836.9110871000003,,,,,550,18,Woman,Right,
,,,,,,,,,,,,,,,,,550,18,Woman,Right,4,9,0.4,2,0,180,180,0.21535779999976512,['y'],0.6557647999998153,1.9,1839.9449336999996,,,,,550,18,Woman,Right,
,,,,,,,,,,,,,,,,,550,18,Woman,Right,4,15,0.4,2,180,0,0,0.1604085999988456,['y'],0.6481519999997545,1.87,1842.8946951999997,,,,,550,18,Woman,Right,
,,,,,,,,,,,,,,,,,550,18,Woman,Right,4,46,0.15,1,180,-,180,0.37976110000090557,['y'],0.224079100000381,1.926,1845.6285304000003,,,,,550,18,Woman,Right,
,,,,,,,,,,,,,,,,,550,18,Woman,Right,4,58,0.15,1,180,-,180,0.6943117000009806,['y'],0.4075919000006252,1.192,1849.7616608999988,,,,,550,18,Woman,Right,
,,,,,,,,,,,,,,,,,550,18,Woman,Right,4,60,0.15,1,0,-,0,0.18702830000074755,['y'],0.29622199999903387,1.854,1852.7613675999992,,,,,550,18,Woman,Right,
,,,,,,,,,,,,,,,,,550,18,Woman,Right,4,16,0.4,1,0,-,0,0.11918289999994158,['n'],0.608075900001495,1.8639999999999999,1855.9613741000003,,,,,550,18,Woman,Right,
,,,,,,,,,,,,,,,,,550,18,Woman,Right,4,31,0.4,2,180,0,0,0.23479320000114967,['y'],1.4643634999993083,1.8,1860.4285840000002,,,,,550,18,Woman,Right,
,,,,,,,,,,,,,,,,,550,18,Woman,Right,4,7,1,2,180,0,0,0.20003859999997076,['y'],0.3598677999998472,1.8780000000000001,1863.4447658,,,,,550,18,Woman,Right,
,,,,,,,,,,,,,,,,,550,18,Woman,Right,4,73,0.15,2,0,180,180,0.30919920000087586,['n'],0.6719916000001831,1.52,1867.6286250000003,,,,,550,18,Woman,Right,
,,,,,,,,,,,,,,,,,550,18,Woman,Right,4,8,0.4,1,0,-,0,0.15628990000004706,['y'],0.3521557000003668,1.3519999999999999,1870.8950620999994,,,,,550,18,Woman,Right,
,,,,,,,,,,,,,,,,,550,18,Woman,Right,4,76,0.15,1,0,-,180,0.159487299999455,['n'],0.7359188999998878,1.468,1874.213122799999,,,,,550,18,Woman,Right,
,,,,,,,,,,,,,,,,,550,18,Woman,Right,4,22,0.4,1,180,-,180,0.053343200001108926,['n'],0.6240549000012834,1.254,1877.0616934,,,,,550,18,Woman,Right,
,,,,,,,,,,,,,,,,,550,18,Woman,Right,4,12,0.4,1,0,-,180,0.017327600000498933,['y'],0.9915314999998373,1.358,1882.0780752,,,,,550,18,Woman,Right,
,,,,,,,,,,,,,,,,,550,18,Woman,Right,4,4,1,1,0,-,0,0.02963599999930011,['n'],1.2637629000000743,1.696,1885.6274348999987,,,,,550,18,Woman,Right,
,,,,,,,,,,,,,,,,,550,18,Woman,Right,4,5,1,2,0,180,180,0.25276599999961036,['y'],0.41587300000173855,1.8479999999999999,1888.3445198,,,,,550,18,Woman,Right,
,,,,,,,,,,,,,,,,,550,18,Woman,Right,4,59,0.15,2,180,0,0,2.4059000999986893,['y'],0.6234316999998555,1.8,1893.4125873000003,,,,,550,18,Woman,Right,
,,,,,,,,,,,,,,,,,550,18,Woman,Right,4,55,0.15,2,180,0,0,2.730725799998254,['y'],0.3922450000009121,1.264,1899.2776098000004,,,,,550,18,Woman,Right,
,,,,,,,,,,,,,,,,,550,18,Woman,Right,4,36,0.4,1,0,-,0,0.5119778999996925,['n'],0.9835084000005736,1.0,1903.6111575999994,,,,,550,18,Woman,Right,
,,,,,,,,,,,,,,,,,550,18,Woman,Right,4,20,0.4,1,0,-,180,0.1267470000002504,['y'],0.33600879999903555,1.214,1906.4790282999993,,,,,550,18,Woman,Right,
,,,,,,,,,,,,,,,,,550,18,Woman,Right,4,62,0.15,1,180,-,180,0.12155389999861654,['n'],0.3918820999988384,1.1360000000000001,1909.4294698999993,,,,,550,18,Woman,Right,
,,,,,,,,,,,,,,,,,550,18,Woman,Right,4,30,0.4,1,180,-,180,0.36050839999916207,['n'],0.3996865000008256,1.276,1912.4616046,,,,,550,18,Woman,Right,
,,,,,,,,,,,,,,,,,550,18,Woman,Right,4,56,0.15,1,0,-,0,0.592598100000032,['n'],0.5522481999996671,1.3319999999999999,1917.1607557999987,,,,,550,18,Woman,Right,
,,,,,,,,,,,,,,,,,550,18,Woman,Right,4,10,0.4,1,180,-,180,0.1011677000005875,['n'],0.38371039999947243,1.536,1921.9779701999987,,,,,550,18,Woman,Right,
,,,,,,,,,,,,,,,,,550,18,Woman,Right,4,32,0.4,1,0,-,0,0.33675940000102855,['n'],0.71216849999837,1.684,1925.4281932999993,,,,,550,18,Woman,Right,
,,,,,,,,,,,,,,,,,550,18,Woman,Right,4,47,0.15,2,180,0,0,0.8941419999991922,['n'],0.4564050999997562,1.3860000000000001,1928.9108917000003,,,,,550,18,Woman,Right,
,,,,,,,,,,,,,,,,,550,18,Woman,Right,4,6,1,1,180,-,180,0.023336300000664778,['n'],0.4876043000003847,1.242,1931.7109663,,,,,550,18,Woman,Right,
,,,,,,,,,,,,,,,,,550,18,Woman,Right,4,77,0.15,2,0,180,180,1.2620714000004227,['n'],0.4555620999999519,1.188,1935.711018699999,,,,,550,18,Woman,Right,
,,,,,,,,,,,,,,,,,550,18,Woman,Right,4,72,0.15,1,0,-,180,0.23306630000115547,['n'],0.6238723999995273,1.194,1938.9444025000003,,,,,550,18,Woman,Right,
,,,,,,,,,,,,,,,,,550,18,Woman,Right,4,78,0.15,1,180,-,180,0.3341063000007125,['n'],0.45621289999871806,1.6280000000000001,1942.4616531000001,,,,,550,18,Woman,Right,
,,,,,,,,,,,,,,,,,550,18,Woman,Right,4,0,1,1,0,-,0,0.016836000000694185,['n'],0.374176900000748,1.76,1945.2778943000003,,,,,550,18,Woman,Right,
,,,,,,,,,,,,,,,,,550,18,Woman,Right,4,35,0.4,2,180,0,0,0.33136649999869405,['y'],0.4401507999991736,1.75,1949.3782550999995,,,,,550,18,Woman,Right,
,,,,,,,,,,,,,,,,,550,18,Woman,Right,4,75,0.15,2,180,0,180,0.24743109999872104,['n'],0.647715999999491,1.5819999999999999,1952.4936625,,,,,550,18,Woman,Right,
,,,,,,,,,,,,,,,,,550,18,Woman,Right,4,39,0.4,2,180,0,0,0.23136599999997998,['y'],0.4643711999997322,1.808,1955.393885299999,,,,,550,18,Woman,Right,
,,,,,,,,,,,,,,,,,550,18,Woman,Right,4,66,0.15,1,180,-,180,0.31103020000045944,['n'],0.648092400000678,1.328,1958.377801399999,,,,,550,18,Woman,Right,
,,,,,,,,,,,,,,,,,550,18,Woman,Right,4,25,0.4,2,0,180,180,0.24410549999993236,['y'],0.9681414000006043,1.81,1962.4940655,,,,,550,18,Woman,Right,
,,,,,,,,,,,,,,,,,550,18,Woman,Right,4,42,0.4,1,180,-,180,0.01820610000140732,['n'],0.5996233000005304,1.058,1965.1781240999999,,,,,550,18,Woman,Right,
,,,,,,,,,,,,,,,,,550,18,Woman,Right,4,79,0.15,2,180,0,0,0.5645827000007557,['y'],0.7359324999997625,1.518,1968.8935180999988,,,,,550,18,Woman,Right,
,,,,,,,,,,,,,,,,,550,18,Woman,Right,4,51,0.15,2,180,0,180,0.3355764999996609,['n'],0.9281881000006251,1.504,1974.5441898,,,,,550,18,Woman,Right,
,,,,,,,,,,,,,,,,,550,18,Woman,Right,4,23,0.4,2,180,0,0,0.19219599999996717,['y'],0.3917744999998831,1.662,1977.2780928000002,,,,,550,18,Woman,Right,
,,,,,,,,,,,,,,,,,550,18,Woman,Right,4,68,0.15,1,0,-,180,0.48163560000102734,['n'],0.7197366000000329,1.338,1980.8774072999995,,,,,550,18,Woman,Right,
,,,,,,,,,,,,,,,,,550,18,Woman,Right,4,65,0.15,2,0,180,0,0.6512033999988489,['n'],1.119521499998882,1.276,1985.1272492999988,,,,,550,18,Woman,Right,
,,,,,,,,,,,,,,,,,550,18,Woman,Right,4,29,0.4,2,0,180,180,0.299041499998566,['y'],1.2082499999996799,1.814,1989.344635999999,,,,,550,18,Woman,Right,
,,,,,,,,,,,,,,,,,550,18,Woman,Right,4,41,0.4,2,0,180,180,0.40695679999953427,['y'],3.33599680000043,1.788,1995.5778920000002,,,,,550,18,Woman,Right,
,,,,,,,,,,,,,,,,,550,18,Woman,Right,4,1,1,2,0,180,180,0.943687900000441,['y'],0.5842369000001781,1.816,1999.7441998999993,,,,,550,18,Woman,Right,
,,,,,,,,,,,,,,,,,550,18,Woman,Right,4,57,0.15,2,0,180,180,0.7881804999997257,['n'],0.7519745999998122,1.65,2004.0275969000004,,,,,550,18,Woman,Right,
,,,,,,,,,,,,,,,,,550,18,Woman,Right,4,34,0.4,1,180,-,180,0.24500529999932041,['n'],1.8799772000002122,1.3639999999999999,2008.5441366000005,,,,,550,18,Woman,Right,
,,,,,,,,,,,,,,,,,550,18,Woman,Right,4,54,0.15,1,180,-,180,0.37011060000077123,['n'],0.6082217999992281,1.3860000000000001,2011.5283320999997,,,,,550,18,Woman,Right,
,,,,,,,,,,,,,,,,,550,18,Woman,Right,4,69,0.15,2,0,180,180,0.22960169999896607,['y'],1.2565528000013728,1.548,2015.2939947999994,,,,,550,18,Woman,Right,
,,,,,,,,,,,,,,,,,550,18,Woman,Right,4,28,0.4,1,0,-,0,0.28650910000033036,['n'],0.8645185000004858,1.506,2018.5939833999992,,,,,550,18,Woman,Right,
,,,,,,,,,,,,,,,,,550,18,Woman,Right,4,48,0.15,1,0,-,180,0.25368150000031164,['n'],0.9758853999992425,1.47,2022.6452387,,,,,550,18,Woman,Right,
,,,,,,,,,,,,,,,,,550,18,Woman,Right,4,17,0.4,2,0,180,180,0.395850299999438,['y'],0.43226529999992636,1.5899999999999999,2026.0612797000003,,,,,550,18,Woman,Right,
,,,,,,,,,,,,,,,,,550,18,Woman,Right,4,27,0.4,2,180,0,180,0.05847320000066247,['n'],1.7198427000002994,1.0,2031.427306999999,,,,,550,18,Woman,Right,
,,,,,,,,,,,,,,,,,550,18,Woman,Right,4,40,0.4,1,0,-,0,0.3576051000000007,['n'],2.1512855000000854,1.67,2036.4607253999993,,,,,550,18,Woman,Right,
,,,,,,,,,,,,,,,,,550,18,Woman,Right,4,63,0.15,2,180,0,180,1.0349246000005223,['n'],3.311700499998551,1.422,2043.643763699999,,,,,550,18,Woman,Right,
,,,,,,,,,,,,,,,,,550,18,Woman,Right,4,24,0.4,1,0,-,180,0.6099389000009978,['n'],0.8799443999996583,1.462,2047.4609286000004,,,,,550,18,Woman,Right,
,,,,,,,,,,,,,,,,,550,18,Woman,Right,4,64,0.15,1,0,-,180,0.3285939999987022,['n'],0.4879930000006425,1.432,2050.5111030999988,,,,,550,18,Woman,Right,
,,,,,,,,,,,,,,,,,550,18,Woman,Right,4,13,0.4,2,0,180,180,0.3433114999988902,['y'],0.5442493999998987,1.686,2053.5444249,,,,,550,18,Woman,Right,
,,,,,,,,,,,,,,,,,550,18,Woman,Right,4,70,0.15,1,180,-,180,0.33601760000055947,['n'],0.6482104999995499,1.412,2056.6439143999987,,,,,550,18,Woman,Right,
,,,,,,,,,,,,,,,,,550,18,Woman,Right,4,3,1,2,180,0,0,0.37054409999836935,['y'],0.4567121000000043,2.0,2059.7272853999993,,,,,550,18,Woman,Right,
,,,,,,,,,,,,,,,,,550,18,Woman,Right,4,2,1,1,180,-,180,0.5204524000000674,['n'],0.3758698999990884,2.0,2064.460637699999,,,,,550,18,Woman,Right,
,,,,,,,,,,,,,,,,,550,18,Woman,Right,4,67,0.15,2,180,0,180,0.3082432000010158,['y'],0.32828559999870777,1.354,2067.4606587999997,,,,,550,18,Woman,Right,
,,,,,,,,,,,,,,,,,550,18,Woman,Right,4,49,0.15,2,0,180,180,0.395099699999264,['n'],0.5839292000000569,1.186,2071.0108266999987,,,,,550,18,Woman,Right,
,,,,,,,,,,,,,,,,,550,18,Woman,Right,4,52,0.15,1,0,-,0,0.3175178000001324,['n'],0.9362806000008277,2.0,2074.3772285999994,,,,,550,18,Woman,Right,
,,,,,,,,,,,,,,,,,550,18,Woman,Right,4,53,0.15,2,0,180,180,0.9192364000009547,['y'],0.496026200000415,1.512,2078.2774497,,,,,550,18,Woman,Right,
,,,,,,,,,,,,,,,,,550,18,Woman,Right,4,37,0.4,2,0,180,180,0.24060570000074222,['n'],1.3200496999997995,1.682,2082.0770937999996,,,,,550,18,Woman,Right,
,,,,,,,,,,,,,,,,,550,18,Woman,Right,4,14,0.4,1,180,-,180,0.32594260000041686,['n'],2.128357400000823,1.518,2086.744082299999,,,,,550,18,Woman,Right,
,,,,,,,,,,,,,,,,,550,18,Woman,Right,5,32,0.4,1,0,-,180,0.4759892000001855,['n'],0.24816680000003544,1.262,2109.8433096,82.5,82.5,70.0,,550,18,Woman,Right,
,,,,,,,,,,,,,,,,,550,18,Woman,Right,5,79,0.15,2,180,0,180,0.016635500000120373,['n'],0.7804147000006196,1.346,2113.043360299999,,,,,550,18,Woman,Right,
,,,,,,,,,,,,,,,,,550,18,Woman,Right,5,58,0.15,1,180,-,180,0.2054989000007481,['n'],0.6478296000004775,1.21,2115.8932945999995,,,,,550,18,Woman,Right,
,,,,,,,,,,,,,,,,,550,18,Woman,Right,5,62,0.15,1,180,-,180,0.2559019000000262,['n'],0.9843968000004679,1.392,2119.243561099999,,,,,550,18,Woman,Right,
,,,,,,,,,,,,,,,,,550,18,Woman,Right,5,35,0.4,2,180,0,0,0.5495077999985369,['y'],1.2453894999998738,1.38,2123.3770041999987,,,,,550,18,Woman,Right,
,,,,,,,,,,,,,,,,,550,18,Woman,Right,5,37,0.4,2,0,180,180,0.7666920000010577,['y'],1.5681853000005503,1.68,2127.9117110999987,,,,,550,18,Woman,Right,
,,,,,,,,,,,,,,,,,550,18,Woman,Right,5,5,1,2,0,180,180,0.347516199999518,['y'],0.6482451000010769,2.0,2131.2772947999993,,,,,550,18,Woman,Right,
,,,,,,,,,,,,,,,,,550,18,Woman,Right,5,53,0.15,2,0,180,180,0.18464959999982966,['y'],1.1598187999989023,2.0,2134.7440658999994,,,,,550,18,Woman,Right,
,,,,,,,,,,,,,,,,,550,18,Woman,Right,5,75,0.15,2,180,0,0,0.1972275999996782,['y'],0.3445833000005223,2.0,2137.4272479,,,,,550,18,Woman,Right,
,,,,,,,,,,,,,,,,,550,18,Woman,Right,5,21,0.4,2,0,180,180,0.4509072000000742,['y'],0.2565028999997594,2.0,2140.810257099999,,,,,550,18,Woman,Right,
,,,,,,,,,,,,,,,,,550,18,Woman,Right,5,68,0.15,1,0,-,180,0.609231099999306,['y'],1.3845777999995335,1.2,2144.9435600999996,,,,,550,18,Woman,Right,
,,,,,,,,,,,,,,,,,550,18,Woman,Right,5,64,0.15,1,0,-,180,0.472388599999249,['n'],0.9602732000003016,1.534,2148.743261999999,,,,,550,18,Woman,Right,
,,,,,,,,,,,,,,,,,550,18,Woman,Right,5,78,0.15,1,180,-,180,0.9700403999995615,['y'],0.39992809999966994,1.482,2152.693771199999,,,,,550,18,Woman,Right,
,,,,,,,,,,,,,,,,,550,18,Woman,Right,5,16,0.4,1,0,-,0,0.4175714999983029,['n'],0.6955253000014636,1.328,2155.961367699999,,,,,550,18,Woman,Right,
,,,,,,,,,,,,,,,,,550,18,Woman,Right,5,59,0.15,2,180,0,180,0.9712349000001268,['y'],0.30405570000039006,1.438,2159.6097251,,,,,550,18,Woman,Right,
,,,,,,,,,,,,,,,,,550,18,Woman,Right,5,50,0.15,1,180,-,180,0.2498156999990897,['y'],0.1957468999989942,1.522,2162.2431571999996,,,,,550,18,Woman,Right,
,,,,,,,,,,,,,,,,,550,18,Woman,Right,5,71,0.15,2,180,0,0,0.6063157000007777,['y'],0.4237467999992077,1.46,2165.4101392000002,,,,,550,18,Woman,Right,
,,,,,,,,,,,,,,,,,550,18,Woman,Right,5,1,1,2,0,180,180,0.4521452999997564,['y'],0.26370069999939005,2.0,2168.7765269,,,,,550,18,Woman,Right,
,,,,,,,,,,,,,,,,,550,18,Woman,Right,5,8,0.4,1,0,-,180,0.5353578000012931,['y'],0.3518824999991921,1.314,2172.1606289,,,,,550,18,Woman,Right,
,,,,,,,,,,,,,,,,,550,18,Woman,Right,5,3,1,2,180,0,0,0.35397009999906004,['y'],0.41657630000008794,2.0,2175.2936636999993,,,,,550,18,Woman,Right,
,,,,,,,,,,,,,,,,,550,18,Woman,Right,5,13,0.4,2,0,180,180,0.20920830000068236,['y'],0.32784130000072764,2.0,2178.142943599999,,,,,550,18,Woman,Right,
,,,,,,,,,,,,,,,,,550,18,Woman,Right,5,10,0.4,1,180,-,0,0.40846200000123645,['n'],0.9044135000003735,1.238,2181.7278610999992,,,,,550,18,Woman,Right,
,,,,,,,,,,,,,,,,,550,18,Woman,Right,5,44,0.15,1,0,-,180,0.3058466000002227,['y'],0.3440770999986853,1.3,2184.7939276999996,,,,,550,18,Woman,Right,
,,,,,,,,,,,,,,,,,550,18,Woman,Right,5,60,0.15,1,0,-,180,0.23136560000057216,['y'],0.2558515000000625,1.274,2187.7269463000002,,,,,550,18,Woman,Right,
,,,,,,,,,,,,,,,,,550,18,Woman,Right,5,15,0.4,2,180,0,0,0.19491449999986799,['y'],0.3684016999995947,1.548,2190.4785955999987,,,,,550,18,Woman,Right,
,,,,,,,,,,,,,,,,,550,18,Woman,Right,5,46,0.15,1,180,-,180,0.43634059999931196,['y'],0.3196415000002162,1.294,2193.410585499999,,,,,550,18,Woman,Right,
,,,,,,,,,,,,,,,,,550,18,Woman,Right,5,42,0.4,1,180,-,180,0.1587030999999115,['y'],0.3039781999996194,1.0,2197.1438682,,,,,550,18,Woman,Right,
,,,,,,,,,,,,,,,,,550,18,Woman,Right,5,38,0.4,1,180,-,180,0.8300347999993392,['n'],0.2484253999991779,1.392,2200.7932792,,,,,550,18,Woman,Right,
,,,,,,,,,,,,,,,,,550,18,Woman,Right,5,31,0.4,2,180,0,0,0.3888397000009718,['y'],0.3039267000003747,1.75,2203.827411199999,,,,,550,18,Woman,Right,
,,,,,,,,,,,,,,,,,550,18,Woman,Right,5,67,0.15,2,180,0,180,0.293036299999585,['y'],0.2957503999987239,1.592,2206.6429058000003,,,,,550,18,Woman,Right,
,,,,,,,,,,,,,,,,,550,18,Woman,Right,5,49,0.15,2,0,180,180,0.23468590000084077,['y'],0.2800350999987131,1.4,2209.3929089000003,,,,,550,18,Woman,Right,
,,,,,,,,,,,,,,,,,550,18,Woman,Right,5,69,0.15,2,0,180,180,0.274946400000772,['y'],1.120005000000674,1.584,2213.3269458000004,,,,,550,18,Woman,Right,
,,,,,,,,,,,,,,,,,550,18,Woman,Right,5,43,0.4,2,180,0,0,0.4650062999990041,['y'],0.9279684000011912,1.79,2216.7938494,,,,,550,18,Woman,Right,
,,,,,,,,,,,,,,,,,550,18,Woman,Right,5,48,0.15,1,0,-,0,0.2726548999999068,['y'],0.3602475999996386,1.79,2216.7938494,,,,,550,18,Woman,Right,
,,,,,,,,,,,,,,,,,550,18,Woman,Right,5,4,1,1,0,-,0,0.2328524999993533,['y'],0.23814080000011018,1.274,2222.6943043,,,,,550,18,Woman,Right,
,,,,,,,,,,,,,,,,,550,18,Woman,Right,5,51,0.15,2,180,0,180,0.6842176999998628,['y'],0.45613240000056976,1.322,2226.860512,,,,,550,18,Woman,Right,
,,,,,,,,,,,,,,,,,550,18,Woman,Right,5,28,0.4,1,0,-,180,0.29893649999939953,['n'],1.440329600000041,1.57,2231.175926699999,,,,,550,18,Woman,Right,
,,,,,,,,,,,,,,,,,550,18,Woman,Right,5,20,0.4,1,0,-,180,0.1496610000012879,['n'],0.4238214999986667,1.488,2234.077236599999,,,,,550,18,Woman,Right,
,,,,,,,,,,,,,,,,,550,18,Woman,Right,5,11,0.4,2,180,0,0,0.3679060999984358,['y'],0.5118970000003173,1.714,2237.294135699999,,,,,550,18,Woman,Right,
,,,,,,,,,,,,,,,,,550,18,Woman,Right,5,12,0.4,1,0,-,0,0.654675200001293,['n'],0.5923370999989857,1.556,2240.7927044999988,,,,,550,18,Woman,Right,
,,,,,,,,,,,,,,,,,550,18,Woman,Right,5,34,0.4,1,180,-,180,0.18823089999932563,['n'],1.592392499998823,1.626,2244.8271557999988,,,,,550,18,Woman,Right,
,,,,,,,,,,,,,,,,,550,18,Woman,Right,5,65,0.15,2,0,180,180,0.5338624000014534,['y'],0.8640727999991213,1.07,2249.077159199999,,,,,550,18,Woman,Right,
,,,,,,,,,,,,,,,,,550,18,Woman,Right,5,2,1,1,180,-,180,0.595704499999556,['n'],0.8801339000001462,1.998,2252.892283099999,,,,,550,18,Woman,Right,
,,,,,,,,,,,,,,,,,550,18,Woman,Right,5,24,0.4,1,0,-,0,0.3260750999997981,['n'],1.9443795999995928,1.966,2257.7271223999987,,,,,550,18,Woman,Right,
,,,,,,,,,,,,,,,,,550,18,Woman,Right,5,23,0.4,2,180,0,0,0.41159309999966354,['y'],0.36802610000086133,1.858,2260.6941787999995,,,,,550,18,Woman,Right,
,,,,,,,,,,,,,,,,,550,18,Woman,Right,5,0,1,1,0,-,0,0.23728050000136136,['y'],0.3440346999996109,1.13,2264.6931983000004,,,,,550,18,Woman,Right,
,,,,,,,,,,,,,,,,,550,18,Woman,Right,5,26,0.4,1,180,-,180,0.302687600000354,['n'],0.775786700000026,1.98,2268.1434026999987,,,,,550,18,Woman,Right,
,,,,,,,,,,,,,,,,,550,18,Woman,Right,5,22,0.4,1,180,-,180,0.8342426999988675,['n'],0.19275610000113375,1.92,2271.2933323999996,,,,,550,18,Woman,Right,
,,,,,,,,,,,,,,,,,550,18,Woman,Right,5,9,0.4,2,0,180,180,0.32913919999919017,['n'],1.2801853000000847,2.0,2275.742414399999,,,,,550,18,Woman,Right,
,,,,,,,,,,,,,,,,,550,18,Woman,Right,5,56,0.15,1,0,-,0,0.2432050999996136,['n'],0.9355149000002712,1.558,2279.7267481999997,,,,,550,18,Woman,Right,
,,,,,,,,,,,,,,,,,550,18,Woman,Right,5,30,0.4,1,180,-,180,0.26697629999944184,['n'],0.7518756999998004,1.874,2283.0268198000003,,,,,550,18,Woman,Right,
,,,,,,,,,,,,,,,,,550,18,Woman,Right,5,39,0.4,2,180,0,0,0.35982739999963087,['y'],1.600277700001243,1.552,2287.076456599999,,,,,550,18,Woman,Right,
,,,,,,,,,,,,,,,,,550,18,Woman,Right,5,47,0.15,2,180,0,0,0.4645333999997092,['y'],0.5114084999986517,1.714,2290.2600398000004,,,,,550,18,Woman,Right,
,,,,,,,,,,,,,,,,,550,18,Woman,Right,5,18,0.4,1,180,-,180,0.10266199999932724,['n'],0.6800708999999188,1.88,2293.127075899999,,,,,550,18,Woman,Right,
,,,,,,,,,,,,,,,,,550,18,Woman,Right,5,17,0.4,2,0,180,180,0.3683519000005617,['y'],0.5602945999999065,1.9,2296.226555299999,,,,,550,18,Woman,Right,
,,,,,,,,,,,,,,,,,550,18,Woman,Right,5,61,0.15,2,0,180,180,0.2613822999992408,['y'],0.5119706000004953,1.512,2299.2935343,,,,,550,18,Woman,Right,
,,,,,,,,,,,,,,,,,550,18,Woman,Right,5,55,0.15,2,180,0,180,0.14942829999927199,['n'],0.43943749999925785,1.5979999999999999,2302.1096823,,,,,550,18,Woman,Right,
,,,,,,,,,,,,,,,,,550,18,Woman,Right,5,52,0.15,1,0,-,180,0.19175499999983003,['y'],0.28811119999954826,1.508,2304.9104933999997,,,,,550,18,Woman,Right,
,,,,,,,,,,,,,,,,,550,18,Woman,Right,5,57,0.15,2,0,180,180,1.0271099999990838,['y'],0.5435764000012568,1.732,2308.5097994,,,,,550,18,Woman,Right,
,,,,,,,,,,,,,,,,,550,18,Woman,Right,5,76,0.15,1,0,-,180,0.2638063000013062,['y'],1.3116450999987137,1.596,2312.343041199999,,,,,550,18,Woman,Right,
,,,,,,,,,,,,,,,,,550,18,Woman,Right,5,29,0.4,2,0,180,180,0.22832039999957487,['n'],0.1753965000007156,1.436,2315.260267499999,,,,,550,18,Woman,Right,
,,,,,,,,,,,,,,,,,550,18,Woman,Right,5,33,0.4,2,0,180,180,0.20727000000078988,['y'],0.5279241999996884,1.9060000000000001,2318.4924561,,,,,550,18,Woman,Right,
,,,,,,,,,,,,,,,,,550,18,Woman,Right,5,66,0.15,1,180,-,180,0.18948139999884006,['y'],0.3280304999989312,1.342,2321.2103546999997,,,,,550,18,Woman,Right,
,,,,,,,,,,,,,,,,,550,18,Woman,Right,5,19,0.4,2,180,0,180,0.42340599999988626,['y'],0.2719586999992316,1.534,2324.1092906000003,,,,,550,18,Woman,Right,
,,,,,,,,,,,,,,,,,550,18,Woman,Right,5,72,0.15,1,0,-,180,0.2268420000000333,['y'],0.2400441999998293,1.3319999999999999,2326.8599862,,,,,550,18,Woman,Right,
,,,,,,,,,,,,,,,,,550,18,Woman,Right,5,6,1,1,180,-,180,0.49945610000031593,['n'],0.7682395000010729,1.912,2330.8598457,,,,,550,18,Woman,Right,
,,,,,,,,,,,,,,,,,550,18,Woman,Right,5,7,1,2,180,0,0,0.27907819999927597,['y'],0.3841890000003332,2.0,2334.0262921000003,,,,,550,18,Woman,Right,
,,,,,,,,,,,,,,,,,550,18,Woman,Right,5,25,0.4,2,0,180,180,0.1362766999991436,['y'],2.0724477999992814,2.0,2338.5758237,,,,,550,18,Woman,Right,
,,,,,,,,,,,,,,,,,550,18,Woman,Right,5,63,0.15,2,180,0,180,0.16387939999913215,['y'],0.29575260000092385,1.254,2341.7588877999997,,,,,550,18,Woman,Right,
,,,,,,,,,,,,,,,,,550,18,Woman,Right,5,14,0.4,1,180,-,180,0.3274654000015289,['n'],0.5683699999990495,2.0,2345.2441904999987,,,,,550,18,Woman,Right,
,,,,,,,,,,,,,,,,,550,18,Woman,Right,5,54,0.15,1,180,-,180,0.2197520000008808,['n'],0.7679249000011623,1.294,2348.4428457999993,,,,,550,18,Woman,Right,
,,,,,,,,,,,,,,,,,550,18,Woman,Right,5,41,0.4,2,0,180,180,0.351280200000474,['y'],0.5277243000000453,2.0,2351.576412399999,,,,,550,18,Woman,Right,
,,,,,,,,,,,,,,,,,550,18,Woman,Right,5,74,0.15,1,180,-,180,0.1629534000003332,['y'],0.2794088999999076,1.086,2354.1768029000004,,,,,550,18,Woman,Right,
,,,,,,,,,,,,,,,,,550,18,Woman,Right,5,27,0.4,2,180,0,180,0.016795300000012503,['y'],0.5117322000005515,1.086,2354.1768029000004,,,,,550,18,Woman,Right,
,,,,,,,,,,,,,,,,,550,18,Woman,Right,5,40,0.4,1,0,-,0,0.7361845000014,['n'],1.3764136000008875,1.0,2361.7770193999995,,,,,550,18,Woman,Right,
,,,,,,,,,,,,,,,,,550,18,Woman,Right,5,77,0.15,2,0,180,180,0.1423967000009725,['n'],0.2720647000005556,1.0,2364.8922921000003,,,,,550,18,Woman,Right,
,,,,,,,,,,,,,,,,,550,18,Woman,Right,5,73,0.15,2,0,180,180,0.017039800000929972,['n'],3.4632062000000587,1.0,2371.726718699999,,,,,550,18,Woman,Right,
,,,,,,,,,,,,,,,,,550,18,Woman,Right,5,70,0.15,1,180,-,0,0.23585449999882258,['n'],1.0798855000011827,1.162,2375.542266899999,,,,,550,18,Woman,Right,
,,,,,,,,,,,,,,,,,550,18,Woman,Right,5,45,0.15,2,0,180,180,0.7803261000008206,['y'],1.4638238999996247,1.162,2375.542266899999,,,,,550,18,Woman,Right,
,,,,,,,,,,,,,,,,,550,18,Woman,Right,5,36,0.4,1,0,-,180,0.7352291000006517,['y'],0.8080614999998943,1.38,2384.909990199999,,,,,550,18,Woman,Right,
,,,,,,,,,,,,,,,,,,,,,,,,,,,,,,,,,72.5,57.5,85.0,2070.7180310000003,,,,,
