p_block,p_section,p_coherence,p_direction1,p_direction2,p_direction_response,p_direction_RT,p_change_response,p_change_RT,p_confidence,p_full_correct,p_without5_correct,p_full_total,p_without5_total,p_full_avg,p_witout5_avg,p_total_time,sub,age,sex,handedness,loop,trial randomization,coherence,condition,direction1,direction2,direction_response,direction_RT,change_response,change_RT,change_confidence,change_confidence_RT,block_direction_avg,block_stable_avg,block_change_avg,total_time,sub,age,sex,handedness,
1,1,1.0,0,-,0,1.2278909000001477,-,-,-,,,,,,,,534,18,Woman,Right,,,,,,,,,,,,,,,,,534,18,Woman,Right,
1,1,1.0,180,-,180,0.678001600000016,-,-,-,,,,,,,,534,18,Woman,Right,,,,,,,,,,,,,,,,,534,18,Woman,Right,
1,1,1.0,180,-,180,0.5011951999999837,-,-,-,,,,,,,,534,18,Woman,Right,,,,,,,,,,,,,,,,,534,18,Woman,Right,
1,1,1.0,0,-,0,0.44914459999995415,-,-,-,,,,,,,,534,18,Woman,Right,,,,,,,,,,,,,,,,,534,18,Woman,Right,
1,1,1.0,180,-,180,0.4516151999998783,-,-,-,,,,,,,,534,18,Woman,Right,,,,,,,,,,,,,,,,,534,18,Woman,Right,
1,1,1.0,180,-,180,0.516447099999823,-,-,-,,,,,,,,534,18,Woman,Right,,,,,,,,,,,,,,,,,534,18,Woman,Right,
1,1,1.0,180,-,180,0.4723971000000802,-,-,-,,,,,,,,534,18,Woman,Right,,,,,,,,,,,,,,,,,534,18,Woman,Right,
1,1,1.0,180,-,180,0.5362053000001197,-,-,-,,,,,,,,534,18,Woman,Right,,,,,,,,,,,,,,,,,534,18,Woman,Right,
1,1,1.0,0,-,0,0.42094489999999496,-,-,-,,,,,,,,534,18,Woman,Right,,,,,,,,,,,,,,,,,534,18,Woman,Right,
1,1,1.0,0,-,0,0.47157270000002427,-,-,-,10,10,10,10,1.0,1.0,,534,18,Woman,Right,,,,,,,,,,,,,,,,,534,18,Woman,Right,
2,1,0.4,0,-,0,0.7152564000000439,-,-,-,,,,,,,,534,18,Woman,Right,,,,,,,,,,,,,,,,,534,18,Woman,Right,
2,1,0.4,180,-,180,0.5686356000001069,-,-,-,,,,,,,,534,18,Woman,Right,,,,,,,,,,,,,,,,,534,18,Woman,Right,
2,1,0.15,180,-,180,0.5246635000000879,-,-,-,,,,,,,,534,18,Woman,Right,,,,,,,,,,,,,,,,,534,18,Woman,Right,
2,1,0.4,180,-,180,0.5143453000000591,-,-,-,,,,,,,,534,18,Woman,Right,,,,,,,,,,,,,,,,,534,18,Woman,Right,
2,1,0.15,180,-,180,0.567147999999861,-,-,-,,,,,,,,534,18,Woman,Right,,,,,,,,,,,,,,,,,534,18,Woman,Right,
2,1,0.15,180,-,180,0.41154819999997017,-,-,-,,,,,,,,534,18,Woman,Right,,,,,,,,,,,,,,,,,534,18,Woman,Right,
2,1,0.4,180,-,180,0.43244320000007974,-,-,-,,,,,,,,534,18,Woman,Right,,,,,,,,,,,,,,,,,534,18,Woman,Right,
2,1,0.15,0,-,0,0.7185048999999708,-,-,-,,,,,,,,534,18,Woman,Right,,,,,,,,,,,,,,,,,534,18,Woman,Right,
2,1,0.4,180,-,180,0.516180200000008,-,-,-,,,,,,,,534,18,Woman,Right,,,,,,,,,,,,,,,,,534,18,Woman,Right,
2,1,0.15,180,-,180,0.465472200000022,-,-,-,10,5,10,5,1.0,1.0,,534,18,Woman,Right,,,,,,,,,,,,,,,,,534,18,Woman,Right,
3,2,1.0,0,180,180,4.082692000000179,['y'],11.116354000000001,2,,,,,,,,534,18,Woman,Right,,,,,,,,,,,,,,,,,534,18,Woman,Right,
3,2,1.0,180,0,0,2.532799599999862,['y'],3.4141687000001184,2.0,,,,,,,,534,18,Woman,Right,,,,,,,,,,,,,,,,,534,18,Woman,Right,
3,2,1.0,0,180,180,2.095402100000001,['y'],1.2568467000000965,2.0,,,,,,,,534,18,Woman,Right,,,,,,,,,,,,,,,,,534,18,Woman,Right,
3,2,1.0,180,0,0,1.8583404999999402,['y'],1.3824425000000247,2.0,,,,,,,,534,18,Woman,Right,,,,,,,,,,,,,,,,,534,18,Woman,Right,
3,2,1.0,180,0,0,1.3906101000000035,['y'],0.5964249999999538,2.0,,,,,,,,534,18,Woman,Right,,,,,,,,,,,,,,,,,534,18,Woman,Right,
3,2,1.0,180,0,0,1.274591199999577,['y'],0.7340134000000944,2.0,,,,,,,,534,18,Woman,Right,,,,,,,,,,,,,,,,,534,18,Woman,Right,
3,2,1.0,0,180,180,1.1762527000000773,['y'],0.4483465999996952,2.0,,,,,,,,534,18,Woman,Right,,,,,,,,,,,,,,,,,534,18,Woman,Right,
3,2,1.0,180,0,0,1.6188466999997217,['y'],1.8878336000002491,2.0,,,,,,,,534,18,Woman,Right,,,,,,,,,,,,,,,,,534,18,Woman,Right,
3,2,1.0,0,180,180,1.0072841000001063,['y'],0.4132798999999068,2.0,,,,,,,,534,18,Woman,Right,,,,,,,,,,,,,,,,,534,18,Woman,Right,
3,2,1.0,180,0,0,1.1700322000001506,['y'],0.6973414999997658,2.0,10,10,10,10,1.0,1.0,,534,18,Woman,Right,,,,,,,,,,,,,,,,,534,18,Woman,Right,
4,2,0.4,180,0,0,3.5881396999998287,['y'],1.306773300000259,1.682,,,,,,,,534,18,Woman,Right,,,,,,,,,,,,,,,,,534,18,Woman,Right,
4,2,0.4,180,0,0,1.7731990000002043,['y'],0.7312788999997792,1.778,,,,,,,,534,18,Woman,Right,,,,,,,,,,,,,,,,,534,18,Woman,Right,
4,2,0.15,0,180,0,2.7064666999999645,['n'],2.556318200000078,1.206,,,,,,,,534,18,Woman,Right,,,,,,,,,,,,,,,,,534,18,Woman,Right,
4,2,0.15,180,0,0,3.32506420000027,['y'],1.0940347000000656,1.51,,,,,,,,534,18,Woman,Right,,,,,,,,,,,,,,,,,534,18,Woman,Right,
4,2,0.4,0,180,180,1.776257799999712,['y'],1.311678000000029,1.804,,,,,,,,534,18,Woman,Right,,,,,,,,,,,,,,,,,534,18,Woman,Right,
4,2,0.4,0,180,180,1.5628256999998484,['y'],1.5717654000000039,1.832,,,,,,,,534,18,Woman,Right,,,,,,,,,,,,,,,,,534,18,Woman,Right,
4,2,0.15,0,180,0,3.4621508000000176,['n'],3.290306800000053,1.218,,,,,,,,534,18,Woman,Right,,,,,,,,,,,,,,,,,534,18,Woman,Right,
4,2,0.15,0,180,180,4.0997363000001315,['n'],1.1826390999999603,1.354,,,,,,,,534,18,Woman,Right,,,,,,,,,,,,,,,,,534,18,Woman,Right,
4,2,0.15,180,0,0,1.2555726000000504,['y'],0.9956504000001587,1.6019999999999999,,,,,,,,534,18,Woman,Right,,,,,,,,,,,,,,,,,534,18,Woman,Right,
4,2,0.15,180,0,180,1.2603794000001471,['y'],1.1450102999997398,1.3820000000000001,7,4,10,4,0.7,1.0,,534,18,Woman,Right,,,,,,,,,,,,,,,,,534,18,Woman,Right,
5,3,0.4,0,180,180,2.282094099999995,['y'],1.6535688999997546,1.73,,,,,,,,534,18,Woman,Right,,,,,,,,,,,,,,,,,534,18,Woman,Right,
5,3,0.4,180,0,0,1.2548618999999235,['y'],0.603304499999922,1.734,,,,,,,,534,18,Woman,Right,,,,,,,,,,,,,,,,,534,18,Woman,Right,
5,3,0.4,180,-,0,1.325634799999989,['y'],1.119023499999912,1.302,,,,,,,,534,18,Woman,Right,,,,,,,,,,,,,,,,,534,18,Woman,Right,
5,3,0.4,180,0,0,1.4597052000003714,['y'],0.5851496999998744,1.65,,,,,,,,534,18,Woman,Right,,,,,,,,,,,,,,,,,534,18,Woman,Right,
5,3,0.15,0,180,180,1.433979399999771,['y'],0.8311115999999856,1.584,,,,,,,,534,18,Woman,Right,,,,,,,,,,,,,,,,,534,18,Woman,Right,
5,3,1.0,180,-,180,2.133448900000076,['n'],1.454774400000133,1.6059999999999999,,,,,,,,534,18,Woman,Right,,,,,,,,,,,,,,,,,534,18,Woman,Right,
5,3,1.0,180,0,0,1.3257360000002336,['y'],1.1283840000000964,1.6520000000000001,,,,,,,,534,18,Woman,Right,,,,,,,,,,,,,,,,,534,18,Woman,Right,
5,3,0.4,180,0,0,1.9070463999996718,['y'],0.8387147999997069,1.626,,,,,,,,534,18,Woman,Right,,,,,,,,,,,,,,,,,534,18,Woman,Right,
5,3,0.15,0,-,180,2.5955461000003197,['n'],1.2434414999997898,1.428,,,,,,,,534,18,Woman,Right,,,,,,,,,,,,,,,,,534,18,Woman,Right,
5,3,0.4,0,180,180,1.4358777000002192,['y'],1.3694939000001796,1.6099999999999999,8,7,10,8,0.8,0.875,,534,18,Woman,Right,,,,,,,,,,,,,,,,,534,18,Woman,Right,
,,,,,,,,,,,,,,,,4.699999863078119e-06,534,18,Woman,Right,,,,,,,,,,,,,,,,,534,18,Woman,Right,
,,,,,,,,,,,,,,,,,534,18,Woman,Right,0,69,0.15,2,0,180,180,2.366497900000013,['y'],4.454769800000122,1.596,382.11725200000024,,,,,534,18,Woman,Right,
,,,,,,,,,,,,,,,,,534,18,Woman,Right,0,31,0.4,2,180,0,0,1.3831153999999515,['y'],1.307967700000063,1.604,389.71665670000016,,,,,534,18,Woman,Right,
,,,,,,,,,,,,,,,,,534,18,Woman,Right,0,56,0.15,1,0,-,0,2.880741299999954,['y'],3.79599109999981,1.506,400.2667831000001,,,,,534,18,Woman,Right,
,,,,,,,,,,,,,,,,,534,18,Woman,Right,0,33,0.4,2,0,180,180,2.426590199999737,['n'],2.1320381000000452,1.514,409.04981669999984,,,,,534,18,Woman,Right,
,,,,,,,,,,,,,,,,,534,18,Woman,Right,0,7,1,2,180,0,0,1.3980301999999938,['y'],0.932733300000109,1.712,415.4012931,,,,,534,18,Woman,Right,
,,,,,,,,,,,,,,,,,534,18,Woman,Right,0,40,0.4,1,0,-,0,2.0275964000002205,['n'],1.6599553999999443,1.6560000000000001,422.9168732999999,,,,,534,18,Woman,Right,
,,,,,,,,,,,,,,,,,534,18,Woman,Right,0,30,0.4,1,180,-,180,1.839075800000046,['n'],1.7167465000002267,1.6179999999999999,430.2001456999999,,,,,534,18,Woman,Right,
,,,,,,,,,,,,,,,,,534,18,Woman,Right,0,38,0.4,1,180,-,180,2.4330454000000827,['n'],0.8060396000000765,1.566,437.2164401000002,,,,,534,18,Woman,Right,
,,,,,,,,,,,,,,,,,534,18,Woman,Right,0,3,1,2,180,0,0,1.1393818999999894,['y'],0.7325204000003396,1.778,442.43242250000026,,,,,534,18,Woman,Right,
,,,,,,,,,,,,,,,,,534,18,Woman,Right,0,49,0.15,2,0,180,0,1.1779280000000654,['y'],0.8839444999998705,1.5899999999999999,447.8334655000001,,,,,534,18,Woman,Right,
,,,,,,,,,,,,,,,,,534,18,Woman,Right,0,42,0.4,1,180,-,180,2.532475799999702,['n'],1.2764679000001706,1.5939999999999999,455.23258740000006,,,,,534,18,Woman,Right,
,,,,,,,,,,,,,,,,,534,18,Woman,Right,0,52,0.15,1,0,-,180,3.997633499999665,['n'],1.2446865000001708,1.564,464.14874440000017,,,,,534,18,Woman,Right,
,,,,,,,,,,,,,,,,,534,18,Woman,Right,0,35,0.4,2,180,0,0,1.2462644000002001,['y'],1.013014000000112,1.6520000000000001,469.64922060000004,,,,,534,18,Woman,Right,
,,,,,,,,,,,,,,,,,534,18,Woman,Right,0,28,0.4,1,0,-,0,0.8908609999998589,['n'],1.4203033999997388,1.6,475.48295570000005,,,,,534,18,Woman,Right,
,,,,,,,,,,,,,,,,,534,18,Woman,Right,0,25,0.4,2,0,180,180,1.0894415000002482,['y'],0.91666320000013,1.5779999999999998,480.9324339000002,,,,,534,18,Woman,Right,
,,,,,,,,,,,,,,,,,534,18,Woman,Right,0,36,0.4,1,0,-,0,0.6160622000002149,['n'],1.2446282999999312,1.612,486.1326673000001,,,,,534,18,Woman,Right,
,,,,,,,,,,,,,,,,,534,18,Woman,Right,0,50,0.15,1,180,-,180,0.8360118000000512,['n'],0.9242048999999497,1.604,491.2321822000001,,,,,534,18,Woman,Right,
,,,,,,,,,,,,,,,,,534,18,Woman,Right,0,72,0.15,1,0,-,0,0.8225066999998489,['n'],1.3007932000000437,1.5739999999999998,496.7498000000003,,,,,534,18,Woman,Right,
,,,,,,,,,,,,,,,,,534,18,Woman,Right,0,46,0.15,1,180,-,180,0.6713716000003842,['n'],0.9328983999998854,1.6179999999999999,501.64894290000007,,,,,534,18,Woman,Right,
,,,,,,,,,,,,,,,,,534,18,Woman,Right,0,64,0.15,1,0,-,0,0.6376736000001983,['n'],0.9330227000000377,1.584,506.31540180000025,,,,,534,18,Woman,Right,
,,,,,,,,,,,,,,,,,534,18,Woman,Right,0,43,0.4,2,180,0,0,1.4675342000000455,['y'],0.861303599999701,1.698,512.0326686999999,,,,,534,18,Woman,Right,
,,,,,,,,,,,,,,,,,534,18,Woman,Right,0,9,0.4,2,0,180,180,0.8870397000000594,['y'],0.725188899999921,1.662,516.7328614,,,,,534,18,Woman,Right,
,,,,,,,,,,,,,,,,,534,18,Woman,Right,0,37,0.4,2,0,180,180,2.0257338999999774,['y'],0.8050450000000637,1.7,522.7997032000001,,,,,534,18,Woman,Right,
,,,,,,,,,,,,,,,,,534,18,Woman,Right,0,0,1,1,0,-,0,2.4266434999999547,['n'],3.7243602999997165,1.742,532.2150413000002,,,,,534,18,Woman,Right,
,,,,,,,,,,,,,,,,,534,18,Woman,Right,0,75,0.15,2,180,0,180,1.4946703000000525,['y'],1.3009510000001683,1.536,538.3993828999999,,,,,534,18,Woman,Right,
,,,,,,,,,,,,,,,,,534,18,Woman,Right,0,4,1,1,0,-,0,0.661979799999699,['n'],1.0203311000000213,1.832,543.7489696999999,,,,,534,18,Woman,Right,
,,,,,,,,,,,,,,,,,534,18,Woman,Right,0,48,0.15,1,0,-,0,1.7453921999999693,['n'],3.261049400000047,1.502,552.7317980999999,,,,,534,18,Woman,Right,
,,,,,,,,,,,,,,,,,534,18,Woman,Right,0,14,0.4,1,180,-,180,2.0824807999997574,['n'],1.7009072000000742,1.4060000000000001,560.3161375000002,,,,,534,18,Woman,Right,
,,,,,,,,,,,,,,,,,534,18,Woman,Right,0,44,0.15,1,0,-,0,2.0844551000000138,['n'],0.924990600000001,1.362,566.5157642000001,,,,,534,18,Woman,Right,
,,,,,,,,,,,,,,,,,534,18,Woman,Right,0,10,0.4,1,180,-,180,0.6792747000004056,['n'],0.9329539999998815,1.516,571.4651089000001,,,,,534,18,Woman,Right,
,,,,,,,,,,,,,,,,,534,18,Woman,Right,0,78,0.15,1,180,-,180,0.5851686999999401,['n'],0.7571641999998064,1.518,575.3995532000001,,,,,534,18,Woman,Right,
,,,,,,,,,,,,,,,,,534,18,Woman,Right,0,67,0.15,2,180,0,0,1.7344459000000825,['y'],0.813229599999886,1.556,581.0650879000002,,,,,534,18,Woman,Right,
,,,,,,,,,,,,,,,,,534,18,Woman,Right,0,16,0.4,1,0,-,0,0.8871947999996337,['n'],0.9095361999998204,1.57,586.1159181,,,,,534,18,Woman,Right,
,,,,,,,,,,,,,,,,,534,18,Woman,Right,0,73,0.15,2,0,180,180,0.6793064000003142,['n'],0.7646662000001925,1.56,590.9820172000002,,,,,534,18,Woman,Right,
,,,,,,,,,,,,,,,,,534,18,Woman,Right,0,79,0.15,2,180,0,0,1.313442600000144,['y'],0.637438999999631,1.6680000000000001,596.0654990999999,,,,,534,18,Woman,Right,
,,,,,,,,,,,,,,,,,534,18,Woman,Right,0,77,0.15,2,0,180,0,2.2580486000001656,['y'],1.3967603999999483,1.542,602.8992271,,,,,534,18,Woman,Right,
,,,,,,,,,,,,,,,,,534,18,Woman,Right,0,27,0.4,2,180,0,0,0.9493320999999924,['y'],0.5577486999995926,1.646,609.6656546000002,,,,,534,18,Woman,Right,
,,,,,,,,,,,,,,,,,534,18,Woman,Right,0,41,0.4,2,0,180,180,0.9499390000000858,['y'],1.4876604999999472,1.612,615.3994178,,,,,534,18,Woman,Right,
,,,,,,,,,,,,,,,,,534,18,Woman,Right,0,55,0.15,2,180,0,0,0.7744549999997616,['y'],0.6451231999999436,1.702,619.8653019999999,,,,,534,18,Woman,Right,
,,,,,,,,,,,,,,,,,534,18,Woman,Right,0,45,0.15,2,0,180,0,1.7700928999997814,['y'],0.8056014000003415,1.568,625.3315422000003,,,,,534,18,Woman,Right,
,,,,,,,,,,,,,,,,,534,18,Woman,Right,0,39,0.4,2,180,0,0,0.786830700000337,['y'],0.5095590999999331,1.712,629.7819365000003,,,,,534,18,Woman,Right,
,,,,,,,,,,,,,,,,,534,18,Woman,Right,0,62,0.15,1,180,-,0,2.306437100000039,['y'],0.6772074999998949,1.538,635.6817598999999,,,,,534,18,Woman,Right,
,,,,,,,,,,,,,,,,,534,18,Woman,Right,0,13,0.4,2,0,180,180,0.7727230999998937,['y'],0.6291215000001102,1.696,640.2654691999999,,,,,534,18,Woman,Right,
,,,,,,,,,,,,,,,,,534,18,Woman,Right,0,47,0.15,2,180,0,0,0.9349968999999874,['y'],0.5094936000000416,1.726,644.7985601000003,,,,,534,18,Woman,Right,
,,,,,,,,,,,,,,,,,534,18,Woman,Right,0,21,0.4,2,0,180,180,1.352527999999893,['y'],0.3734423999999308,1.6600000000000001,649.6488099999999,,,,,534,18,Woman,Right,
,,,,,,,,,,,,,,,,,534,18,Woman,Right,0,70,0.15,1,180,-,180,3.640325599999869,['n'],1.3817653000000973,1.438,658.4157794,,,,,534,18,Woman,Right,
,,,,,,,,,,,,,,,,,534,18,Woman,Right,0,6,1,1,180,-,180,1.3573618000000351,['n'],0.5656308000002355,1.788,663.5821904000002,,,,,534,18,Woman,Right,
,,,,,,,,,,,,,,,,,534,18,Woman,Right,0,26,0.4,1,180,-,180,3.9342342999998436,['n'],0.9178475999997318,1.518,671.3148994999999,,,,,534,18,Woman,Right,
,,,,,,,,,,,,,,,,,534,18,Woman,Right,0,1,1,2,0,180,180,1.6342545000002247,['y'],0.7500325999999404,1.736,676.4484321000002,,,,,534,18,Woman,Right,
,,,,,,,,,,,,,,,,,534,18,Woman,Right,0,57,0.15,2,0,180,180,1.230414600000131,['y'],0.7817218999998659,1.63,681.3990348,,,,,534,18,Woman,Right,
,,,,,,,,,,,,,,,,,534,18,Woman,Right,0,71,0.15,2,180,0,180,3.3008699000001798,['y'],1.58197169999994,1.442,690.2653142000001,,,,,534,18,Woman,Right,
,,,,,,,,,,,,,,,,,534,18,Woman,Right,0,8,0.4,1,0,-,0,1.5688820999998825,['n'],0.8775485999999546,1.4060000000000001,696.1161653000001,,,,,534,18,Woman,Right,
,,,,,,,,,,,,,,,,,534,18,Woman,Right,0,2,1,1,180,-,180,2.108754599999884,['n'],0.7495577999998204,1.778,702.0983438999999,,,,,534,18,Woman,Right,
,,,,,,,,,,,,,,,,,534,18,Woman,Right,0,68,0.15,1,0,-,0,1.984693100000186,['n'],0.7577209000000948,1.3980000000000001,708.3155694,,,,,534,18,Woman,Right,
,,,,,,,,,,,,,,,,,534,18,Woman,Right,0,18,0.4,1,180,-,180,1.3274989999999889,['n'],0.8374134999999114,1.3980000000000001,713.3815459,,,,,534,18,Woman,Right,
,,,,,,,,,,,,,,,,,534,18,Woman,Right,0,53,0.15,2,0,180,180,3.9815189999999347,['y'],1.621863200000007,1.6219999999999999,721.9650988999999,,,,,534,18,Woman,Right,
,,,,,,,,,,,,,,,,,534,18,Woman,Right,0,22,0.4,1,180,-,180,3.0239857000001393,['n'],0.5899224999998296,1.546,728.8315924000001,,,,,534,18,Woman,Right,
,,,,,,,,,,,,,,,,,534,18,Woman,Right,0,19,0.4,2,180,0,0,0.8283216999998331,['y'],0.6862123999999312,1.73,733.4820240000001,,,,,534,18,Woman,Right,
,,,,,,,,,,,,,,,,,534,18,Woman,Right,0,54,0.15,1,180,-,180,1.3494528000001083,['n'],0.823838099999648,1.422,739.0486980000003,,,,,534,18,Woman,Right,
,,,,,,,,,,,,,,,,,534,18,Woman,Right,0,76,0.15,1,0,-,0,1.131419199999982,['y'],0.7899280999999974,1.634,743.9311617999999,,,,,534,18,Woman,Right,
,,,,,,,,,,,,,,,,,534,18,Woman,Right,0,59,0.15,2,180,0,0,0.9687541000002966,['y'],0.6139563000001544,1.63,748.5650943000003,,,,,534,18,Woman,Right,
,,,,,,,,,,,,,,,,,534,18,Woman,Right,0,60,0.15,1,0,-,180,1.050883100000192,['y'],1.517890399999942,1.562,753.8815256,,,,,534,18,Woman,Right,
,,,,,,,,,,,,,,,,,534,18,Woman,Right,0,65,0.15,2,0,180,180,0.9835554000001139,['y'],0.7898058000000674,1.5939999999999999,758.6146053999998,,,,,534,18,Woman,Right,
,,,,,,,,,,,,,,,,,534,18,Woman,Right,0,58,0.15,1,180,-,0,1.4662494999997762,['y'],2.3504493000000366,1.55,765.3811498000002,,,,,534,18,Woman,Right,
,,,,,,,,,,,,,,,,,534,18,Woman,Right,0,24,0.4,1,0,-,0,1.4910392000001593,['n'],0.8785640000000967,1.5739999999999998,770.5646116999999,,,,,534,18,Woman,Right,
,,,,,,,,,,,,,,,,,534,18,Woman,Right,0,15,0.4,2,180,0,0,0.6751346999999441,['y'],0.8697578999999678,1.794,775.0308267000003,,,,,534,18,Woman,Right,
,,,,,,,,,,,,,,,,,534,18,Woman,Right,0,63,0.15,2,180,0,0,1.6473925000000236,['y'],0.9902118999998493,1.5979999999999999,780.4816773,,,,,534,18,Woman,Right,
,,,,,,,,,,,,,,,,,534,18,Woman,Right,0,29,0.4,2,0,180,180,0.5284449000000677,['y'],0.5346972000002097,1.836,784.5157476000002,,,,,534,18,Woman,Right,
,,,,,,,,,,,,,,,,,534,18,Woman,Right,0,34,0.4,1,180,-,0,1.0048793999999361,['y'],0.8060616000002483,1.658,789.0813784,,,,,534,18,Woman,Right,
,,,,,,,,,,,,,,,,,534,18,Woman,Right,0,5,1,2,0,180,180,1.316053600000032,['y'],0.39434529999971346,2.0,793.4983632999999,,,,,534,18,Woman,Right,
,,,,,,,,,,,,,,,,,534,18,Woman,Right,0,66,0.15,1,180,-,180,1.2376675000000432,['n'],0.8941795999999158,1.374,798.8305413999999,,,,,534,18,Woman,Right,
,,,,,,,,,,,,,,,,,534,18,Woman,Right,0,11,0.4,2,180,0,0,0.7078476000001501,['y'],0.7742747000002055,2.0,803.4315199,,,,,534,18,Woman,Right,
,,,,,,,,,,,,,,,,,534,18,Woman,Right,0,51,0.15,2,180,0,0,0.6564951000000292,['y'],1.3738330999999562,1.704,808.5316687000002,,,,,534,18,Woman,Right,
,,,,,,,,,,,,,,,,,534,18,Woman,Right,0,20,0.4,1,0,-,180,0.7589192000000367,['y'],0.6142187999998896,1.6059999999999999,812.8308773000001,,,,,534,18,Woman,Right,
,,,,,,,,,,,,,,,,,534,18,Woman,Right,0,17,0.4,2,0,180,180,0.7928425000000061,['y'],0.6141884999997274,1.822,818.0479274000002,,,,,534,18,Woman,Right,
,,,,,,,,,,,,,,,,,534,18,Woman,Right,0,74,0.15,1,180,-,0,0.8458639000000403,['y'],0.6942505000001802,1.5859999999999999,823.4144939,,,,,534,18,Woman,Right,
,,,,,,,,,,,,,,,,,534,18,Woman,Right,0,32,0.4,1,0,-,180,0.6006984000000557,['y'],0.446066399999836,1.63,827.8148760000001,,,,,534,18,Woman,Right,
,,,,,,,,,,,,,,,,,534,18,Woman,Right,0,12,0.4,1,0,-,180,0.4659427000001415,['y'],0.7261598000000049,1.6099999999999999,831.9320206,,,,,534,18,Woman,Right,
,,,,,,,,,,,,,,,,,534,18,Woman,Right,0,23,0.4,2,180,0,0,0.44952150000017355,['y'],0.4300128999998378,1.75,835.8651301000002,,,,,534,18,Woman,Right,
,,,,,,,,,,,,,,,,,534,18,Woman,Right,0,61,0.15,2,0,180,180,0.3078240999998343,['y'],2.0384702999999718,1.676,841.1316288999999,,,,,534,18,Woman,Right,
,,,,,,,,,,,,,,,,,534,18,Woman,Right,1,71,0.15,2,180,0,0,0.7615156000001662,['y'],1.2312262000000374,1.684,869.9479368,82.5,75.0,95.0,,534,18,Woman,Right,
,,,,,,,,,,,,,,,,,534,18,Woman,Right,1,59,0.15,2,180,0,180,2.3024852000003193,['n'],0.7111214999999902,1.362,876.8135380000001,,,,,534,18,Woman,Right,
,,,,,,,,,,,,,,,,,534,18,Woman,Right,1,21,0.4,2,0,180,180,0.5331885000000511,['y'],0.7344570000000203,1.924,880.9137272999999,,,,,534,18,Woman,Right,
,,,,,,,,,,,,,,,,,534,18,Woman,Right,1,50,0.15,1,180,-,180,1.127148799999759,['n'],0.8387213000000884,1.35,886.1978764000003,,,,,534,18,Woman,Right,
,,,,,,,,,,,,,,,,,534,18,Woman,Right,1,2,1,1,180,-,180,2.4381868000000395,['n'],1.7510126000001947,1.916,893.5303580000002,,,,,534,18,Woman,Right,
,,,,,,,,,,,,,,,,,534,18,Woman,Right,1,3,1,2,180,0,0,0.8198422000000392,['y'],1.2866446000002725,1.838,898.8806670000001,,,,,534,18,Woman,Right,
,,,,,,,,,,,,,,,,,534,18,Woman,Right,1,7,1,2,180,0,0,0.5171262999997452,['y'],1.3187373000000662,2.0,903.6636178000001,,,,,534,18,Woman,Right,
,,,,,,,,,,,,,,,,,534,18,Woman,Right,1,11,0.4,2,180,0,0,0.8324671000000308,['y'],1.1273584000000483,1.692,908.4476113000003,,,,,534,18,Woman,Right,
,,,,,,,,,,,,,,,,,534,18,Woman,Right,1,25,0.4,2,0,180,180,0.5487591000000975,['y'],0.5352996999999959,1.77,912.5468982,,,,,534,18,Woman,Right,
,,,,,,,,,,,,,,,,,534,18,Woman,Right,1,75,0.15,2,180,0,0,1.5160255000000689,['y'],0.7140204000002086,1.748,917.8976321000002,,,,,534,18,Woman,Right,
,,,,,,,,,,,,,,,,,534,18,Woman,Right,1,28,0.4,1,0,-,180,0.6507254999996803,['y'],0.5913418000000092,1.758,922.0971483000001,,,,,534,18,Woman,Right,
,,,,,,,,,,,,,,,,,534,18,Woman,Right,1,64,0.15,1,0,-,180,2.044666100000086,['y'],0.6155381999997189,1.346,928.3136956000001,,,,,534,18,Woman,Right,
,,,,,,,,,,,,,,,,,534,18,Woman,Right,1,38,0.4,1,180,-,180,1.7415408000001662,['n'],0.5265709000000243,1.5979999999999999,933.6639495000002,,,,,534,18,Woman,Right,
,,,,,,,,,,,,,,,,,534,18,Woman,Right,1,57,0.15,2,0,180,180,1.1078858999999284,['y'],0.4630778000000646,1.5939999999999999,937.9640240000001,,,,,534,18,Woman,Right,
,,,,,,,,,,,,,,,,,534,18,Woman,Right,1,32,0.4,1,0,-,180,0.6876282999996874,['y'],0.6312402000003203,1.57,942.1812221000002,,,,,534,18,Woman,Right,
,,,,,,,,,,,,,,,,,534,18,Woman,Right,1,15,0.4,2,180,0,0,0.4135106000003361,['y'],0.7191889999999148,2.0,946.1472222,,,,,534,18,Woman,Right,
,,,,,,,,,,,,,,,,,534,18,Woman,Right,1,16,0.4,1,0,-,180,0.5435256000000663,['y'],0.5192965000001095,1.5859999999999999,950.1640089,,,,,534,18,Woman,Right,
,,,,,,,,,,,,,,,,,534,18,Woman,Right,1,46,0.15,1,180,-,0,0.6124865000001591,['y'],0.48726589999978387,1.8639999999999999,954.4135709,,,,,534,18,Woman,Right,
,,,,,,,,,,,,,,,,,534,18,Woman,Right,1,18,0.4,1,180,-,0,0.480753199999981,['y'],0.8230414999998175,1.73,958.5302055,,,,,534,18,Woman,Right,
,,,,,,,,,,,,,,,,,534,18,Woman,Right,1,14,0.4,1,180,-,0,0.511721899999884,['y'],0.8632244000000355,1.684,963.0807883999998,,,,,534,18,Woman,Right,
,,,,,,,,,,,,,,,,,534,18,Woman,Right,1,62,0.15,1,180,-,0,0.5637744999999086,['y'],0.4473571000003176,1.752,967.0473050000003,,,,,534,18,Woman,Right,
,,,,,,,,,,,,,,,,,534,18,Woman,Right,1,29,0.4,2,0,180,180,0.3938444000000345,['y'],1.135587800000394,2.0,971.4487029,,,,,534,18,Woman,Right,
,,,,,,,,,,,,,,,,,534,18,Woman,Right,1,34,0.4,1,180,-,0,0.5113992999999937,['y'],0.9434399000001576,1.554,975.9639720000002,,,,,534,18,Woman,Right,
,,,,,,,,,,,,,,,,,534,18,Woman,Right,1,10,0.4,1,180,-,0,0.6555616999999074,['y'],0.5111484000003657,1.546,979.9137761,,,,,534,18,Woman,Right,
,,,,,,,,,,,,,,,,,534,18,Woman,Right,1,49,0.15,2,0,180,0,2.968879999999899,['n'],1.2073435999996036,1.568,986.8475276000001,,,,,534,18,Woman,Right,
,,,,,,,,,,,,,,,,,534,18,Woman,Right,1,6,1,1,180,-,180,0.7294103999997787,['n'],1.0955387000003611,1.884,992.0474554999998,,,,,534,18,Woman,Right,
,,,,,,,,,,,,,,,,,534,18,Woman,Right,1,33,0.4,2,0,180,180,0.7538353999998435,['y'],0.7995986999999332,1.758,996.8303418000003,,,,,534,18,Woman,Right,
,,,,,,,,,,,,,,,,,534,18,Woman,Right,1,47,0.15,2,180,0,180,1.7351908000000549,['y'],2.9758492000000842,1.544,1004.7975896999999,,,,,534,18,Woman,Right,
,,,,,,,,,,,,,,,,,534,18,Woman,Right,1,48,0.15,1,0,-,180,0.6597281000003932,['y'],0.7515652000001865,1.5939999999999999,1008.8803903999999,,,,,534,18,Woman,Right,
,,,,,,,,,,,,,,,,,534,18,Woman,Right,1,69,0.15,2,0,180,180,0.6388336999998501,['y'],0.6234558000001016,1.6099999999999999,1012.7313024000002,,,,,534,18,Woman,Right,
,,,,,,,,,,,,,,,,,534,18,Woman,Right,1,52,0.15,1,0,-,180,0.7344461000002411,['y'],1.10366010000007,1.6059999999999999,1017.2970053000001,,,,,534,18,Woman,Right,
,,,,,,,,,,,,,,,,,534,18,Woman,Right,1,30,0.4,1,180,-,180,1.0282595999997284,['n'],0.9115162999996755,1.5779999999999998,1022.4479975000002,,,,,534,18,Woman,Right,
,,,,,,,,,,,,,,,,,534,18,Woman,Right,1,76,0.15,1,0,-,180,0.9596080999999685,['y'],1.2794043999997484,1.456,1027.8309120000001,,,,,534,18,Woman,Right,
,,,,,,,,,,,,,,,,,534,18,Woman,Right,1,12,0.4,1,0,-,180,1.1459411999999247,['y'],0.8398293999998714,1.432,1033.0296475000002,,,,,534,18,Woman,Right,
,,,,,,,,,,,,,,,,,534,18,Woman,Right,1,55,0.15,2,180,0,0,0.9962215000000469,['y'],0.86357820000012,1.5899999999999999,1037.7296416000001,,,,,534,18,Woman,Right,
,,,,,,,,,,,,,,,,,534,18,Woman,Right,1,4,1,1,0,-,0,0.8764743000001545,['n'],1.2236484999998538,1.74,1042.7634156000001,,,,,534,18,Woman,Right,
,,,,,,,,,,,,,,,,,534,18,Woman,Right,1,13,0.4,2,0,180,180,0.6305235999998331,['y'],0.5833278000000064,1.806,1046.9472329000002,,,,,534,18,Woman,Right,
,,,,,,,,,,,,,,,,,534,18,Woman,Right,1,17,0.4,2,0,180,180,0.680455400000028,['y'],0.4479961000001822,1.764,1051.1806742,,,,,534,18,Woman,Right,
,,,,,,,,,,,,,,,,,534,18,Woman,Right,1,31,0.4,2,180,0,0,0.5547746999995979,['y'],0.49572429999989254,2.0,1055.1473336000001,,,,,534,18,Woman,Right,
,,,,,,,,,,,,,,,,,534,18,Woman,Right,1,36,0.4,1,0,-,180,0.4729362000002766,['y'],0.807757600000059,1.6440000000000001,1059.163813,,,,,534,18,Woman,Right,
,,,,,,,,,,,,,,,,,534,18,Woman,Right,1,61,0.15,2,0,180,180,0.7146581000001788,['y'],0.7524485999997523,1.72,1063.5625596000002,,,,,534,18,Woman,Right,
,,,,,,,,,,,,,,,,,534,18,Woman,Right,1,44,0.15,1,0,-,180,0.38411249999990105,['y'],0.49555580000014743,1.5739999999999998,1067.3974082000002,,,,,534,18,Woman,Right,
,,,,,,,,,,,,,,,,,534,18,Woman,Right,1,56,0.15,1,0,-,180,0.6515832000000046,['y'],0.6555515999998534,1.584,1071.3805105,,,,,534,18,Woman,Right,
,,,,,,,,,,,,,,,,,534,18,Woman,Right,1,79,0.15,2,180,0,0,1.4421735999999328,['y'],0.6638353000003008,1.564,1076.2794141000002,,,,,534,18,Woman,Right,
,,,,,,,,,,,,,,,,,534,18,Woman,Right,1,45,0.15,2,0,180,180,0.4987599000000955,['y'],0.8238734999999906,1.562,1080.9465528000003,,,,,534,18,Woman,Right,
,,,,,,,,,,,,,,,,,534,18,Woman,Right,1,78,0.15,1,180,-,0,1.3599036000000524,['y'],0.45576000000028216,1.556,1085.3803971,,,,,534,18,Woman,Right,
,,,,,,,,,,,,,,,,,534,18,Woman,Right,1,19,0.4,2,180,0,0,0.6897392999999283,['y'],0.44037359999992987,1.8639999999999999,1089.3131189000003,,,,,534,18,Woman,Right,
,,,,,,,,,,,,,,,,,534,18,Woman,Right,1,65,0.15,2,0,180,180,0.4818506999999954,['y'],0.9598229000002902,1.788,1093.6969339,,,,,534,18,Woman,Right,
,,,,,,,,,,,,,,,,,534,18,Woman,Right,1,53,0.15,2,0,180,180,0.4327384000002894,['y'],0.4837630000001809,1.696,1097.4302311,,,,,534,18,Woman,Right,
,,,,,,,,,,,,,,,,,534,18,Woman,Right,1,39,0.4,2,180,0,0,0.39513050000005023,['y'],0.4402901999997084,1.85,1101.3630979000002,,,,,534,18,Woman,Right,
,,,,,,,,,,,,,,,,,534,18,Woman,Right,1,72,0.15,1,0,-,180,0.41018549999989773,['y'],0.6479091999999582,1.776,1105.4463613,,,,,534,18,Woman,Right,
,,,,,,,,,,,,,,,,,534,18,Woman,Right,1,73,0.15,2,0,180,180,1.564693299999817,['y'],0.40840410000009797,1.754,1110.3294919000002,,,,,534,18,Woman,Right,
,,,,,,,,,,,,,,,,,534,18,Woman,Right,1,60,0.15,1,0,-,180,0.46216350000031525,['y'],0.32800300000008065,1.716,1113.913093,,,,,534,18,Woman,Right,
,,,,,,,,,,,,,,,,,534,18,Woman,Right,1,0,1,1,0,-,0,1.0808090000000448,['n'],0.8715868000003866,2.0,1118.99646,,,,,534,18,Woman,Right,
,,,,,,,,,,,,,,,,,534,18,Woman,Right,1,74,0.15,1,180,-,0,0.7001728999998704,['y'],0.5761307000002489,1.544,1123.3799778999999,,,,,534,18,Woman,Right,
,,,,,,,,,,,,,,,,,534,18,Woman,Right,1,37,0.4,2,0,180,180,0.38668020000022807,['y'],0.5438582000001588,1.8980000000000001,1127.0299399000003,,,,,534,18,Woman,Right,
,,,,,,,,,,,,,,,,,534,18,Woman,Right,1,51,0.15,2,180,0,0,0.9507470999997167,['y'],0.4798375999998825,1.604,1131.4121704000002,,,,,534,18,Woman,Right,
,,,,,,,,,,,,,,,,,534,18,Woman,Right,1,66,0.15,1,180,-,0,0.8015259999997397,['y'],0.8001401999999871,1.572,1135.8300121,,,,,534,18,Woman,Right,
,,,,,,,,,,,,,,,,,534,18,Woman,Right,1,41,0.4,2,0,180,180,0.35282639999968524,['y'],0.42449020000003657,1.828,1139.4791601,,,,,534,18,Woman,Right,
,,,,,,,,,,,,,,,,,534,18,Woman,Right,1,24,0.4,1,0,-,180,0.5868068999998286,['y'],1.1996745999999803,1.6560000000000001,1144.2631201000002,,,,,534,18,Woman,Right,
,,,,,,,,,,,,,,,,,534,18,Woman,Right,1,35,0.4,2,180,0,0,0.46322860000009314,['y'],0.3441248999997697,2.0,1147.7794066,,,,,534,18,Woman,Right,
,,,,,,,,,,,,,,,,,534,18,Woman,Right,1,58,0.15,1,180,-,0,0.784876599999734,['y'],0.7517376999999215,1.692,1152.2797864000001,,,,,534,18,Woman,Right,
,,,,,,,,,,,,,,,,,534,18,Woman,Right,1,27,0.4,2,180,0,0,0.3326194999999643,['y'],0.6405365999999049,1.8719999999999999,1156.0795976000002,,,,,534,18,Woman,Right,
,,,,,,,,,,,,,,,,,534,18,Woman,Right,1,8,0.4,1,0,-,180,0.5334919000001719,['y'],0.4799032000000807,1.71,1159.9967981000002,,,,,534,18,Woman,Right,
,,,,,,,,,,,,,,,,,534,18,Woman,Right,1,70,0.15,1,180,-,180,0.6401640999997653,['y'],0.5686390000000756,1.5819999999999999,1163.9795228,,,,,534,18,Woman,Right,
,,,,,,,,,,,,,,,,,534,18,Woman,Right,1,1,1,2,0,180,180,0.9180395999997017,['y'],0.36816589999989446,2.0,1167.8957069,,,,,534,18,Woman,Right,
,,,,,,,,,,,,,,,,,534,18,Woman,Right,1,77,0.15,2,0,180,180,0.5740206000000398,['y'],0.5119495999997525,1.646,1171.8456829,,,,,534,18,Woman,Right,
,,,,,,,,,,,,,,,,,534,18,Woman,Right,1,68,0.15,1,0,-,180,1.1043759999997746,['y'],0.36046089999990727,1.592,1175.9299644,,,,,534,18,Woman,Right,
,,,,,,,,,,,,,,,,,534,18,Woman,Right,1,22,0.4,1,180,-,180,0.9039689999999609,['n'],1.0562557000002926,1.6320000000000001,1180.7124285000002,,,,,534,18,Woman,Right,
,,,,,,,,,,,,,,,,,534,18,Woman,Right,1,26,0.4,1,180,-,180,1.6043084999996609,['n'],0.8328363999999056,1.564,1186.1956329000002,,,,,534,18,Woman,Right,
,,,,,,,,,,,,,,,,,534,18,Woman,Right,1,23,0.4,2,180,0,0,0.8742962000001171,['y'],0.432211499999994,1.716,1190.3800665,,,,,534,18,Woman,Right,
,,,,,,,,,,,,,,,,,534,18,Woman,Right,1,40,0.4,1,0,-,0,0.7243222000001879,['n'],0.7445194999995692,1.566,1195.0122614,,,,,534,18,Woman,Right,
,,,,,,,,,,,,,,,,,534,18,Woman,Right,1,42,0.4,1,180,-,180,0.6084724000002097,['n'],0.7045307999997021,1.58,1199.5968671000003,,,,,534,18,Woman,Right,
,,,,,,,,,,,,,,,,,534,18,Woman,Right,1,63,0.15,2,180,0,180,0.6061787000003278,['y'],2.840155699999741,1.56,1206.014375,,,,,534,18,Woman,Right,
,,,,,,,,,,,,,,,,,534,18,Woman,Right,1,9,0.4,2,0,180,180,0.5750863999996909,['y'],0.5687719000002289,1.84,1210.1797024999998,,,,,534,18,Woman,Right,
,,,,,,,,,,,,,,,,,534,18,Woman,Right,1,5,1,2,0,180,180,0.4073453000000882,['y'],0.344467099999747,2.0,1213.7619330999999,,,,,534,18,Woman,Right,
,,,,,,,,,,,,,,,,,534,18,Woman,Right,1,20,0.4,1,0,-,0,0.9160496999998031,['n'],0.7122279000000162,1.5979999999999999,1218.3964039999998,,,,,534,18,Woman,Right,
,,,,,,,,,,,,,,,,,534,18,Woman,Right,1,54,0.15,1,180,-,0,0.7764902999997503,['y'],0.760861499999919,1.5779999999999998,1222.8455579,,,,,534,18,Woman,Right,
,,,,,,,,,,,,,,,,,534,18,Woman,Right,1,43,0.4,2,180,0,0,0.452756700000009,['y'],0.3362768999995751,1.846,1226.5298208000002,,,,,534,18,Woman,Right,
,,,,,,,,,,,,,,,,,534,18,Woman,Right,1,67,0.15,2,180,0,0,0.318869100000029,['y'],0.376827399999911,1.588,1229.8956019,,,,,534,18,Woman,Right,
,,,,,,,,,,,,,,,,,534,18,Woman,Right,2,20,0.4,1,0,-,0,2.863201499999832,['n'],4.521060600000055,1.502,1265.7127094999998,61.25,30.0,95.0,,534,18,Woman,Right,
,,,,,,,,,,,,,,,,,534,18,Woman,Right,2,73,0.15,2,0,180,180,2.0387634999997317,['n'],0.4728549999999814,1.506,1271.1962858,,,,,534,18,Woman,Right,
,,,,,,,,,,,,,,,,,534,18,Woman,Right,2,24,0.4,1,0,-,0,1.5661406000003808,['n'],0.47307850000015605,1.498,1277.3956574000001,,,,,534,18,Woman,Right,
,,,,,,,,,,,,,,,,,534,18,Woman,Right,2,72,0.15,1,0,-,0,1.9182565000000977,['n'],0.849419399999988,1.516,1283.3288887,,,,,534,18,Woman,Right,
,,,,,,,,,,,,,,,,,534,18,Woman,Right,2,79,0.15,2,180,0,0,2.5305922000002283,['y'],2.096483999999691,1.384,1290.7615659,,,,,534,18,Woman,Right,
,,,,,,,,,,,,,,,,,534,18,Woman,Right,2,0,1,1,0,-,0,1.0821364000003086,['n'],1.9767890000002808,2.0,1296.9963169,,,,,534,18,Woman,Right,
,,,,,,,,,,,,,,,,,534,18,Woman,Right,2,11,0.4,2,180,0,0,0.7490882000001875,['y'],1.0014353999999912,1.958,1302.4456033,,,,,534,18,Woman,Right,
,,,,,,,,,,,,,,,,,534,18,Woman,Right,2,13,0.4,2,0,180,180,0.6824914000003446,['y'],0.9926156000001356,1.958,1308.8955988,,,,,534,18,Woman,Right,
,,,,,,,,,,,,,,,,,534,18,Woman,Right,2,34,0.4,1,180,-,180,2.007186599999841,['n'],0.23300209999979415,1.436,1314.5955454000002,,,,,534,18,Woman,Right,
,,,,,,,,,,,,,,,,,534,18,Woman,Right,2,28,0.4,1,0,-,180,1.6525166999999783,['y'],1.5533900999998878,1.49,1320.8459797000003,,,,,534,18,Woman,Right,
,,,,,,,,,,,,,,,,,534,18,Woman,Right,2,30,0.4,1,180,-,180,0.7499966999998833,['n'],0.8096782000002349,1.432,1326.0792618000003,,,,,534,18,Woman,Right,
,,,,,,,,,,,,,,,,,534,18,Woman,Right,2,60,0.15,1,0,-,180,0.7468710999996802,['y'],0.7289659999996729,1.85,1330.6122179000001,,,,,534,18,Woman,Right,
,,,,,,,,,,,,,,,,,534,18,Woman,Right,2,46,0.15,1,180,-,180,0.6854192000000694,['n'],1.4093766999999389,1.3399999999999999,1335.8619899000003,,,,,534,18,Woman,Right,
,,,,,,,,,,,,,,,,,534,18,Woman,Right,2,18,0.4,1,180,-,180,0.7115724000000228,['n'],0.4571726000003764,1.5939999999999999,1340.1783549,,,,,534,18,Woman,Right,
,,,,,,,,,,,,,,,,,534,18,Woman,Right,2,44,0.15,1,0,-,0,1.6496127999998862,['n'],1.152945499999987,1.408,1346.2792202000003,,,,,534,18,Woman,Right,
,,,,,,,,,,,,,,,,,534,18,Woman,Right,2,51,0.15,2,180,0,0,0.6517827000002399,['y'],2.0416752999999517,1.6280000000000001,1352.1278958,,,,,534,18,Woman,Right,
,,,,,,,,,,,,,,,,,534,18,Woman,Right,2,7,1,2,180,0,0,0.9310942000001887,['y'],0.6651339000000007,1.984,1357.0468899999998,,,,,534,18,Woman,Right,
,,,,,,,,,,,,,,,,,534,18,Woman,Right,2,75,0.15,2,180,0,0,1.1209410999999818,['y'],0.864922000000206,1.534,1362.1453208,,,,,534,18,Woman,Right,
,,,,,,,,,,,,,,,,,534,18,Woman,Right,2,19,0.4,2,180,0,0,0.5148245999998835,['y'],0.40127269999993587,1.812,1366.0114655,,,,,534,18,Woman,Right,
,,,,,,,,,,,,,,,,,534,18,Woman,Right,2,5,1,2,0,180,180,0.5573469000000841,['y'],0.36909109999987777,1.92,1369.8790996,,,,,534,18,Woman,Right,
,,,,,,,,,,,,,,,,,534,18,Woman,Right,2,45,0.15,2,0,180,180,0.9197948999999426,['y'],0.9613018000000011,1.706,1374.8120393000002,,,,,534,18,Woman,Right,
,,,,,,,,,,,,,,,,,534,18,Woman,Right,2,52,0.15,1,0,-,180,1.947933699999794,['n'],0.9131820999996307,1.3559999999999999,1383.1952413000001,,,,,534,18,Woman,Right,
,,,,,,,,,,,,,,,,,534,18,Woman,Right,2,48,0.15,1,0,-,0,0.8917544000000817,['n'],1.4891842000001816,1.3479999999999999,1388.5614089000003,,,,,534,18,Woman,Right,
,,,,,,,,,,,,,,,,,534,18,Woman,Right,2,33,0.4,2,0,180,180,1.3311788999999408,['y'],0.6094659999998839,1.854,1393.4455358000002,,,,,534,18,Woman,Right,
,,,,,,,,,,,,,,,,,534,18,Woman,Right,2,27,0.4,2,180,0,0,0.5442836000001989,['y'],1.033325800000057,1.758,1398.1614526,,,,,534,18,Woman,Right,
,,,,,,,,,,,,,,,,,534,18,Woman,Right,2,31,0.4,2,180,0,0,0.4616894000000684,['y'],0.3693739000000278,1.804,1401.9118761000002,,,,,534,18,Woman,Right,
,,,,,,,,,,,,,,,,,534,18,Woman,Right,2,66,0.15,1,180,-,0,0.40541450000000623,['y'],0.3612170999999762,1.818,1405.4953624000002,,,,,534,18,Woman,Right,
,,,,,,,,,,,,,,,,,534,18,Woman,Right,2,62,0.15,1,180,-,180,1.8154992999998285,['n'],0.3452345000000605,1.29,1410.6285095,,,,,534,18,Woman,Right,
,,,,,,,,,,,,,,,,,534,18,Woman,Right,2,3,1,2,180,0,0,0.42417429999977685,['y'],1.0498351000001094,1.866,1414.8790621,,,,,534,18,Woman,Right,
,,,,,,,,,,,,,,,,,534,18,Woman,Right,2,23,0.4,2,180,0,0,0.5018394000003354,['y'],0.36168940000015937,1.912,1418.4951158000001,,,,,534,18,Woman,Right,
,,,,,,,,,,,,,,,,,534,18,Woman,Right,2,53,0.15,2,0,180,180,1.8547207999999955,['y'],0.6740033999999469,1.56,1423.7779174,,,,,534,18,Woman,Right,
,,,,,,,,,,,,,,,,,534,18,Woman,Right,2,4,1,1,0,-,0,0.4619182000001274,['n'],0.7454829999996946,1.786,1427.9788288000002,,,,,534,18,Woman,Right,
,,,,,,,,,,,,,,,,,534,18,Woman,Right,2,32,0.4,1,0,-,0,0.595935300000292,['n'],0.7057156999999279,1.694,1432.1285455,,,,,534,18,Woman,Right,
,,,,,,,,,,,,,,,,,534,18,Woman,Right,2,37,0.4,2,0,180,180,0.661919399999988,['y'],0.521561500000189,1.76,1436.1451866,,,,,534,18,Woman,Right,
,,,,,,,,,,,,,,,,,534,18,Woman,Right,2,56,0.15,1,0,-,0,1.068191399999705,['n'],0.8980812999998307,1.35,1441.1788503,,,,,534,18,Woman,Right,
,,,,,,,,,,,,,,,,,534,18,Woman,Right,2,63,0.15,2,180,0,180,1.7608522000000448,['y'],0.7134823999999753,1.536,1446.3954652,,,,,534,18,Woman,Right,
,,,,,,,,,,,,,,,,,534,18,Woman,Right,2,43,0.4,2,180,0,0,0.5422060999999303,['y'],0.49787240000023303,1.806,1450.5782411000002,,,,,534,18,Woman,Right,
,,,,,,,,,,,,,,,,,534,18,Woman,Right,2,55,0.15,2,180,0,0,0.29306250000036016,['y'],0.3300696000001153,1.68,1453.8452582000002,,,,,534,18,Woman,Right,
,,,,,,,,,,,,,,,,,534,18,Woman,Right,2,61,0.15,2,0,180,180,0.500427800000125,['y'],0.37004659999956857,1.788,1457.4277140000002,,,,,534,18,Woman,Right,
,,,,,,,,,,,,,,,,,534,18,Woman,Right,2,12,0.4,1,0,-,0,0.7309163999998418,['n'],0.609436100000039,1.3719999999999999,1461.6454784999999,,,,,534,18,Woman,Right,
,,,,,,,,,,,,,,,,,534,18,Woman,Right,2,54,0.15,1,180,-,180,0.6955964999997377,['n'],0.6740266000001611,1.362,1465.6451646000003,,,,,534,18,Woman,Right,
,,,,,,,,,,,,,,,,,534,18,Woman,Right,2,26,0.4,1,180,-,180,0.7192510999998376,['n'],1.1698939999996583,1.362,1470.1779057,,,,,534,18,Woman,Right,
,,,,,,,,,,,,,,,,,534,18,Woman,Right,2,57,0.15,2,0,180,180,1.2335406000001967,['y'],1.2503631999998106,1.6139999999999999,1475.5616492000001,,,,,534,18,Woman,Right,
,,,,,,,,,,,,,,,,,534,18,Woman,Right,2,17,0.4,2,0,180,180,0.41806580000002214,['y'],0.657845499999894,2.0,1479.3781321,,,,,534,18,Woman,Right,
,,,,,,,,,,,,,,,,,534,18,Woman,Right,2,15,0.4,2,180,0,0,0.42059370000015406,['y'],0.3783040999996956,1.896,1482.8946501000003,,,,,534,18,Woman,Right,
,,,,,,,,,,,,,,,,,534,18,Woman,Right,2,68,0.15,1,0,-,0,1.272524599999997,['n'],0.8980560999998488,1.334,1488.0445813,,,,,534,18,Woman,Right,
,,,,,,,,,,,,,,,,,534,18,Woman,Right,2,77,0.15,2,0,180,180,0.5755764999998974,['y'],0.3777557999997043,1.772,1491.7783427000002,,,,,534,18,Woman,Right,
,,,,,,,,,,,,,,,,,534,18,Woman,Right,2,25,0.4,2,0,180,180,0.4780863999999383,['y'],0.3219888999997238,1.836,1495.2779538000002,,,,,534,18,Woman,Right,
,,,,,,,,,,,,,,,,,534,18,Woman,Right,2,9,0.4,2,0,180,180,0.33784479999985706,['y'],0.3381904000002578,1.824,1498.7942719,,,,,534,18,Woman,Right,
,,,,,,,,,,,,,,,,,534,18,Woman,Right,2,69,0.15,2,0,180,180,1.6533857999997963,['y'],0.28981279999970866,1.538,1503.5117071000002,,,,,534,18,Woman,Right,
,,,,,,,,,,,,,,,,,534,18,Woman,Right,2,6,1,1,180,-,180,1.6576234999997723,['n'],0.35384019999992233,1.744,1508.4785819,,,,,534,18,Woman,Right,
,,,,,,,,,,,,,,,,,534,18,Woman,Right,2,29,0.4,2,0,180,180,0.7827204999998685,['y'],0.7700487000001885,1.88,1512.9442921000002,,,,,534,18,Woman,Right,
,,,,,,,,,,,,,,,,,534,18,Woman,Right,2,64,0.15,1,0,-,0,0.7542386000000079,['n'],0.6905097999997452,1.384,1517.3947641000002,,,,,534,18,Woman,Right,
,,,,,,,,,,,,,,,,,534,18,Woman,Right,2,1,1,2,0,180,180,0.8819413000001077,['y'],0.4582743000000846,1.788,1521.6111878,,,,,534,18,Woman,Right,
,,,,,,,,,,,,,,,,,534,18,Woman,Right,2,58,0.15,1,180,-,0,2.927654900000107,['n'],0.31384710000020277,1.308,1527.7950295000003,,,,,534,18,Woman,Right,
,,,,,,,,,,,,,,,,,534,18,Woman,Right,2,74,0.15,1,180,-,180,0.6180905000001076,['n'],0.8343416000002435,1.342,1531.9446209999999,,,,,534,18,Woman,Right,
,,,,,,,,,,,,,,,,,534,18,Woman,Right,2,38,0.4,1,180,-,180,0.5878018000003067,['n'],0.9707782000000407,1.328,1536.8279565,,,,,534,18,Woman,Right,
,,,,,,,,,,,,,,,,,534,18,Woman,Right,2,39,0.4,2,180,0,0,0.6635738999998466,['y'],1.018073600000207,1.6440000000000001,1541.8948578000002,,,,,534,18,Woman,Right,
,,,,,,,,,,,,,,,,,534,18,Woman,Right,2,16,0.4,1,0,-,0,0.7450730000000476,['n'],0.7462583999999879,1.362,1547.1112285000002,,,,,534,18,Woman,Right,
,,,,,,,,,,,,,,,,,534,18,Woman,Right,2,41,0.4,2,0,180,180,0.5406484999998611,['y'],0.8664455000002818,1.6640000000000001,1551.29458,,,,,534,18,Woman,Right,
,,,,,,,,,,,,,,,,,534,18,Woman,Right,2,42,0.4,1,180,-,180,0.6921881000002941,['n'],0.4423385000000053,1.374,1555.2113761000003,,,,,534,18,Woman,Right,
,,,,,,,,,,,,,,,,,534,18,Woman,Right,2,2,1,1,180,-,180,0.4154537999997956,['n'],0.4983532999999625,1.918,1558.8612921000001,,,,,534,18,Woman,Right,
,,,,,,,,,,,,,,,,,534,18,Woman,Right,2,67,0.15,2,180,0,180,0.5205684000002293,['n'],0.602047500000026,1.3439999999999999,1562.7614262,,,,,534,18,Woman,Right,
,,,,,,,,,,,,,,,,,534,18,Woman,Right,2,40,0.4,1,0,-,0,0.6170630999999958,['n'],0.6509339999997792,1.334,1566.6943125,,,,,534,18,Woman,Right,
,,,,,,,,,,,,,,,,,534,18,Woman,Right,2,35,0.4,2,180,0,0,0.7175105000001167,['y'],0.6105810000003657,1.924,1570.7441308,,,,,534,18,Woman,Right,
,,,,,,,,,,,,,,,,,534,18,Woman,Right,2,70,0.15,1,180,-,180,1.2732181999999739,['n'],0.6509556000000885,1.3860000000000001,1575.6280166,,,,,534,18,Woman,Right,
,,,,,,,,,,,,,,,,,534,18,Woman,Right,2,78,0.15,1,180,-,180,0.49415730000009717,['n'],0.810489299999972,1.432,1579.5602974,,,,,534,18,Woman,Right,
,,,,,,,,,,,,,,,,,534,18,Woman,Right,2,22,0.4,1,180,-,180,0.7462116000001515,['n'],0.7306112999999641,1.264,1583.7603219999999,,,,,534,18,Woman,Right,
,,,,,,,,,,,,,,,,,534,18,Woman,Right,2,36,0.4,1,0,-,0,0.33201759999974456,['n'],0.6267671000000519,1.31,1587.5276351999998,,,,,534,18,Woman,Right,
,,,,,,,,,,,,,,,,,534,18,Woman,Right,2,76,0.15,1,0,-,180,2.2878735999997843,['n'],0.482825000000048,1.296,1593.1281700000002,,,,,534,18,Woman,Right,
,,,,,,,,,,,,,,,,,534,18,Woman,Right,2,21,0.4,2,0,180,180,0.742335599999933,['y'],0.5464406000000963,2.0,1597.2279312000003,,,,,534,18,Woman,Right,
,,,,,,,,,,,,,,,,,534,18,Woman,Right,2,59,0.15,2,180,0,0,0.5794911999996657,['y'],0.322724499999822,2.0,1600.9442694000002,,,,,534,18,Woman,Right,
,,,,,,,,,,,,,,,,,534,18,Woman,Right,2,8,0.4,1,0,-,0,0.821853899999951,['n'],0.3069470000000365,1.294,1604.8108932000002,,,,,534,18,Woman,Right,
,,,,,,,,,,,,,,,,,534,18,Woman,Right,2,47,0.15,2,180,0,0,0.6494579000000158,['y'],0.42673469999999725,2.0,1608.4614897,,,,,534,18,Woman,Right,
,,,,,,,,,,,,,,,,,534,18,Woman,Right,2,49,0.15,2,0,180,180,0.5151714999997239,['y'],0.4423274000000674,2.0,1612.0780022000001,,,,,534,18,Woman,Right,
,,,,,,,,,,,,,,,,,534,18,Woman,Right,2,10,0.4,1,180,-,180,0.847033300000021,['n'],0.32260610000003,1.318,1616.660674,,,,,534,18,Woman,Right,
,,,,,,,,,,,,,,,,,534,18,Woman,Right,2,65,0.15,2,0,180,180,2.3425397000000885,['y'],1.2112554999998792,1.666,1624.2772247,,,,,534,18,Woman,Right,
,,,,,,,,,,,,,,,,,534,18,Woman,Right,2,50,0.15,1,180,-,180,0.4431641999999556,['n'],0.6506396999998287,1.306,1628.3603636999999,,,,,534,18,Woman,Right,
,,,,,,,,,,,,,,,,,534,18,Woman,Right,2,14,0.4,1,180,-,180,0.3631972000002861,['n'],0.4512334999999439,1.3319999999999999,1631.9602992000002,,,,,534,18,Woman,Right,
,,,,,,,,,,,,,,,,,534,18,Woman,Right,2,71,0.15,2,180,0,180,1.0677696999996442,['n'],0.8745779000000766,1.354,1636.5112993999999,,,,,534,18,Woman,Right,
,,,,,,,,,,,,,,,,,534,18,Woman,Right,3,27,0.4,2,180,0,0,1.1476652999999715,['y'],0.9711809999998877,1.69,1664.6111195,88.75,92.5,92.5,,534,18,Woman,Right,
,,,,,,,,,,,,,,,,,534,18,Woman,Right,3,46,0.15,1,180,-,180,1.1385416000002806,['n'],0.36326569999982894,1.286,1669.1611589000001,,,,,534,18,Woman,Right,
,,,,,,,,,,,,,,,,,534,18,Woman,Right,3,76,0.15,1,0,-,180,1.4939688000004026,['n'],0.6430374999999913,1.3439999999999999,1674.1606491999999,,,,,534,18,Woman,Right,
,,,,,,,,,,,,,,,,,534,18,Woman,Right,3,75,0.15,2,180,0,180,3.6906732000002194,['n'],0.4271020999999564,1.308,1681.1604946999998,,,,,534,18,Woman,Right,
,,,,,,,,,,,,,,,,,534,18,Woman,Right,3,53,0.15,2,0,180,180,1.095176000000265,['y'],0.8509639999997489,1.608,1685.9106113,,,,,534,18,Woman,Right,
,,,,,,,,,,,,,,,,,534,18,Woman,Right,3,47,0.15,2,180,0,0,0.3191813000003094,['y'],0.8679996999999275,1.57,1690.2108822000002,,,,,534,18,Woman,Right,
,,,,,,,,,,,,,,,,,534,18,Woman,Right,3,2,1,1,180,-,180,0.3903344999998808,['n'],0.5391991999999846,2.0,1693.7104828,,,,,534,18,Woman,Right,
,,,,,,,,,,,,,,,,,534,18,Woman,Right,3,62,0.15,1,180,-,180,0.8295375000002423,['n'],0.6994092999998429,1.37,1698.4113496000002,,,,,534,18,Woman,Right,
,,,,,,,,,,,,,,,,,534,18,Woman,Right,3,35,0.4,2,180,0,0,0.40185750000000553,['y'],0.6992692999997416,1.674,1702.5432779999999,,,,,534,18,Woman,Right,
,,,,,,,,,,,,,,,,,534,18,Woman,Right,3,55,0.15,2,180,0,180,1.2125694999999723,['y'],0.7309826000000612,1.612,1707.2774718000003,,,,,534,18,Woman,Right,
,,,,,,,,,,,,,,,,,534,18,Woman,Right,3,28,0.4,1,0,-,0,0.5065334999999322,['n'],1.4754724999997961,1.4140000000000001,1712.3937111000002,,,,,534,18,Woman,Right,
,,,,,,,,,,,,,,,,,534,18,Woman,Right,3,52,0.15,1,0,-,0,0.6453110000002198,['n'],0.6037800999997671,1.31,1716.2263071,,,,,534,18,Woman,Right,
,,,,,,,,,,,,,,,,,534,18,Woman,Right,3,41,0.4,2,0,180,180,0.678484799999751,['y'],0.5549691000001076,1.714,1720.8771442,,,,,534,18,Woman,Right,
,,,,,,,,,,,,,,,,,534,18,Woman,Right,3,26,0.4,1,180,-,180,1.1642037999999957,['n'],0.9391817999999148,1.312,1726.2608093000001,,,,,534,18,Woman,Right,
,,,,,,,,,,,,,,,,,534,18,Woman,Right,3,10,0.4,1,180,-,180,0.7280031999998755,['n'],0.8190613000001576,1.324,1730.9431194000001,,,,,534,18,Woman,Right,
,,,,,,,,,,,,,,,,,534,18,Woman,Right,3,11,0.4,2,180,0,0,0.424545500000022,['y'],0.6040834999998879,1.8639999999999999,1734.7937272000001,,,,,534,18,Woman,Right,
,,,,,,,,,,,,,,,,,534,18,Woman,Right,3,16,0.4,1,0,-,0,0.6246633999999176,['n'],0.699453000000176,1.258,1739.1608669,,,,,534,18,Woman,Right,
,,,,,,,,,,,,,,,,,534,18,Woman,Right,3,64,0.15,1,0,-,0,0.6039341000000604,['n'],0.7714154000000235,1.304,1743.5262574,,,,,534,18,Woman,Right,
,,,,,,,,,,,,,,,,,534,18,Woman,Right,3,74,0.15,1,180,-,180,0.51227740000013,['n'],0.8752910999996857,1.388,1747.5934847,,,,,534,18,Woman,Right,
,,,,,,,,,,,,,,,,,534,18,Woman,Right,3,22,0.4,1,180,-,180,0.48716209999975035,['n'],0.41161030000012033,1.384,1751.3435915000002,,,,,534,18,Woman,Right,
,,,,,,,,,,,,,,,,,534,18,Woman,Right,3,33,0.4,2,0,180,180,0.7160408999998253,['y'],0.3235944000002746,1.766,1756.0428648,,,,,534,18,Woman,Right,
,,,,,,,,,,,,,,,,,534,18,Woman,Right,3,49,0.15,2,0,180,0,0.7391574000002947,['n'],0.7636104000002888,1.328,1760.5436458000001,,,,,534,18,Woman,Right,
,,,,,,,,,,,,,,,,,534,18,Woman,Right,3,73,0.15,2,0,180,180,1.1259291000001213,['y'],0.35550679999960266,1.774,1764.8606142,,,,,534,18,Woman,Right,
,,,,,,,,,,,,,,,,,534,18,Woman,Right,3,1,1,2,0,180,180,0.6755488000003425,['y'],0.3711859000000004,1.706,1768.8260228000001,,,,,534,18,Woman,Right,
,,,,,,,,,,,,,,,,,534,18,Woman,Right,3,5,1,2,0,180,180,0.3029160999999476,['y'],0.5559143000000404,2.0,1772.4271388,,,,,534,18,Woman,Right,
,,,,,,,,,,,,,,,,,534,18,Woman,Right,3,63,0.15,2,180,0,0,0.8916665000001558,['y'],0.34791549999999916,1.654,1776.3273707,,,,,534,18,Woman,Right,
,,,,,,,,,,,,,,,,,534,18,Woman,Right,3,18,0.4,1,180,-,180,0.7674538000001121,['n'],0.7794478999999228,1.63,1780.5262821,,,,,534,18,Woman,Right,
,,,,,,,,,,,,,,,,,534,18,Woman,Right,3,72,0.15,1,0,-,0,2.5249384000003374,['n'],1.0595422999999755,1.434,1787.24335,,,,,534,18,Woman,Right,
,,,,,,,,,,,,,,,,,534,18,Woman,Right,3,48,0.15,1,0,-,0,1.920403399999941,['n'],0.5556039000002784,1.354,1792.8273665,,,,,534,18,Woman,Right,
,,,,,,,,,,,,,,,,,534,18,Woman,Right,3,37,0.4,2,0,180,180,0.6726042999998754,['y'],0.31544590000021344,1.944,1796.5599399999999,,,,,534,18,Woman,Right,
,,,,,,,,,,,,,,,,,534,18,Woman,Right,3,69,0.15,2,0,180,180,1.542051000000356,['y'],0.7315094000000499,1.888,1801.3435932999998,,,,,534,18,Woman,Right,
,,,,,,,,,,,,,,,,,534,18,Woman,Right,3,4,1,1,0,-,0,0.5574969999997847,['n'],0.4355825999996341,1.6600000000000001,1805.1429361000003,,,,,534,18,Woman,Right,
,,,,,,,,,,,,,,,,,534,18,Woman,Right,3,42,0.4,1,180,-,180,0.6269520999999258,['n'],0.6040542999999161,1.58,1809.377189,,,,,534,18,Woman,Right,
,,,,,,,,,,,,,,,,,534,18,Woman,Right,3,56,0.15,1,0,-,0,0.48246930000004795,['n'],0.6281770000000506,1.558,1813.3427654,,,,,534,18,Woman,Right,
,,,,,,,,,,,,,,,,,534,18,Woman,Right,3,19,0.4,2,180,0,0,0.8330111999998735,['y'],0.5494496999999683,1.866,1817.7929098000002,,,,,534,18,Woman,Right,
,,,,,,,,,,,,,,,,,534,18,Woman,Right,3,79,0.15,2,180,0,180,1.4936886000000413,['y'],1.1235587000001033,1.596,1823.4931751000001,,,,,534,18,Woman,Right,
,,,,,,,,,,,,,,,,,534,18,Woman,Right,3,24,0.4,1,0,-,0,0.4046568999997362,['n'],0.6361093000000437,1.302,1828.3100809,,,,,534,18,Woman,Right,
,,,,,,,,,,,,,,,,,534,18,Woman,Right,3,23,0.4,2,180,0,0,0.28708430000006047,['y'],0.5954419999998208,1.752,1832.0772703,,,,,534,18,Woman,Right,
,,,,,,,,,,,,,,,,,534,18,Woman,Right,3,21,0.4,2,0,180,180,0.7031004999998913,['y'],0.3722867999999835,1.834,1836.1099967000002,,,,,534,18,Woman,Right,
,,,,,,,,,,,,,,,,,534,18,Woman,Right,3,20,0.4,1,0,-,0,0.613900399999693,['n'],0.667445200000202,1.358,1840.1261001999999,,,,,534,18,Woman,Right,
,,,,,,,,,,,,,,,,,534,18,Woman,Right,3,54,0.15,1,180,-,180,0.6227727999998933,['n'],0.8759641999999985,1.3719999999999999,1844.6259777000002,,,,,534,18,Woman,Right,
,,,,,,,,,,,,,,,,,534,18,Woman,Right,3,34,0.4,1,180,-,180,0.3984112999996796,['n'],0.7795504999999139,1.642,1848.4422385999999,,,,,534,18,Woman,Right,
,,,,,,,,,,,,,,,,,534,18,Woman,Right,3,77,0.15,2,0,180,180,1.3289989999998397,['y'],0.36390380000011646,1.584,1852.8763758000002,,,,,534,18,Woman,Right,
,,,,,,,,,,,,,,,,,534,18,Woman,Right,3,12,0.4,1,0,-,0,0.3516224999998485,['n'],0.6121651999997084,1.3780000000000001,1856.7437029999999,,,,,534,18,Woman,Right,
,,,,,,,,,,,,,,,,,534,18,Woman,Right,3,29,0.4,2,0,180,180,1.0780916999997316,['y'],0.34035210000001825,1.764,1860.8426107000003,,,,,534,18,Woman,Right,
,,,,,,,,,,,,,,,,,534,18,Woman,Right,3,31,0.4,2,180,0,0,1.0715527000002112,['y'],0.5641384000000471,1.812,1865.3270395000002,,,,,534,18,Woman,Right,
,,,,,,,,,,,,,,,,,534,18,Woman,Right,3,78,0.15,1,180,-,180,0.7045358000000306,['n'],0.7318473000000267,1.468,1869.6428386999999,,,,,534,18,Woman,Right,
,,,,,,,,,,,,,,,,,534,18,Woman,Right,3,60,0.15,1,0,-,0,0.8748371000001498,['n'],0.5001540000002933,1.532,1880.3930717,,,,,534,18,Woman,Right,
,,,,,,,,,,,,,,,,,534,18,Woman,Right,3,38,0.4,1,180,-,180,0.8108447000004162,['n'],0.3805468999998993,1.428,1884.5761555000001,,,,,534,18,Woman,Right,
,,,,,,,,,,,,,,,,,534,18,Woman,Right,3,9,0.4,2,0,180,180,0.43069229999991876,['y'],0.8925123999997595,1.69,1888.8098728000002,,,,,534,18,Woman,Right,
,,,,,,,,,,,,,,,,,534,18,Woman,Right,3,13,0.4,2,0,180,180,0.4398634999997739,['y'],0.5317998000000443,1.69,1892.6258341,,,,,534,18,Woman,Right,
,,,,,,,,,,,,,,,,,534,18,Woman,Right,3,70,0.15,1,180,-,180,1.662471899999673,['n'],0.38003649999973277,1.418,1897.6428147,,,,,534,18,Woman,Right,
,,,,,,,,,,,,,,,,,534,18,Woman,Right,3,25,0.4,2,0,180,180,0.29107920000024023,['y'],0.5479037999998582,1.538,1901.1928066000003,,,,,534,18,Woman,Right,
,,,,,,,,,,,,,,,,,534,18,Woman,Right,3,65,0.15,2,0,180,180,2.163065700000061,['y'],0.39705099999991944,1.5739999999999998,1906.4591002,,,,,534,18,Woman,Right,
,,,,,,,,,,,,,,,,,534,18,Woman,Right,3,6,1,1,180,-,180,0.40229550000003655,['n'],0.436407600000166,1.8860000000000001,1910.409598,,,,,534,18,Woman,Right,
,,,,,,,,,,,,,,,,,534,18,Woman,Right,3,7,1,2,180,0,0,0.731706000000031,['y'],0.38824460000023464,1.92,1914.6100173000002,,,,,534,18,Woman,Right,
,,,,,,,,,,,,,,,,,534,18,Woman,Right,3,8,0.4,1,0,-,0,1.2338386000001265,['n'],0.40473629999996774,1.3639999999999999,1919.2927235,,,,,534,18,Woman,Right,
,,,,,,,,,,,,,,,,,534,18,Woman,Right,3,3,1,2,180,0,0,0.7211326999999983,['y'],0.83653140000024,1.8639999999999999,1923.8766035,,,,,534,18,Woman,Right,
,,,,,,,,,,,,,,,,,534,18,Woman,Right,3,67,0.15,2,180,0,180,0.5943354000000909,['n'],0.8922336000000541,1.3940000000000001,1928.2089395,,,,,534,18,Woman,Right,
,,,,,,,,,,,,,,,,,534,18,Woman,Right,3,59,0.15,2,180,0,0,0.3797826999998506,['y'],0.43636670000023514,1.762,1931.8764565,,,,,534,18,Woman,Right,
,,,,,,,,,,,,,,,,,534,18,Woman,Right,3,15,0.4,2,180,0,0,0.4494763000002422,['y'],0.4687850000000253,1.85,1935.5596773,,,,,534,18,Woman,Right,
,,,,,,,,,,,,,,,,,534,18,Woman,Right,3,50,0.15,1,180,-,180,0.4493225999999595,['n'],0.6802480999999716,1.3900000000000001,1939.3265924,,,,,534,18,Woman,Right,
,,,,,,,,,,,,,,,,,534,18,Woman,Right,3,45,0.15,2,0,180,180,0.6746438000000126,['y'],0.5329321000003802,1.718,1943.1598811000001,,,,,534,18,Woman,Right,
,,,,,,,,,,,,,,,,,534,18,Woman,Right,3,40,0.4,1,0,-,0,0.630306400000336,['n'],0.7168758000002526,1.3980000000000001,1947.3422524999999,,,,,534,18,Woman,Right,
,,,,,,,,,,,,,,,,,534,18,Woman,Right,3,17,0.4,2,0,180,180,0.7431440000000293,['y'],0.36442570000008345,1.794,1951.4096256999999,,,,,534,18,Woman,Right,
,,,,,,,,,,,,,,,,,534,18,Woman,Right,3,58,0.15,1,180,-,0,0.4705887999998595,['y'],0.3564148999998906,1.792,1955.0594226,,,,,534,18,Woman,Right,
,,,,,,,,,,,,,,,,,534,18,Woman,Right,3,43,0.4,2,180,0,0,0.3428296000001865,['y'],0.3808490999999776,1.846,1958.6421102000002,,,,,534,18,Woman,Right,
,,,,,,,,,,,,,,,,,534,18,Woman,Right,3,0,1,1,0,-,0,0.274449900000036,['n'],0.5405934999998863,1.274,1962.3425933,,,,,534,18,Woman,Right,
,,,,,,,,,,,,,,,,,534,18,Woman,Right,3,44,0.15,1,0,-,180,0.9739079999999376,['y'],2.1329508999997415,1.806,1968.3921461000002,,,,,534,18,Woman,Right,
,,,,,,,,,,,,,,,,,534,18,Woman,Right,3,36,0.4,1,0,-,0,0.4127245999998195,['n'],0.34889079999993555,1.404,1972.0593025,,,,,534,18,Woman,Right,
,,,,,,,,,,,,,,,,,534,18,Woman,Right,3,57,0.15,2,0,180,0,1.5767236000001503,['n'],0.5563993999999184,1.38,1976.943172,,,,,534,18,Woman,Right,
,,,,,,,,,,,,,,,,,534,18,Woman,Right,3,30,0.4,1,180,-,180,0.6118426000002728,['n'],0.4448151000001417,1.42,1980.7088818,,,,,534,18,Woman,Right,
,,,,,,,,,,,,,,,,,534,18,Woman,Right,3,32,0.4,1,0,-,0,0.3908545999997841,['n'],0.7569978999999876,1.404,1984.5759005000002,,,,,534,18,Woman,Right,
,,,,,,,,,,,,,,,,,534,18,Woman,Right,3,61,0.15,2,0,180,180,3.101371499999914,['y'],0.9012851999996201,1.5979999999999999,1991.3092426,,,,,534,18,Woman,Right,
,,,,,,,,,,,,,,,,,534,18,Woman,Right,3,68,0.15,1,0,-,180,1.6993219000000863,['n'],1.7668346000000383,1.462,1997.8096610999999,,,,,534,18,Woman,Right,
,,,,,,,,,,,,,,,,,534,18,Woman,Right,3,14,0.4,1,180,-,180,0.6260050999999294,['n'],0.9007360000000517,1.5859999999999999,2002.0427626000003,,,,,534,18,Woman,Right,
,,,,,,,,,,,,,,,,,534,18,Woman,Right,3,66,0.15,1,180,-,180,1.6934473999999682,['n'],1.1246263000002727,1.1360000000000001,2007.9257796,,,,,534,18,Woman,Right,
,,,,,,,,,,,,,,,,,534,18,Woman,Right,3,71,0.15,2,180,0,180,1.527691600000253,['n'],0.5650031999998646,1.134,2013.1096327000002,,,,,534,18,Woman,Right,
,,,,,,,,,,,,,,,,,534,18,Woman,Right,3,39,0.4,2,180,0,0,0.7659907000002022,['y'],1.2929362999998375,1.528,2018.4259125,,,,,534,18,Woman,Right,
,,,,,,,,,,,,,,,,,534,18,Woman,Right,3,51,0.15,2,180,0,0,0.6015473000002203,['y'],0.757419800000207,1.5739999999999998,2022.3418576000001,,,,,534,18,Woman,Right,
,,,,,,,,,,,,,,,,,534,18,Woman,Right,4,30,0.4,1,180,-,180,0.39847409999993033,['n'],1.2052926999999727,1.6320000000000001,2056.2592428999997,86.25,95.0,87.5,,534,18,Woman,Right,
,,,,,,,,,,,,,,,,,534,18,Woman,Right,4,3,1,2,180,0,0,0.7002511000000595,['y'],0.6585596999998415,1.772,2060.5257530999997,,,,,534,18,Woman,Right,
,,,,,,,,,,,,,,,,,534,18,Woman,Right,4,23,0.4,2,180,0,0,0.4567746999996416,['y'],0.46930810000003476,1.722,2064.125964,,,,,534,18,Woman,Right,
,,,,,,,,,,,,,,,,,534,18,Woman,Right,4,72,0.15,1,0,-,0,0.5340820000001258,['n'],0.8698478999999679,1.3719999999999999,2068.4759783,,,,,534,18,Woman,Right,
,,,,,,,,,,,,,,,,,534,18,Woman,Right,4,31,0.4,2,180,0,0,0.26995179999994434,['y'],0.7013345999998819,1.714,2071.9753302999998,,,,,534,18,Woman,Right,
,,,,,,,,,,,,,,,,,534,18,Woman,Right,4,41,0.4,2,0,180,180,0.5385581999998976,['y'],0.4212587000001804,1.766,2075.7085055,,,,,534,18,Woman,Right,
,,,,,,,,,,,,,,,,,534,18,Woman,Right,4,34,0.4,1,180,-,180,0.49860460000036255,['n'],0.6772375999998985,1.5739999999999998,2079.5259398,,,,,534,18,Woman,Right,
,,,,,,,,,,,,,,,,,534,18,Woman,Right,4,2,1,1,180,-,180,0.48776870000028794,['n'],0.5893896000002314,1.922,2083.1747819,,,,,534,18,Woman,Right,
,,,,,,,,,,,,,,,,,534,18,Woman,Right,4,11,0.4,2,180,0,0,0.39116059999969366,['y'],0.6453698999998778,1.728,2087.4747763000005,,,,,534,18,Woman,Right,
,,,,,,,,,,,,,,,,,534,18,Woman,Right,4,36,0.4,1,0,-,0,1.4732355999999527,['n'],0.645566400000007,1.6640000000000001,2092.6593512,,,,,534,18,Woman,Right,
,,,,,,,,,,,,,,,,,534,18,Woman,Right,4,14,0.4,1,180,-,180,0.3453662000001714,['n'],0.6695761000000857,1.638,2096.3583244,,,,,534,18,Woman,Right,
,,,,,,,,,,,,,,,,,534,18,Woman,Right,4,45,0.15,2,0,180,0,0.7667127999993681,['n'],0.5924918999999136,1.298,2100.3420297000002,,,,,534,18,Woman,Right,
,,,,,,,,,,,,,,,,,534,18,Woman,Right,4,7,1,2,180,0,0,0.8558037000002514,['y'],0.8855635999998412,1.826,2104.7914779000002,,,,,534,18,Woman,Right,
,,,,,,,,,,,,,,,,,534,18,Woman,Right,4,62,0.15,1,180,-,0,0.9589339999993172,['n'],0.9331555000007938,1.296,2109.3091388000003,,,,,534,18,Woman,Right,
,,,,,,,,,,,,,,,,,534,18,Woman,Right,4,16,0.4,1,0,-,0,0.33552980000058596,['n'],0.4301401000002443,1.718,2112.7583003,,,,,534,18,Woman,Right,
,,,,,,,,,,,,,,,,,534,18,Woman,Right,4,37,0.4,2,0,180,180,0.6676732999994783,['n'],0.46271710000019084,1.22,2120.4096803,,,,,534,18,Woman,Right,
,,,,,,,,,,,,,,,,,534,18,Woman,Right,4,67,0.15,2,180,0,0,0.9984116999994512,['n'],0.8858278999996401,1.262,2125.4747047,,,,,534,18,Woman,Right,
,,,,,,,,,,,,,,,,,534,18,Woman,Right,4,4,1,1,0,-,0,0.34617789999992965,['n'],0.4373875000001135,1.874,2129.0419021,,,,,534,18,Woman,Right,
,,,,,,,,,,,,,,,,,534,18,Woman,Right,4,63,0.15,2,180,0,180,1.5499409000003652,['n'],0.574330600000394,1.3599999999999999,2133.8257509999994,,,,,534,18,Woman,Right,
,,,,,,,,,,,,,,,,,534,18,Woman,Right,4,38,0.4,1,180,-,180,0.7252267000003485,['n'],0.3890052000006108,1.5739999999999998,2137.8089896,,,,,534,18,Woman,Right,
,,,,,,,,,,,,,,,,,534,18,Woman,Right,4,44,0.15,1,0,-,180,0.530630299999757,['n'],0.9892251999999644,1.226,2142.7584625,,,,,534,18,Woman,Right,
,,,,,,,,,,,,,,,,,534,18,Woman,Right,4,53,0.15,2,0,180,180,1.2656858000000284,['y'],0.6135215000003882,1.6520000000000001,2147.4929346,,,,,534,18,Woman,Right,
,,,,,,,,,,,,,,,,,534,18,Woman,Right,4,52,0.15,1,0,-,180,1.369459900000038,['y'],0.3977836000003663,1.566,2151.9746681999995,,,,,534,18,Woman,Right,
,,,,,,,,,,,,,,,,,534,18,Woman,Right,4,8,0.4,1,0,-,0,0.63134700000046,['n'],0.8139394999998331,1.308,2156.0584824,,,,,534,18,Woman,Right,
,,,,,,,,,,,,,,,,,534,18,Woman,Right,4,29,0.4,2,0,180,180,1.020581900000252,['y'],0.40548760000001494,1.692,2160.0587398,,,,,534,18,Woman,Right,
,,,,,,,,,,,,,,,,,534,18,Woman,Right,4,57,0.15,2,0,180,180,0.5481777999993938,['y'],0.32585759999983566,1.684,2163.5253572,,,,,534,18,Woman,Right,
,,,,,,,,,,,,,,,,,534,18,Woman,Right,4,46,0.15,1,180,-,180,1.2823606000001746,['n'],0.45400399999925867,1.366,2167.8422579999997,,,,,534,18,Woman,Right,
,,,,,,,,,,,,,,,,,534,18,Woman,Right,4,61,0.15,2,0,180,180,0.5487051000000065,['y'],0.48550669999985985,1.612,2171.2913566999996,,,,,534,18,Woman,Right,
,,,,,,,,,,,,,,,,,534,18,Woman,Right,4,65,0.15,2,0,180,0,0.7089079000006677,['n'],0.5100737000002482,1.3519999999999999,2175.1089526999995,,,,,534,18,Woman,Right,
,,,,,,,,,,,,,,,,,534,18,Woman,Right,4,33,0.4,2,0,180,180,0.7454266000004282,['y'],0.3420138000001316,1.688,2178.9582997999996,,,,,534,18,Woman,Right,
,,,,,,,,,,,,,,,,,534,18,Woman,Right,4,50,0.15,1,180,-,180,0.39258020000033866,['n'],1.093709900000249,1.54,2183.3087776,,,,,534,18,Woman,Right,
,,,,,,,,,,,,,,,,,534,18,Woman,Right,4,49,0.15,2,0,180,180,0.46007170000029873,['y'],0.6613250999998854,1.682,2187.0416827999998,,,,,534,18,Woman,Right,
,,,,,,,,,,,,,,,,,534,18,Woman,Right,4,0,1,1,0,-,0,0.580668899999182,['n'],0.46190699999988283,1.908,2190.9587810000003,,,,,534,18,Woman,Right,
,,,,,,,,,,,,,,,,,534,18,Woman,Right,4,12,0.4,1,0,-,0,0.562132300000485,['n'],0.645259800000531,1.54,2195.3076630999994,,,,,534,18,Woman,Right,
,,,,,,,,,,,,,,,,,534,18,Woman,Right,4,35,0.4,2,180,0,0,0.9509539000000586,['y'],0.3582274000000325,1.726,2199.3583348,,,,,534,18,Woman,Right,
,,,,,,,,,,,,,,,,,534,18,Woman,Right,4,68,0.15,1,0,-,180,1.4060250999991695,['y'],0.42193719999977475,1.56,2203.9588548,,,,,534,18,Woman,Right,
,,,,,,,,,,,,,,,,,534,18,Woman,Right,4,60,0.15,1,0,-,0,0.5537476999998034,['n'],0.6218528999997943,1.3519999999999999,2207.8747922000002,,,,,534,18,Woman,Right,
,,,,,,,,,,,,,,,,,534,18,Woman,Right,4,1,1,2,0,180,180,0.6083517000006395,['y'],0.4298932000001514,1.68,2211.5253949999997,,,,,534,18,Woman,Right,
,,,,,,,,,,,,,,,,,534,18,Woman,Right,4,66,0.15,1,180,-,180,0.9925579000000653,['y'],0.35844210000050225,1.53,2215.5085303999995,,,,,534,18,Woman,Right,
,,,,,,,,,,,,,,,,,534,18,Woman,Right,4,26,0.4,1,180,-,180,0.7000546999997823,['n'],0.42248509999990347,1.388,2219.2916278000002,,,,,534,18,Woman,Right,
,,,,,,,,,,,,,,,,,534,18,Woman,Right,4,47,0.15,2,180,0,0,1.1473261000001003,['y'],0.741866200000004,1.672,2223.6580779999995,,,,,534,18,Woman,Right,
,,,,,,,,,,,,,,,,,534,18,Woman,Right,4,27,0.4,2,180,0,0,0.49230790000001434,['y'],0.30997500000012224,1.63,2227.1080321,,,,,534,18,Woman,Right,
,,,,,,,,,,,,,,,,,534,18,Woman,Right,4,42,0.4,1,180,-,180,0.8079328999992867,['n'],0.5823835000001054,1.54,2231.4747073999997,,,,,534,18,Woman,Right,
,,,,,,,,,,,,,,,,,534,18,Woman,Right,4,6,1,1,180,-,180,0.6341747000005853,['n'],0.6065947999995842,1.826,2235.4079541,,,,,534,18,Woman,Right,
,,,,,,,,,,,,,,,,,534,18,Woman,Right,4,13,0.4,2,0,180,180,0.6526191999992079,['y'],0.8537410999997519,1.624,2239.7250543,,,,,534,18,Woman,Right,
,,,,,,,,,,,,,,,,,534,18,Woman,Right,4,5,1,2,0,180,180,0.4461590000000797,['y'],0.3023886000000857,1.802,2243.2242187,,,,,534,18,Woman,Right,
,,,,,,,,,,,,,,,,,534,18,Woman,Right,4,48,0.15,1,0,-,180,0.5808797999998205,['n'],0.6461344999997891,1.29,2247.2581255999994,,,,,534,18,Woman,Right,
,,,,,,,,,,,,,,,,,534,18,Woman,Right,4,51,0.15,2,180,0,180,1.0240912999997818,['n'],0.645706500000415,1.312,2251.5251876,,,,,534,18,Woman,Right,
,,,,,,,,,,,,,,,,,534,18,Woman,Right,4,77,0.15,2,0,180,0,0.7032564999999522,['n'],0.6867996000000858,1.322,2255.5078242,,,,,534,18,Woman,Right,
,,,,,,,,,,,,,,,,,534,18,Woman,Right,4,20,0.4,1,0,-,0,0.7231987000004665,['n'],0.3825611999991452,1.692,2259.2916113,,,,,534,18,Woman,Right,
,,,,,,,,,,,,,,,,,534,18,Woman,Right,4,79,0.15,2,180,0,180,1.116202200000771,['n'],0.2698964999999589,1.366,2263.4420705,,,,,534,18,Woman,Right,
,,,,,,,,,,,,,,,,,534,18,Woman,Right,4,58,0.15,1,180,-,0,2.1799984000008408,['n'],1.062685899999451,1.188,2269.6413963999994,,,,,534,18,Woman,Right,
,,,,,,,,,,,,,,,,,534,18,Woman,Right,4,74,0.15,1,180,-,180,0.634218499999406,['n'],0.4940943999999945,1.244,2273.4906905999997,,,,,534,18,Woman,Right,
,,,,,,,,,,,,,,,,,534,18,Woman,Right,4,40,0.4,1,0,-,0,0.40381800000068324,['n'],0.42240919999949256,1.3980000000000001,2277.2405606,,,,,534,18,Woman,Right,
,,,,,,,,,,,,,,,,,534,18,Woman,Right,4,32,0.4,1,0,-,0,0.44628480000028503,['n'],0.34260009999979957,1.3940000000000001,2280.6578861,,,,,534,18,Woman,Right,
,,,,,,,,,,,,,,,,,534,18,Woman,Right,4,69,0.15,2,0,180,180,1.794445800000176,['y'],0.4145478999998886,1.326,2285.7415596,,,,,534,18,Woman,Right,
,,,,,,,,,,,,,,,,,534,18,Woman,Right,4,64,0.15,1,0,-,180,0.9206585000001724,['n'],0.30222870000034163,1.26,2290.9912151999997,,,,,534,18,Woman,Right,
,,,,,,,,,,,,,,,,,534,18,Woman,Right,4,28,0.4,1,0,-,0,0.583954900000208,['n'],0.32652759999928094,1.296,2294.5574974,,,,,534,18,Woman,Right,
,,,,,,,,,,,,,,,,,534,18,Woman,Right,4,73,0.15,2,0,180,0,1.4147917999998754,['n'],0.5661360000003697,1.316,2299.3914954,,,,,534,18,Woman,Right,
,,,,,,,,,,,,,,,,,534,18,Woman,Right,4,78,0.15,1,180,-,180,0.3899085999992167,['n'],0.3908228999998755,1.27,2302.9739957,,,,,534,18,Woman,Right,
,,,,,,,,,,,,,,,,,534,18,Woman,Right,4,70,0.15,1,180,-,180,0.4825676000000385,['n'],0.3424955000000409,1.206,2306.3909499,,,,,534,18,Woman,Right,
,,,,,,,,,,,,,,,,,534,18,Woman,Right,4,75,0.15,2,180,0,180,1.1368812999999136,['n'],1.278095100000428,1.242,2311.6076570999994,,,,,534,18,Woman,Right,
,,,,,,,,,,,,,,,,,534,18,Woman,Right,4,59,0.15,2,180,0,0,0.8642820000004576,['y'],0.4223835999991934,1.558,2315.724209,,,,,534,18,Woman,Right,
,,,,,,,,,,,,,,,,,534,18,Woman,Right,4,15,0.4,2,180,0,0,0.47871050000048854,['y'],0.4064699999998993,1.5819999999999999,2319.2238301999996,,,,,534,18,Woman,Right,
,,,,,,,,,,,,,,,,,534,18,Woman,Right,4,24,0.4,1,0,-,0,0.39043690000016795,['n'],0.5979942000003575,1.784,2323.0412829999996,,,,,534,18,Woman,Right,
,,,,,,,,,,,,,,,,,534,18,Woman,Right,4,54,0.15,1,180,-,180,0.3613299000007828,['n'],0.4467837000001964,1.266,2326.4402564,,,,,534,18,Woman,Right,
,,,,,,,,,,,,,,,,,534,18,Woman,Right,4,71,0.15,2,180,0,0,1.6935473000003185,['y'],0.31864240000049904,1.532,2331.0408456999994,,,,,534,18,Woman,Right,
,,,,,,,,,,,,,,,,,534,18,Woman,Right,4,76,0.15,1,0,-,0,0.7716532999993433,['n'],1.0228879999995115,1.3860000000000001,2335.3248346,,,,,534,18,Woman,Right,
,,,,,,,,,,,,,,,,,534,18,Woman,Right,4,25,0.4,2,0,180,180,0.9155142999998134,['y'],0.29481140000007144,1.666,2339.4578556999995,,,,,534,18,Woman,Right,
,,,,,,,,,,,,,,,,,534,18,Woman,Right,4,18,0.4,1,180,-,180,0.6504992000000129,['n'],0.5987691000000268,1.322,2343.3244335,,,,,534,18,Woman,Right,
,,,,,,,,,,,,,,,,,534,18,Woman,Right,4,22,0.4,1,180,-,180,0.6249250999999276,['n'],0.6228821000004245,1.3,2347.0907781999995,,,,,534,18,Woman,Right,
,,,,,,,,,,,,,,,,,534,18,Woman,Right,4,17,0.4,2,0,180,180,0.6018113000000085,['y'],0.3988792000000103,1.6520000000000001,2350.7244456,,,,,534,18,Woman,Right,
,,,,,,,,,,,,,,,,,534,18,Woman,Right,4,39,0.4,2,180,0,0,0.319441800000277,['y'],0.35082820000025094,1.6520000000000001,2354.4080624,,,,,534,18,Woman,Right,
,,,,,,,,,,,,,,,,,534,18,Woman,Right,4,21,0.4,2,0,180,180,0.6110920999999507,['y'],0.2872351999994862,1.658,2357.9738767,,,,,534,18,Woman,Right,
,,,,,,,,,,,,,,,,,534,18,Woman,Right,4,43,0.4,2,180,0,0,0.30946810000023106,['y'],0.27876430000014807,1.752,2361.4247114,,,,,534,18,Woman,Right,
,,,,,,,,,,,,,,,,,534,18,Woman,Right,4,55,0.15,2,180,0,0,0.3232796000002054,['y'],0.3029574000001958,1.762,2364.7241077999997,,,,,534,18,Woman,Right,
,,,,,,,,,,,,,,,,,534,18,Woman,Right,4,19,0.4,2,180,0,0,0.2553901000001133,['y'],0.3191484999997556,1.782,2368.0405433999995,,,,,534,18,Woman,Right,
,,,,,,,,,,,,,,,,,534,18,Woman,Right,4,10,0.4,1,180,-,180,1.6376167000007626,['n'],0.27857610000046407,1.388,2372.5736613,,,,,534,18,Woman,Right,
,,,,,,,,,,,,,,,,,534,18,Woman,Right,4,9,0.4,2,0,180,180,0.3109008999999787,['y'],0.31874840000000404,1.738,2375.7922919000002,,,,,534,18,Woman,Right,
,,,,,,,,,,,,,,,,,534,18,Woman,Right,4,56,0.15,1,0,-,0,0.5955904000002192,['n'],0.5993112999994992,1.3479999999999999,2379.8069236,,,,,534,18,Woman,Right,
,,,,,,,,,,,,,,,,,534,18,Woman,Right,5,1,1,2,0,180,180,1.2406414000006407,['y'],0.3028793000003134,1.836,2405.6408856999997,81.25,92.5,75.0,,534,18,Woman,Right,
,,,,,,,,,,,,,,,,,534,18,Woman,Right,5,79,0.15,2,180,0,180,0.9164416000003257,['n'],1.2233415000000605,1.342,2410.3903370999997,,,,,534,18,Woman,Right,
,,,,,,,,,,,,,,,,,534,18,Woman,Right,5,29,0.4,2,0,180,180,0.6878165999996781,['y'],0.5187561000002461,1.78,2414.3568864999997,,,,,534,18,Woman,Right,
,,,,,,,,,,,,,,,,,534,18,Woman,Right,5,73,0.15,2,0,180,180,0.3192999000002601,['y'],0.2798497000003408,1.756,2417.5078925999996,,,,,534,18,Woman,Right,
,,,,,,,,,,,,,,,,,534,18,Woman,Right,5,57,0.15,2,0,180,180,0.2998741000001246,['y'],0.2598053000001528,1.734,2420.6577599,,,,,534,18,Woman,Right,
,,,,,,,,,,,,,,,,,534,18,Woman,Right,5,15,0.4,2,180,0,0,0.5661000999998578,['y'],0.2707227000000785,1.712,2424.091042,,,,,534,18,Woman,Right,
,,,,,,,,,,,,,,,,,534,18,Woman,Right,5,46,0.15,1,180,-,0,0.6141696999993655,['y'],0.27906310000071244,1.626,2427.8571489999995,,,,,534,18,Woman,Right,
,,,,,,,,,,,,,,,,,534,18,Woman,Right,5,30,0.4,1,180,-,180,0.3967208000003666,['n'],0.7112376000004588,1.322,2431.557256,,,,,534,18,Woman,Right,
,,,,,,,,,,,,,,,,,534,18,Woman,Right,5,36,0.4,1,0,-,0,0.3674762999999075,['n'],0.6550939999997354,1.576,2435.2231446999995,,,,,534,18,Woman,Right,
,,,,,,,,,,,,,,,,,534,18,Woman,Right,5,68,0.15,1,0,-,0,0.4847464000004038,['n'],1.159435200000189,1.214,2439.7415223999997,,,,,534,18,Woman,Right,
,,,,,,,,,,,,,,,,,534,18,Woman,Right,5,55,0.15,2,180,0,0,1.3864513999997143,['y'],0.7517940999996426,1.536,2444.5071983,,,,,534,18,Woman,Right,
,,,,,,,,,,,,,,,,,534,18,Woman,Right,5,17,0.4,2,0,180,180,0.622262499999124,['y'],0.31107149999934336,1.6139999999999999,2447.9903353,,,,,534,18,Woman,Right,
,,,,,,,,,,,,,,,,,534,18,Woman,Right,5,35,0.4,2,180,0,0,0.27008739999928366,['y'],0.3037859000005483,1.742,2451.1406841999997,,,,,534,18,Woman,Right,
,,,,,,,,,,,,,,,,,534,18,Woman,Right,5,13,0.4,2,0,180,180,0.4148632999995243,['y'],0.23942480000005162,1.75,2454.5400947,,,,,534,18,Woman,Right,
,,,,,,,,,,,,,,,,,534,18,Woman,Right,5,43,0.4,2,180,0,0,0.20705550000002404,['y'],0.35909349999928963,1.808,2457.9409248,,,,,534,18,Woman,Right,
,,,,,,,,,,,,,,,,,534,18,Woman,Right,5,45,0.15,2,0,180,180,0.528120800000579,['n'],0.9916298999996798,1.282,2462.2902411999994,,,,,534,18,Woman,Right,
,,,,,,,,,,,,,,,,,534,18,Woman,Right,5,39,0.4,2,180,0,0,0.25492250000024796,['y'],0.2400035000000571,1.784,2465.5242559999997,,,,,534,18,Woman,Right,
,,,,,,,,,,,,,,,,,534,18,Woman,Right,5,26,0.4,1,180,-,0,0.26293919999989157,['y'],0.23230820000026142,1.6480000000000001,2468.7728755999997,,,,,534,18,Woman,Right,
,,,,,,,,,,,,,,,,,534,18,Woman,Right,5,49,0.15,2,0,180,180,0.43073939999976574,['y'],0.23906709999937448,1.658,2472.0397987999995,,,,,534,18,Woman,Right,
,,,,,,,,,,,,,,,,,534,18,Woman,Right,5,32,0.4,1,0,-,0,0.2954056999997192,['n'],0.6555785999998989,1.338,2475.4572846,,,,,534,18,Woman,Right,
,,,,,,,,,,,,,,,,,534,18,Woman,Right,5,64,0.15,1,0,-,180,0.889072799999667,['n'],0.9590827000001809,1.478,2479.9233053999997,,,,,534,18,Woman,Right,
,,,,,,,,,,,,,,,,,534,18,Woman,Right,5,48,0.15,1,0,-,0,0.37612760000047274,['n'],1.1994709999999031,1.462,2484.1241537999995,,,,,534,18,Woman,Right,
,,,,,,,,,,,,,,,,,534,18,Woman,Right,5,59,0.15,2,180,0,180,1.1007343999999648,['y'],0.60766170000079,1.612,2488.3236042999997,,,,,534,18,Woman,Right,
,,,,,,,,,,,,,,,,,534,18,Woman,Right,5,74,0.15,1,180,-,180,0.3543300999999701,['n'],0.8154054999995424,1.358,2492.1907467,,,,,534,18,Woman,Right,
,,,,,,,,,,,,,,,,,534,18,Woman,Right,5,67,0.15,2,180,0,0,0.27309859999968467,['y'],0.44821070000034524,1.638,2495.5232195,,,,,534,18,Woman,Right,
,,,,,,,,,,,,,,,,,534,18,Woman,Right,5,38,0.4,1,180,-,180,0.4179570000005697,['n'],0.6235243000000992,1.3900000000000001,2499.1240163,,,,,534,18,Woman,Right,
,,,,,,,,,,,,,,,,,534,18,Woman,Right,5,10,0.4,1,180,-,180,0.39923839999937627,['n'],0.6717179000006581,1.342,2502.9397595,,,,,534,18,Woman,Right,
,,,,,,,,,,,,,,,,,534,18,Woman,Right,5,25,0.4,2,0,180,180,0.5913669999999911,['y'],0.4474069999996573,1.626,2506.7405735,,,,,534,18,Woman,Right,
,,,,,,,,,,,,,,,,,534,18,Woman,Right,5,27,0.4,2,180,0,0,0.275894899999912,['y'],0.2395963999997548,1.812,2510.2737491,,,,,534,18,Woman,Right,
,,,,,,,,,,,,,,,,,534,18,Woman,Right,5,12,0.4,1,0,-,0,0.6082252999995035,['n'],0.559772200000225,1.6,2514.1405822999996,,,,,534,18,Woman,Right,
,,,,,,,,,,,,,,,,,534,18,Woman,Right,5,65,0.15,2,0,180,180,0.40191589999994903,['y'],0.29539419999946404,1.6520000000000001,2517.3406036999995,,,,,534,18,Woman,Right,
,,,,,,,,,,,,,,,,,534,18,Woman,Right,5,72,0.15,1,0,-,0,0.3628748999999516,['n'],0.49550880000060715,1.3820000000000001,2520.6904047999997,,,,,534,18,Woman,Right,
,,,,,,,,,,,,,,,,,534,18,Woman,Right,5,75,0.15,2,180,0,0,0.6872757000001002,['y'],0.23953090000031807,1.526,2523.9057971,,,,,534,18,Woman,Right,
,,,,,,,,,,,,,,,,,534,18,Woman,Right,5,61,0.15,2,0,180,0,1.2452616999999009,['n'],1.4476137999999992,1.526,2523.9057971,,,,,534,18,Woman,Right,
,,,,,,,,,,,,,,,,,534,18,Woman,Right,5,19,0.4,2,180,0,0,0.5908682999997836,['y'],0.2552116000006208,1.726,2532.5241459999997,,,,,534,18,Woman,Right,
,,,,,,,,,,,,,,,,,534,18,Woman,Right,5,34,0.4,1,180,-,180,1.6880371999995987,['n'],0.4000857000000906,1.512,2537.5239106,,,,,534,18,Woman,Right,
,,,,,,,,,,,,,,,,,534,18,Woman,Right,5,77,0.15,2,0,180,180,0.3499833999994735,['y'],0.8010747999996966,1.6019999999999999,2541.3070406999996,,,,,534,18,Woman,Right,
,,,,,,,,,,,,,,,,,534,18,Woman,Right,5,8,0.4,1,0,-,0,0.42790789999980916,['n'],0.5280176000005667,1.404,2544.7728059,,,,,534,18,Woman,Right,
,,,,,,,,,,,,,,,,,534,18,Woman,Right,5,60,0.15,1,0,-,0,0.7680608999999095,['n'],0.335537299999487,1.4,2548.4733977999995,,,,,534,18,Woman,Right,
,,,,,,,,,,,,,,,,,534,18,Woman,Right,5,44,0.15,1,0,-,0,0.43725630000062665,['n'],0.32827589999942575,1.3519999999999999,2551.9066044,,,,,534,18,Woman,Right,
,,,,,,,,,,,,,,,,,534,18,Woman,Right,5,16,0.4,1,0,-,0,0.3548086999999214,['n'],0.3042464000000109,1.3359999999999999,2555.1069411,,,,,534,18,Woman,Right,
,,,,,,,,,,,,,,,,,534,18,Woman,Right,5,42,0.4,1,180,-,180,0.5746611999993547,['n'],0.8715801999996984,1.424,2559.2074554,,,,,534,18,Woman,Right,
,,,,,,,,,,,,,,,,,534,18,Woman,Right,5,3,1,2,180,0,0,0.62992899999972,['y'],0.5917676999997639,1.6360000000000001,2563.1230590999994,,,,,534,18,Woman,Right,
,,,,,,,,,,,,,,,,,534,18,Woman,Right,5,9,0.4,2,0,180,180,0.6657077999998364,['y'],0.24776939999992464,1.758,2567.0071988,,,,,534,18,Woman,Right,
,,,,,,,,,,,,,,,,,534,18,Woman,Right,5,56,0.15,1,0,-,0,1.0070470000000569,['n'],0.3521980000004987,1.3980000000000001,2570.8732218999994,,,,,534,18,Woman,Right,
,,,,,,,,,,,,,,,,,534,18,Woman,Right,5,50,0.15,1,180,-,180,0.5131831999997303,['y'],0.6558070999999472,1.384,2577.5060451,,,,,534,18,Woman,Right,
,,,,,,,,,,,,,,,,,534,18,Woman,Right,5,23,0.4,2,180,0,0,0.6300400999998601,['y'],1.704285599999821,1.738,2583.1068403,,,,,534,18,Woman,Right,
,,,,,,,,,,,,,,,,,534,18,Woman,Right,5,51,0.15,2,180,0,0,0.5852771999998367,['y'],0.6084577000001445,1.646,2586.9069158,,,,,534,18,Woman,Right,
,,,,,,,,,,,,,,,,,534,18,Woman,Right,5,33,0.4,2,0,180,180,0.32645140000022366,['y'],0.27165289999993547,1.892,2590.0070084,,,,,534,18,Woman,Right,
,,,,,,,,,,,,,,,,,534,18,Woman,Right,5,40,0.4,1,0,-,0,0.7975576999997429,['n'],0.4317251000002216,1.4,2594.1739731,,,,,534,18,Woman,Right,
,,,,,,,,,,,,,,,,,534,18,Woman,Right,5,18,0.4,1,180,-,180,0.6319900999997117,['n'],0.31179899999915506,1.3599999999999999,2597.5396550999994,,,,,534,18,Woman,Right,
,,,,,,,,,,,,,,,,,534,18,Woman,Right,5,0,1,1,0,-,0,0.649051800000052,['n'],0.3124337999997806,1.754,2601.2228445,,,,,534,18,Woman,Right,
,,,,,,,,,,,,,,,,,534,18,Woman,Right,5,14,0.4,1,180,-,180,0.3071580999994694,['n'],0.3043558999997913,1.4020000000000001,2604.5236531,,,,,534,18,Woman,Right,
,,,,,,,,,,,,,,,,,534,18,Woman,Right,5,54,0.15,1,180,-,0,0.5300608999996257,['n'],0.30365310000070167,1.314,2608.0066619,,,,,534,18,Woman,Right,
,,,,,,,,,,,,,,,,,534,18,Woman,Right,5,7,1,2,180,0,0,1.0208096999995178,['y'],0.463821100000132,1.7,2612.2402135,,,,,534,18,Woman,Right,
,,,,,,,,,,,,,,,,,534,18,Woman,Right,5,71,0.15,2,180,0,0,1.8871764000004987,['y'],0.32013869999991584,1.6440000000000001,2617.1229692999996,,,,,534,18,Woman,Right,
,,,,,,,,,,,,,,,,,534,18,Woman,Right,5,11,0.4,2,180,0,0,0.7564105000001291,['y'],0.3999314000002414,1.62,2620.7723182,,,,,534,18,Woman,Right,
,,,,,,,,,,,,,,,,,534,18,Woman,Right,5,20,0.4,1,0,-,0,0.3504953999999998,['n'],0.34402959999988525,1.3479999999999999,2624.2563322999995,,,,,534,18,Woman,Right,
,,,,,,,,,,,,,,,,,534,18,Woman,Right,5,2,1,1,180,-,180,0.3699295999995229,['n'],0.35215680000055727,1.3639999999999999,2627.6724293999996,,,,,534,18,Woman,Right,
,,,,,,,,,,,,,,,,,534,18,Woman,Right,5,24,0.4,1,0,-,0,0.587779400000727,['n'],0.2807353999996849,1.54,2631.2068068,,,,,534,18,Woman,Right,
,,,,,,,,,,,,,,,,,534,18,Woman,Right,5,76,0.15,1,0,-,0,1.1191662000001088,['n'],0.208461699999134,1.3519999999999999,2635.0556478999997,,,,,534,18,Woman,Right,
,,,,,,,,,,,,,,,,,534,18,Woman,Right,5,69,0.15,2,0,180,0,0.5225104000001011,['n'],0.24810249999973166,1.334,2638.6391734,,,,,534,18,Woman,Right,
,,,,,,,,,,,,,,,,,534,18,Woman,Right,5,21,0.4,2,0,180,180,0.3265902000002825,['y'],0.42427219999990484,1.68,2641.9724098999995,,,,,534,18,Woman,Right,
,,,,,,,,,,,,,,,,,534,18,Woman,Right,5,58,0.15,1,180,-,180,0.3065730000007534,['y'],0.2404922000005172,1.56,2645.0407903999994,,,,,534,18,Woman,Right,
,,,,,,,,,,,,,,,,,534,18,Woman,Right,5,78,0.15,1,180,-,180,0.6871696999996857,['n'],0.255998599999657,1.366,2648.4395947000003,,,,,534,18,Woman,Right,
,,,,,,,,,,,,,,,,,534,18,Woman,Right,5,41,0.4,2,0,180,180,0.32747310000013385,['y'],0.2644184000000678,1.6440000000000001,2651.5062706999997,,,,,534,18,Woman,Right,
,,,,,,,,,,,,,,,,,534,18,Woman,Right,5,62,0.15,1,180,-,180,0.9500082000004113,['n'],0.2396272999994835,1.3980000000000001,2655.0898535999995,,,,,534,18,Woman,Right,
,,,,,,,,,,,,,,,,,534,18,Woman,Right,5,31,0.4,2,180,0,0,0.26559290000022884,['y'],0.2641784999996162,1.674,2658.1733753,,,,,534,18,Woman,Right,
,,,,,,,,,,,,,,,,,534,18,Woman,Right,5,4,1,1,0,-,0,0.653989499999625,['n'],0.3124983000006978,1.772,2661.8224975000003,,,,,534,18,Woman,Right,
,,,,,,,,,,,,,,,,,534,18,Woman,Right,5,52,0.15,1,0,-,180,0.6941491999996288,['n'],0.8003180999994584,1.4100000000000001,2665.8889426999995,,,,,534,18,Woman,Right,
,,,,,,,,,,,,,,,,,534,18,Woman,Right,5,37,0.4,2,0,180,0,0.44723489999978483,['y'],2.5522455000000264,1.674,2671.3722937000002,,,,,534,18,Woman,Right,
,,,,,,,,,,,,,,,,,534,18,Woman,Right,5,53,0.15,2,0,180,0,0.7108829999997397,['n'],1.9847993000003044,1.412,2676.856129,,,,,534,18,Woman,Right,
,,,,,,,,,,,,,,,,,534,18,Woman,Right,5,22,0.4,1,180,-,180,0.4784593999993376,['n'],0.4246475999998438,1.516,2680.5722495,,,,,534,18,Woman,Right,
,,,,,,,,,,,,,,,,,534,18,Woman,Right,5,5,1,2,0,180,180,0.6582794000005379,['y'],0.5046837999998388,1.638,2684.1242230999997,,,,,534,18,Woman,Right,
,,,,,,,,,,,,,,,,,534,18,Woman,Right,5,63,0.15,2,180,0,180,1.0168781000002127,['n'],0.4005034000001615,1.3439999999999999,2688.1726266999995,,,,,534,18,Woman,Right,
,,,,,,,,,,,,,,,,,534,18,Woman,Right,5,47,0.15,2,180,0,0,0.9321425999996791,['y'],0.7045471999999791,1.52,2692.139841,,,,,534,18,Woman,Right,
,,,,,,,,,,,,,,,,,534,18,Woman,Right,5,28,0.4,1,0,-,0,0.5879221000004691,['n'],0.3125789999994595,1.3780000000000001,2695.5062354,,,,,534,18,Woman,Right,
,,,,,,,,,,,,,,,,,534,18,Woman,Right,5,66,0.15,1,180,-,0,0.6837905000002138,['n'],0.5609978000002229,1.384,2699.3563291,,,,,534,18,Woman,Right,
,,,,,,,,,,,,,,,,,534,18,Woman,Right,5,6,1,1,180,-,180,0.6318952000001445,['n'],0.3203809000006004,1.758,2703.1224581999995,,,,,534,18,Woman,Right,
,,,,,,,,,,,,,,,,,534,18,Woman,Right,5,70,0.15,1,180,-,180,0.44547010000042064,['n'],0.44856369999979506,1.374,2706.4560993999994,,,,,534,18,Woman,Right,
,,,,,,,,,,,,,,,,,,,,,,,,,,,,,,,,,83.75,90.0,85.0,2344.6560646999997,,,,,
