p_block,p_section,p_coherence,p_direction1,p_direction2,p_direction_response,p_direction_RT,p_change_response,p_change_RT,p_confidence,p_full_correct,p_without5_correct,p_full_total,p_without5_total,p_full_avg,p_witout5_avg,p_total_time,sub,age,sex,handedness,loop,trial randomization,coherence,condition,direction1,direction2,direction_response,direction_RT,change_response,change_RT,change_confidence,change_confidence_RT,block_direction_avg,block_stable_avg,block_change_avg,total_time,sub,age,sex,handedness,
1,1,1.0,180,-,180,1.620398699999896,-,-,-,,,,,,,,560,19,Woman,Right,,,,,,,,,,,,,,,,,560,19,Woman,Right,
1,1,1.0,180,-,0,0.6131772000001092,-,-,-,,,,,,,,560,19,Woman,Right,,,,,,,,,,,,,,,,,560,19,Woman,Right,
1,1,1.0,180,-,180,0.5109886000000188,-,-,-,,,,,,,,560,19,Woman,Right,,,,,,,,,,,,,,,,,560,19,Woman,Right,
1,1,1.0,0,-,180,0.9172610000000532,-,-,-,,,,,,,,560,19,Woman,Right,,,,,,,,,,,,,,,,,560,19,Woman,Right,
1,1,1.0,0,-,0,0.4747511000000486,-,-,-,,,,,,,,560,19,Woman,Right,,,,,,,,,,,,,,,,,560,19,Woman,Right,
1,1,1.0,180,-,180,0.4589542999999594,-,-,-,,,,,,,,560,19,Woman,Right,,,,,,,,,,,,,,,,,560,19,Woman,Right,
1,1,1.0,180,-,0,0.6167938000000959,-,-,-,,,,,,,,560,19,Woman,Right,,,,,,,,,,,,,,,,,560,19,Woman,Right,
1,1,1.0,0,-,180,1.1722319000000425,-,-,-,,,,,,,,560,19,Woman,Right,,,,,,,,,,,,,,,,,560,19,Woman,Right,
1,1,1.0,180,-,0,0.4475867000001017,-,-,-,,,,,,,,560,19,Woman,Right,,,,,,,,,,,,,,,,,560,19,Woman,Right,
1,1,1.0,180,-,0,1.1285021999999572,-,-,-,,,,,,,,560,19,Woman,Right,,,,,,,,,,,,,,,,,560,19,Woman,Right,
1,1,1.0,0,-,0,0.44544820000010077,-,-,-,,,,,,,,560,19,Woman,Right,,,,,,,,,,,,,,,,,560,19,Woman,Right,
1,1,1.0,180,-,180,0.5908399000002191,-,-,-,,,,,,,,560,19,Woman,Right,,,,,,,,,,,,,,,,,560,19,Woman,Right,
1,1,1.0,0,-,0,0.43305430000009437,-,-,-,,,,,,,,560,19,Woman,Right,,,,,,,,,,,,,,,,,560,19,Woman,Right,
1,1,1.0,0,-,180,0.43419380000000274,-,-,-,,,,,,,,560,19,Woman,Right,,,,,,,,,,,,,,,,,560,19,Woman,Right,
1,1,1.0,0,-,0,0.435424600000033,-,-,-,,,,,,,,560,19,Woman,Right,,,,,,,,,,,,,,,,,560,19,Woman,Right,
1,1,1.0,180,-,0,0.7074976000001243,-,-,-,,,,,,,,560,19,Woman,Right,,,,,,,,,,,,,,,,,560,19,Woman,Right,
1,1,1.0,180,-,180,0.42583829999989575,-,-,-,,,,,,,,560,19,Woman,Right,,,,,,,,,,,,,,,,,560,19,Woman,Right,
1,1,1.0,0,-,0,0.4333979000000454,-,-,-,,,,,,,,560,19,Woman,Right,,,,,,,,,,,,,,,,,560,19,Woman,Right,
1,1,1.0,0,-,0,0.27539600000000064,-,-,-,,,,,,,,560,19,Woman,Right,,,,,,,,,,,,,,,,,560,19,Woman,Right,
1,1,1.0,180,-,180,0.016684899999972913,-,-,-,8,8,10,10,0.8,0.8,,560,19,Woman,Right,,,,,,,,,,,,,,,,,560,19,Woman,Right,
2,1,0.4,180,-,180,0.7169263000000683,-,-,-,,,,,,,,560,19,Woman,Right,,,,,,,,,,,,,,,,,560,19,Woman,Right,
2,1,0.15,180,-,0,0.7043264000001273,-,-,-,,,,,,,,560,19,Woman,Right,,,,,,,,,,,,,,,,,560,19,Woman,Right,
2,1,0.15,0,-,180,0.3825303000000986,-,-,-,,,,,,,,560,19,Woman,Right,,,,,,,,,,,,,,,,,560,19,Woman,Right,
2,1,0.4,0,-,0,0.3126073999999335,-,-,-,,,,,,,,560,19,Woman,Right,,,,,,,,,,,,,,,,,560,19,Woman,Right,
2,1,0.15,180,-,180,0.39890260000015587,-,-,-,,,,,,,,560,19,Woman,Right,,,,,,,,,,,,,,,,,560,19,Woman,Right,
2,1,0.4,180,-,180,0.39287239999998746,-,-,-,,,,,,,,560,19,Woman,Right,,,,,,,,,,,,,,,,,560,19,Woman,Right,
2,1,0.15,180,-,0,0.523565200000121,-,-,-,,,,,,,,560,19,Woman,Right,,,,,,,,,,,,,,,,,560,19,Woman,Right,
2,1,0.15,180,-,180,0.3371343999999681,-,-,-,,,,,,,,560,19,Woman,Right,,,,,,,,,,,,,,,,,560,19,Woman,Right,
2,1,0.15,180,-,180,0.3733465000000251,-,-,-,,,,,,,,560,19,Woman,Right,,,,,,,,,,,,,,,,,560,19,Woman,Right,
2,1,0.15,180,-,0,1.1930107999999109,-,-,-,6,3,10,3,0.6,1.0,,560,19,Woman,Right,,,,,,,,,,,,,,,,,560,19,Woman,Right,
3,2,1.0,180,0,0,4.683418100000381,['y'],5.559633500000018,1.966,,,,,,,,560,19,Woman,Right,,,,,,,,,,,,,,,,,560,19,Woman,Right,
3,2,1.0,0,180,180,1.301555499999722,['y'],6.71617359999982,1.756,,,,,,,,560,19,Woman,Right,,,,,,,,,,,,,,,,,560,19,Woman,Right,
3,2,1.0,180,0,0,1.2917159999997239,['y'],2.4435340999998516,1.682,,,,,,,,560,19,Woman,Right,,,,,,,,,,,,,,,,,560,19,Woman,Right,
3,2,1.0,0,180,180,1.3409618999999111,['y'],1.71636239999998,1.754,,,,,,,,560,19,Woman,Right,,,,,,,,,,,,,,,,,560,19,Woman,Right,
3,2,1.0,180,0,0,0.7422465999998167,['y'],0.6230071999998472,1.696,,,,,,,,560,19,Woman,Right,,,,,,,,,,,,,,,,,560,19,Woman,Right,
3,2,1.0,0,180,180,0.8319163999999546,['y'],3.4064948000000186,1.874,,,,,,,,560,19,Woman,Right,,,,,,,,,,,,,,,,,560,19,Woman,Right,
3,2,1.0,180,0,0,0.8039312999999311,['y'],0.5801307000001543,1.826,,,,,,,,560,19,Woman,Right,,,,,,,,,,,,,,,,,560,19,Woman,Right,
3,2,1.0,180,0,0,0.6849105999999665,['y'],0.8753818000000138,1.8940000000000001,,,,,,,,560,19,Woman,Right,,,,,,,,,,,,,,,,,560,19,Woman,Right,
3,2,1.0,180,0,180,2.866378199999872,['y'],0.6742598999999245,1.236,,,,,,,,560,19,Woman,Right,,,,,,,,,,,,,,,,,560,19,Woman,Right,
3,2,1.0,180,0,0,0.4717262999997729,['y'],0.3048435000000609,1.8860000000000001,9,9,10,10,0.9,0.9,,560,19,Woman,Right,,,,,,,,,,,,,,,,,560,19,Woman,Right,
4,2,0.15,0,180,180,1.588424799999757,['y'],1.6191083000003346,1.506,,,,,,,,560,19,Woman,Right,,,,,,,,,,,,,,,,,560,19,Woman,Right,
4,2,0.4,0,180,180,0.6914147000002231,['y'],0.5112312000001111,1.482,,,,,,,,560,19,Woman,Right,,,,,,,,,,,,,,,,,560,19,Woman,Right,
4,2,0.15,0,180,180,0.7342327000001205,['y'],0.3124140999998417,1.504,,,,,,,,560,19,Woman,Right,,,,,,,,,,,,,,,,,560,19,Woman,Right,
4,2,0.15,180,0,0,0.7025632999998379,['y'],0.8590530999999828,1.514,,,,,,,,560,19,Woman,Right,,,,,,,,,,,,,,,,,560,19,Woman,Right,
4,2,0.4,0,180,180,0.49524719999999434,['y'],0.7741344999999455,1.504,,,,,,,,560,19,Woman,Right,,,,,,,,,,,,,,,,,560,19,Woman,Right,
4,2,0.15,0,180,180,2.4547159000003376,['y'],0.9201938000001064,1.508,,,,,,,,560,19,Woman,Right,,,,,,,,,,,,,,,,,560,19,Woman,Right,
4,2,0.4,180,0,0,3.92220559999987,['y'],0.7543169999999009,1.496,,,,,,,,560,19,Woman,Right,,,,,,,,,,,,,,,,,560,19,Woman,Right,
4,2,0.15,0,180,180,0.5397656999998617,['y'],0.7099502000000939,1.498,,,,,,,,560,19,Woman,Right,,,,,,,,,,,,,,,,,560,19,Woman,Right,
4,2,0.15,0,180,0,1.0780712000000676,['y'],0.7231811999999991,1.496,,,,,,,,560,19,Woman,Right,,,,,,,,,,,,,,,,,560,19,Woman,Right,
4,2,0.15,0,180,180,0.839171499999793,['y'],0.6630832000000737,1.492,9,3,10,3,0.9,1.0,,560,19,Woman,Right,,,,,,,,,,,,,,,,,560,19,Woman,Right,
5,3,1.0,0,-,0,0.9350882000003367,['y'],1.0072085000001607,1.51,,,,,,,,560,19,Woman,Right,,,,,,,,,,,,,,,,,560,19,Woman,Right,
5,3,0.15,180,-,180,3.365363299999899,['n'],0.3653586999998879,1.498,,,,,,,,560,19,Woman,Right,,,,,,,,,,,,,,,,,560,19,Woman,Right,
5,3,0.15,0,-,180,3.263937799999894,['n'],0.37490980000029595,1.506,,,,,,,,560,19,Woman,Right,,,,,,,,,,,,,,,,,560,19,Woman,Right,
5,3,1.0,0,180,180,0.7791035999998712,['y'],0.3979874999999993,1.57,,,,,,,,560,19,Woman,Right,,,,,,,,,,,,,,,,,560,19,Woman,Right,
5,3,0.4,180,-,0,1.8751617999996597,['y'],0.29909219999990455,1.49,,,,,,,,560,19,Woman,Right,,,,,,,,,,,,,,,,,560,19,Woman,Right,
5,3,0.4,180,0,0,2.073745200000303,['y'],0.6353611999998066,1.494,,,,,,,,560,19,Woman,Right,,,,,,,,,,,,,,,,,560,19,Woman,Right,
5,3,0.15,180,0,0,1.6922641999999541,['n'],0.3346222000000125,1.49,,,,,,,,560,19,Woman,Right,,,,,,,,,,,,,,,,,560,19,Woman,Right,
5,3,0.15,180,-,180,1.4512695000003077,['n'],0.655733500000224,1.494,,,,,,,,560,19,Woman,Right,,,,,,,,,,,,,,,,,560,19,Woman,Right,
5,3,0.15,180,-,0,0.5195896999998695,['y'],3.7458600999998453,1.494,,,,,,,,560,19,Woman,Right,,,,,,,,,,,,,,,,,560,19,Woman,Right,
5,3,0.4,180,-,180,0.8990091999999095,['n'],0.30446729999994204,1.498,7,4,10,5,0.7,0.8,,560,19,Woman,Right,,,,,,,,,,,,,,,,,560,19,Woman,Right,
,,,,,,,,,,,,,,,,5.100000180391362e-06,560,19,Woman,Right,,,,,,,,,,,,,,,,,560,19,Woman,Right,
,,,,,,,,,,,,,,,,,560,19,Woman,Right,0,51,0.15,2,180,0,180,0.609799099999691,['n'],4.723117200000161,1.3479999999999999,364.78429689999984,,,,,560,19,Woman,Right,
,,,,,,,,,,,,,,,,,560,19,Woman,Right,0,35,0.4,2,180,0,180,1.7903831999997237,['y'],1.1556868000002396,1.496,372.1509774000001,,,,,560,19,Woman,Right,
,,,,,,,,,,,,,,,,,560,19,Woman,Right,0,58,0.15,1,180,-,0,4.8170336999996834,['n'],1.263685500000065,1.254,382.4010493999999,,,,,560,19,Woman,Right,
,,,,,,,,,,,,,,,,,560,19,Woman,Right,0,8,0.4,1,0,-,180,2.9769483000000037,['y'],1.750487400000111,1.492,390.5676104999998,,,,,560,19,Woman,Right,
,,,,,,,,,,,,,,,,,560,19,Woman,Right,0,29,0.4,2,0,180,0,6.5795954000000165,['y'],0.21562730000005104,1.278,401.36768299999994,,,,,560,19,Woman,Right,
,,,,,,,,,,,,,,,,,560,19,Woman,Right,0,31,0.4,2,180,0,0,2.276246099999753,['y'],1.4645267000000786,1.616,408.8346327999998,,,,,560,19,Woman,Right,
,,,,,,,,,,,,,,,,,560,19,Woman,Right,0,66,0.15,1,180,-,180,2.1979723999997987,['y'],0.9213714000002255,1.3559999999999999,417.5510039999999,,,,,560,19,Woman,Right,
,,,,,,,,,,,,,,,,,560,19,Woman,Right,0,55,0.15,2,180,0,180,2.396917399999893,['n'],1.1063031999997293,1.496,425.0844108000001,,,,,560,19,Woman,Right,
,,,,,,,,,,,,,,,,,560,19,Woman,Right,0,43,0.4,2,180,0,0,0.9300163999996585,['y'],1.3394775000001573,1.596,430.88442269999996,,,,,560,19,Woman,Right,
,,,,,,,,,,,,,,,,,560,19,Woman,Right,0,61,0.15,2,0,180,180,2.8841860999996243,['n'],1.1546582000000853,1.504,440.10101459999987,,,,,560,19,Woman,Right,
,,,,,,,,,,,,,,,,,560,19,Woman,Right,0,0,1,1,0,-,0,1.5114306000000397,['y'],1.1248614999999518,1.506,446.68469430000005,,,,,560,19,Woman,Right,
,,,,,,,,,,,,,,,,,560,19,Woman,Right,0,74,0.15,1,180,-,0,1.9896485999997822,['n'],1.1899437000001853,1.494,452.86775350000016,,,,,560,19,Woman,Right,
,,,,,,,,,,,,,,,,,560,19,Woman,Right,0,65,0.15,2,0,180,180,0.8897579999998015,['y'],1.2224648999999772,1.492,458.31804009999996,,,,,560,19,Woman,Right,
,,,,,,,,,,,,,,,,,560,19,Woman,Right,0,67,0.15,2,180,0,0,1.1548625000000357,['n'],1.0071898999999576,1.502,464.8179679,,,,,560,19,Woman,Right,
,,,,,,,,,,,,,,,,,560,19,Woman,Right,0,54,0.15,1,180,-,0,1.219695899999806,['n'],1.0719961999998304,1.498,470.3677275,,,,,560,19,Woman,Right,
,,,,,,,,,,,,,,,,,560,19,Woman,Right,0,26,0.4,1,180,-,0,0.6670161000001826,['n'],1.392848999999842,1.49,475.33453929999996,,,,,560,19,Woman,Right,
,,,,,,,,,,,,,,,,,560,19,Woman,Right,0,13,0.4,2,0,180,180,0.7995122000002084,['y'],1.0494694999997591,1.7,481.1844737000001,,,,,560,19,Woman,Right,
,,,,,,,,,,,,,,,,,560,19,Woman,Right,0,42,0.4,1,180,-,180,2.1502494000001207,['n'],1.1289680999998382,1.512,487.4678386999999,,,,,560,19,Woman,Right,
,,,,,,,,,,,,,,,,,560,19,Woman,Right,0,50,0.15,1,180,-,180,1.7348790999999437,['n'],0.6669409000000996,1.492,493.1846233000001,,,,,560,19,Woman,Right,
,,,,,,,,,,,,,,,,,560,19,Woman,Right,0,17,0.4,2,0,180,180,0.550034300000334,['y'],1.1120482999999695,1.494,498.31782870000006,,,,,560,19,Woman,Right,
,,,,,,,,,,,,,,,,,560,19,Woman,Right,0,4,1,1,0,-,180,0.6219452000000274,['y'],0.9724022999998851,1.496,503.3011797999998,,,,,560,19,Woman,Right,
,,,,,,,,,,,,,,,,,560,19,Woman,Right,0,23,0.4,2,180,0,0,0.5471919000001435,['y'],1.0206229000000349,1.508,507.55108740000014,,,,,560,19,Woman,Right,
,,,,,,,,,,,,,,,,,560,19,Woman,Right,0,56,0.15,1,0,-,180,1.4236237000000074,['n'],0.9095349999997779,1.504,513.5681079999999,,,,,560,19,Woman,Right,
,,,,,,,,,,,,,,,,,560,19,Woman,Right,0,59,0.15,2,180,0,0,0.9029276999999638,['y'],0.5423135999999431,1.49,522.4682106999999,,,,,560,19,Woman,Right,
,,,,,,,,,,,,,,,,,560,19,Woman,Right,0,12,0.4,1,0,-,0,0.8182507999999871,['y'],1.4876361999999972,1.51,527.7512284,,,,,560,19,Woman,Right,
,,,,,,,,,,,,,,,,,560,19,Woman,Right,0,27,0.4,2,180,0,0,0.43727949999993143,['y'],0.9837342000000717,1.51,535.2012842999998,,,,,560,19,Woman,Right,
,,,,,,,,,,,,,,,,,560,19,Woman,Right,0,78,0.15,1,180,-,0,0.4221591999998964,['y'],0.9530798999999206,1.51,539.6348302000001,,,,,560,19,Woman,Right,
,,,,,,,,,,,,,,,,,560,19,Woman,Right,0,46,0.15,1,180,-,0,1.0441655999998147,['n'],0.9294742999995833,1.478,544.8849914000002,,,,,560,19,Woman,Right,
,,,,,,,,,,,,,,,,,560,19,Woman,Right,0,11,0.4,2,180,0,0,0.6782609000001685,['y'],0.9220809000003101,1.512,549.4681045000002,,,,,560,19,Woman,Right,
,,,,,,,,,,,,,,,,,560,19,Woman,Right,0,24,0.4,1,0,-,180,1.8418093999998746,['n'],0.8350015000000894,1.49,555.4512924,,,,,560,19,Woman,Right,
,,,,,,,,,,,,,,,,,560,19,Woman,Right,0,9,0.4,2,0,180,180,0.46400180000000546,['y'],1.156508600000052,1.56,561.0680846,,,,,560,19,Woman,Right,
,,,,,,,,,,,,,,,,,560,19,Woman,Right,0,62,0.15,1,180,-,0,0.4192595999998048,['n'],1.1557869000002938,1.27,567.9846590000002,,,,,560,19,Woman,Right,
,,,,,,,,,,,,,,,,,560,19,Woman,Right,0,38,0.4,1,180,-,0,0.5155217000001358,['n'],1.3570608999998512,1.416,573.484606,,,,,560,19,Woman,Right,
,,,,,,,,,,,,,,,,,560,19,Woman,Right,0,63,0.15,2,180,0,0,0.5279759000000013,['n'],3.4298862999999074,1.484,580.7680068,,,,,560,19,Woman,Right,
,,,,,,,,,,,,,,,,,560,19,Woman,Right,0,76,0.15,1,0,-,0,1.3294419000003472,['n'],1.0864497000002302,1.508,586.0346936000001,,,,,560,19,Woman,Right,
,,,,,,,,,,,,,,,,,560,19,Woman,Right,0,72,0.15,1,0,-,180,1.438550899999882,['n'],1.3587678000003507,1.486,591.3513797999999,,,,,560,19,Woman,Right,
,,,,,,,,,,,,,,,,,560,19,Woman,Right,0,1,1,2,0,180,180,0.8852343999997174,['y'],1.6239276000001155,1.548,598.3678917000002,,,,,560,19,Woman,Right,
,,,,,,,,,,,,,,,,,560,19,Woman,Right,0,57,0.15,2,0,180,180,0.4494187000000238,['y'],1.1287812999999005,1.596,603.9184734999999,,,,,560,19,Woman,Right,
,,,,,,,,,,,,,,,,,560,19,Woman,Right,0,2,1,1,180,-,0,0.34075780000011946,['y'],1.7052823000003627,1.53,609.1680550000001,,,,,560,19,Woman,Right,
,,,,,,,,,,,,,,,,,560,19,Woman,Right,0,21,0.4,2,0,180,180,0.40043999999988955,['y'],0.9942307999999684,1.5779999999999998,613.6850718999999,,,,,560,19,Woman,Right,
,,,,,,,,,,,,,,,,,560,19,Woman,Right,0,49,0.15,2,0,180,180,0.8153010000000904,['n'],2.3789615000000595,1.6059999999999999,620.6681076999998,,,,,560,19,Woman,Right,
,,,,,,,,,,,,,,,,,560,19,Woman,Right,0,41,0.4,2,0,180,180,0.4174249000002419,['y'],0.8673366999996688,1.756,624.9013954000002,,,,,560,19,Woman,Right,
,,,,,,,,,,,,,,,,,560,19,Woman,Right,0,39,0.4,2,180,0,0,0.4717472999996062,['y'],2.124225099999876,1.676,630.68482,,,,,560,19,Woman,Right,
,,,,,,,,,,,,,,,,,560,19,Woman,Right,0,19,0.4,2,180,0,0,0.3029409000000669,['y'],1.0922698000003948,1.634,635.1514229,,,,,560,19,Woman,Right,
,,,,,,,,,,,,,,,,,560,19,Woman,Right,0,34,0.4,1,180,-,180,1.2901331000002756,['n'],1.0372188999999707,1.65,640.9680850999998,,,,,560,19,Woman,Right,
,,,,,,,,,,,,,,,,,560,19,Woman,Right,0,7,1,2,180,0,0,0.6445481999999174,['y'],1.4059147000002667,1.762,645.9847921,,,,,560,19,Woman,Right,
,,,,,,,,,,,,,,,,,560,19,Woman,Right,0,64,0.15,1,0,-,180,0.777868799999851,['n'],1.0785257000002275,1.692,653.8014351000002,,,,,560,19,Woman,Right,
,,,,,,,,,,,,,,,,,560,19,Woman,Right,0,10,0.4,1,180,-,0,0.36447499999985666,['n'],1.0877017000002525,1.638,658.0847561,,,,,560,19,Woman,Right,
,,,,,,,,,,,,,,,,,560,19,Woman,Right,0,18,0.4,1,180,-,0,0.4751519000001281,['n'],1.0079783999999563,1.662,662.7680998000001,,,,,560,19,Woman,Right,
,,,,,,,,,,,,,,,,,560,19,Woman,Right,0,30,0.4,1,180,-,0,0.5003088000003117,['n'],0.9250882999999703,1.62,667.4348024000001,,,,,560,19,Woman,Right,
,,,,,,,,,,,,,,,,,560,19,Woman,Right,0,6,1,1,180,-,180,1.2139406000001145,['y'],0.977455899999768,1.67,672.3513764999998,,,,,560,19,Woman,Right,
,,,,,,,,,,,,,,,,,560,19,Woman,Right,0,33,0.4,2,0,180,180,1.0339387000003626,['y'],0.792624700000033,1.5899999999999999,676.9347994,,,,,560,19,Woman,Right,
,,,,,,,,,,,,,,,,,560,19,Woman,Right,0,70,0.15,1,180,-,180,0.8126808999995774,['n'],0.9061768000001393,1.6219999999999999,681.5680974000002,,,,,560,19,Woman,Right,
,,,,,,,,,,,,,,,,,560,19,Woman,Right,0,75,0.15,2,180,0,0,0.6459159000000909,['n'],0.7228729999997086,1.584,686.0351151999998,,,,,560,19,Woman,Right,
,,,,,,,,,,,,,,,,,560,19,Woman,Right,0,15,0.4,2,180,0,0,0.7427530000004481,['n'],0.9553836999998566,1.696,690.3515394000001,,,,,560,19,Woman,Right,
,,,,,,,,,,,,,,,,,560,19,Woman,Right,0,25,0.4,2,0,180,180,0.41542559999970763,['y'],0.7399049000000559,1.564,694.3183218999998,,,,,560,19,Woman,Right,
,,,,,,,,,,,,,,,,,560,19,Woman,Right,0,45,0.15,2,0,180,180,0.6147627000000284,['n'],0.7243165999998382,1.592,698.5848968,,,,,560,19,Woman,Right,
,,,,,,,,,,,,,,,,,560,19,Woman,Right,0,28,0.4,1,0,-,0,0.6010188000000198,['y'],1.7247376999998778,1.568,703.7015620000002,,,,,560,19,Woman,Right,
,,,,,,,,,,,,,,,,,560,19,Woman,Right,0,32,0.4,1,0,-,0,0.4790170000001126,['y'],2.510163100000227,1.642,709.2017781999998,,,,,560,19,Woman,Right,
,,,,,,,,,,,,,,,,,560,19,Woman,Right,0,44,0.15,1,0,-,0,0.44318639999983134,['n'],0.9984235000001718,1.57,713.9181893,,,,,560,19,Woman,Right,
,,,,,,,,,,,,,,,,,560,19,Woman,Right,0,3,1,2,180,0,0,0.5232735999998113,['y'],0.9030214999997952,1.566,718.5186782999999,,,,,560,19,Woman,Right,
,,,,,,,,,,,,,,,,,560,19,Woman,Right,0,36,0.4,1,0,-,0,2.489899599999717,['y'],0.720190200000161,1.5979999999999999,725.2682255,,,,,560,19,Woman,Right,
,,,,,,,,,,,,,,,,,560,19,Woman,Right,0,79,0.15,2,180,0,0,0.7722921999998107,['n'],1.0967968999998448,1.554,734.9850716000001,,,,,560,19,Woman,Right,
,,,,,,,,,,,,,,,,,560,19,Woman,Right,0,77,0.15,2,0,180,180,0.5034208000001854,['n'],1.1217319999996107,1.6440000000000001,741.0851363000002,,,,,560,19,Woman,Right,
,,,,,,,,,,,,,,,,,560,19,Woman,Right,0,37,0.4,2,0,180,180,0.41779429999996864,['y'],0.778876500000024,1.6179999999999999,745.3191569999999,,,,,560,19,Woman,Right,
,,,,,,,,,,,,,,,,,560,19,Woman,Right,0,73,0.15,2,0,180,180,0.6868027999998958,['n'],0.7712375999999495,1.5939999999999999,749.5681304,,,,,560,19,Woman,Right,
,,,,,,,,,,,,,,,,,560,19,Woman,Right,0,60,0.15,1,0,-,180,1.1305167000000438,['n'],1.5394604999996773,1.566,755.1515039999999,,,,,560,19,Woman,Right,
,,,,,,,,,,,,,,,,,560,19,Woman,Right,0,71,0.15,2,180,0,0,0.7849148000000241,['y'],1.1080574000002343,1.388,761.1182313999998,,,,,560,19,Woman,Right,
,,,,,,,,,,,,,,,,,560,19,Woman,Right,0,20,0.4,1,0,-,180,0.28319580000015776,['y'],1.461033999999927,1.5939999999999999,766.0849588000001,,,,,560,19,Woman,Right,
,,,,,,,,,,,,,,,,,560,19,Woman,Right,0,16,0.4,1,0,-,180,0.8247407999997449,['y'],1.205463299999792,1.5939999999999999,771.4016029,,,,,560,19,Woman,Right,
,,,,,,,,,,,,,,,,,560,19,Woman,Right,0,53,0.15,2,0,180,0,0.3771585999998024,['n'],1.462079999999787,1.56,776.0349486,,,,,560,19,Woman,Right,
,,,,,,,,,,,,,,,,,560,19,Woman,Right,0,5,1,2,0,180,180,0.3961858000002394,['y'],1.1186384999996335,1.6,780.9185287,,,,,560,19,Woman,Right,
,,,,,,,,,,,,,,,,,560,19,Woman,Right,0,47,0.15,2,180,0,180,1.8045062999999573,['n'],0.9834748000002946,1.566,786.4684215000002,,,,,560,19,Woman,Right,
,,,,,,,,,,,,,,,,,560,19,Woman,Right,0,48,0.15,1,0,-,0,0.7842636000000311,['n'],1.272075699999732,1.5779999999999998,791.2516859000002,,,,,560,19,Woman,Right,
,,,,,,,,,,,,,,,,,560,19,Woman,Right,0,52,0.15,1,0,-,0,0.9257351000001108,['n'],0.9606469000000288,1.6099999999999999,795.7016487999999,,,,,560,19,Woman,Right,
,,,,,,,,,,,,,,,,,560,19,Woman,Right,0,40,0.4,1,0,-,180,0.8725165000000743,['y'],1.113124599999992,1.6059999999999999,800.5683202999999,,,,,560,19,Woman,Right,
,,,,,,,,,,,,,,,,,560,19,Woman,Right,0,69,0.15,2,0,180,180,1.9131150999996862,['y'],0.9221287999998822,1.212,806.2186167999998,,,,,560,19,Woman,Right,
,,,,,,,,,,,,,,,,,560,19,Woman,Right,0,22,0.4,1,180,-,0,0.37763790000008157,['n'],1.2820356000001993,1.432,811.5183157000001,,,,,560,19,Woman,Right,
,,,,,,,,,,,,,,,,,560,19,Woman,Right,0,14,0.4,1,180,-,180,1.4460478000000876,['n'],2.0028207999998813,1.318,818.0016703000001,,,,,560,19,Woman,Right,
,,,,,,,,,,,,,,,,,560,19,Woman,Right,0,68,0.15,1,0,-,0,0.7741995000001225,['n'],5.588731899999857,1.42,827.9525653999999,,,,,560,19,Woman,Right,
,,,,,,,,,,,,,,,,,560,19,Woman,Right,1,55,0.15,2,180,0,0,0.9588952999997673,['n'],1.1938780000000406,1.6600000000000001,875.735138,63.75,65.0,65.0,,560,19,Woman,Right,
,,,,,,,,,,,,,,,,,560,19,Woman,Right,1,40,0.4,1,0,-,0,0.6688163000003442,['n'],0.8912193000001025,1.592,879.9184338,,,,,560,19,Woman,Right,
,,,,,,,,,,,,,,,,,560,19,Woman,Right,1,62,0.15,1,180,-,180,0.44894909999993615,['n'],0.9958609000000251,1.566,883.9354748000001,,,,,560,19,Woman,Right,
,,,,,,,,,,,,,,,,,560,19,Woman,Right,1,25,0.4,2,0,180,180,0.3985645000002478,['y'],0.8759547999998176,1.6019999999999999,887.7516661,,,,,560,19,Woman,Right,
,,,,,,,,,,,,,,,,,560,19,Woman,Right,1,60,0.15,1,0,-,0,0.3884484000000157,['n'],1.2531710999996903,1.564,891.8185199,,,,,560,19,Woman,Right,
,,,,,,,,,,,,,,,,,560,19,Woman,Right,1,46,0.15,1,180,-,0,0.5699516999998195,['n'],0.909587399999964,1.616,895.785355,,,,,560,19,Woman,Right,
,,,,,,,,,,,,,,,,,560,19,Woman,Right,1,56,0.15,1,0,-,0,0.325180299999829,['n'],0.8453527000001486,1.5779999999999998,899.468492,,,,,560,19,Woman,Right,
,,,,,,,,,,,,,,,,,560,19,Woman,Right,1,9,0.4,2,0,180,180,0.22705150000001595,['y'],0.9740719000001263,1.596,903.2185914000002,,,,,560,19,Woman,Right,
,,,,,,,,,,,,,,,,,560,19,Woman,Right,1,48,0.15,1,0,-,180,0.9670507999999245,['n'],1.8166406999998799,1.5739999999999998,908.5684892999998,,,,,560,19,Woman,Right,
,,,,,,,,,,,,,,,,,560,19,Woman,Right,1,32,0.4,1,0,-,180,0.27172079999991183,['y'],1.655175799999597,1.572,912.9684406000001,,,,,560,19,Woman,Right,
,,,,,,,,,,,,,,,,,560,19,Woman,Right,1,5,1,2,0,180,180,0.3667244000002938,['y'],0.6745193000001564,1.612,916.6018491,,,,,560,19,Woman,Right,
,,,,,,,,,,,,,,,,,560,19,Woman,Right,1,74,0.15,1,180,-,0,1.074679300000298,['y'],0.8884059000001798,1.568,920.9351056999999,,,,,560,19,Woman,Right,
,,,,,,,,,,,,,,,,,560,19,Woman,Right,1,77,0.15,2,0,180,180,0.5500102000000879,['n'],0.9451476999997794,1.6019999999999999,924.9518483000002,,,,,560,19,Woman,Right,
,,,,,,,,,,,,,,,,,560,19,Woman,Right,1,69,0.15,2,0,180,0,1.1034383000001071,['n'],0.969779600000038,1.5779999999999998,929.5518418000001,,,,,560,19,Woman,Right,
,,,,,,,,,,,,,,,,,560,19,Woman,Right,1,73,0.15,2,0,180,180,0.5156962000000931,['n'],0.9776425000000017,1.5939999999999999,933.6185568000001,,,,,560,19,Woman,Right,
,,,,,,,,,,,,,,,,,560,19,Woman,Right,1,11,0.4,2,180,0,0,0.325535100000252,['y'],0.8818248000002313,1.572,937.5855096999999,,,,,560,19,Woman,Right,
,,,,,,,,,,,,,,,,,560,19,Woman,Right,1,78,0.15,1,180,-,0,0.3512319000001298,['n'],0.8669596999998248,1.552,941.2519557999999,,,,,560,19,Woman,Right,
,,,,,,,,,,,,,,,,,560,19,Woman,Right,1,41,0.4,2,0,180,0,1.6674800999999206,['n'],0.9234376999997949,1.58,946.4522941,,,,,560,19,Woman,Right,
,,,,,,,,,,,,,,,,,560,19,Woman,Right,1,67,0.15,2,180,0,180,2.259868000000097,['n'],1.1486598000001322,1.416,952.8518801999999,,,,,560,19,Woman,Right,
,,,,,,,,,,,,,,,,,560,19,Woman,Right,1,20,0.4,1,0,-,180,0.49359980000008363,['n'],2.6129235000003064,1.418,958.6852339000002,,,,,560,19,Woman,Right,
,,,,,,,,,,,,,,,,,560,19,Woman,Right,1,22,0.4,1,180,-,180,0.47344490000023143,['y'],0.8135070000002997,1.5899999999999999,962.6185942000002,,,,,560,19,Woman,Right,
,,,,,,,,,,,,,,,,,560,19,Woman,Right,1,47,0.15,2,180,0,0,0.3887877000001936,['n'],0.9418094999996356,1.55,966.3361485,,,,,560,19,Woman,Right,
,,,,,,,,,,,,,,,,,560,19,Woman,Right,1,79,0.15,2,180,0,0,1.4800852999997005,['n'],1.14188490000015,1.5779999999999998,971.6519592999998,,,,,560,19,Woman,Right,
,,,,,,,,,,,,,,,,,560,19,Woman,Right,1,64,0.15,1,0,-,0,0.48563430000012886,['n'],0.9193270000000666,1.596,978.1022478999998,,,,,560,19,Woman,Right,
,,,,,,,,,,,,,,,,,560,19,Woman,Right,1,4,1,1,0,-,180,0.3512575999998262,['y'],2.184128200000032,1.674,983.1019319000002,,,,,560,19,Woman,Right,
,,,,,,,,,,,,,,,,,560,19,Woman,Right,1,14,0.4,1,180,-,0,0.4192251999998007,['y'],0.968783600000279,1.572,986.9019383,,,,,560,19,Woman,Right,
,,,,,,,,,,,,,,,,,560,19,Woman,Right,1,43,0.4,2,180,0,0,0.3630631999999423,['y'],3.681468700000096,1.566,995.1187160999998,,,,,560,19,Woman,Right,
,,,,,,,,,,,,,,,,,560,19,Woman,Right,1,68,0.15,1,0,-,180,0.6893581999997878,['y'],5.922616500000004,1.6019999999999999,1005.6020125,,,,,560,19,Woman,Right,
,,,,,,,,,,,,,,,,,560,19,Woman,Right,1,42,0.4,1,180,-,0,0.5742371000001185,['y'],1.1958918999998787,1.53,1009.8519603,,,,,560,19,Woman,Right,
,,,,,,,,,,,,,,,,,560,19,Woman,Right,1,24,0.4,1,0,-,180,1.0113561000002846,['y'],1.0360812000003534,1.528,1014.3520161000001,,,,,560,19,Woman,Right,
,,,,,,,,,,,,,,,,,560,19,Woman,Right,1,37,0.4,2,0,180,180,0.3444868999999926,['y'],0.7243416000001162,1.554,1017.8189293,,,,,560,19,Woman,Right,
,,,,,,,,,,,,,,,,,560,19,Woman,Right,1,13,0.4,2,0,180,0,1.5413753000002544,['y'],2.0609810999999354,1.366,1023.8686797999999,,,,,560,19,Woman,Right,
,,,,,,,,,,,,,,,,,560,19,Woman,Right,1,63,0.15,2,180,0,180,1.033623599999828,['n'],0.9966564999999719,1.518,1028.4521897999998,,,,,560,19,Woman,Right,
,,,,,,,,,,,,,,,,,560,19,Woman,Right,1,53,0.15,2,0,180,180,1.1658090000000811,['n'],2.398574499999995,1.494,1034.5020917000002,,,,,560,19,Woman,Right,
,,,,,,,,,,,,,,,,,560,19,Woman,Right,1,70,0.15,1,180,-,0,0.805272199999763,['n'],1.1190764000002673,1.498,1039.5354226,,,,,560,19,Woman,Right,
,,,,,,,,,,,,,,,,,560,19,Woman,Right,1,58,0.15,1,180,-,0,0.47761350000018865,['n'],1.0954486999999062,1.494,1044.5689969999999,,,,,560,19,Woman,Right,
,,,,,,,,,,,,,,,,,560,19,Woman,Right,1,33,0.4,2,0,180,180,0.3150477999997747,['y'],0.8725807000000714,1.544,1048.7019556,,,,,560,19,Woman,Right,
,,,,,,,,,,,,,,,,,560,19,Woman,Right,1,52,0.15,1,0,-,0,0.4558028999999806,['n'],0.9688307999999779,1.534,1052.6520650000002,,,,,560,19,Woman,Right,
,,,,,,,,,,,,,,,,,560,19,Woman,Right,1,0,1,1,0,-,0,1.5720300999996653,['n'],3.3216231999999764,1.556,1060.3853588000002,,,,,560,19,Woman,Right,
,,,,,,,,,,,,,,,,,560,19,Woman,Right,1,75,0.15,2,180,0,0,0.5198467999998684,['n'],0.9541978000002018,1.552,1065.0853618,,,,,560,19,Woman,Right,
,,,,,,,,,,,,,,,,,560,19,Woman,Right,1,7,1,2,180,0,0,1.4907610000000204,['y'],0.9386184999998477,1.658,1070.6520572,,,,,560,19,Woman,Right,
,,,,,,,,,,,,,,,,,560,19,Woman,Right,1,21,0.4,2,0,180,180,0.2838281999997889,['y'],1.5159298000003218,1.62,1074.8522595999998,,,,,560,19,Woman,Right,
,,,,,,,,,,,,,,,,,560,19,Woman,Right,1,65,0.15,2,0,180,180,1.0672082000000955,['n'],1.0938492000000224,1.566,1079.4686705,,,,,560,19,Woman,Right,
,,,,,,,,,,,,,,,,,560,19,Woman,Right,1,31,0.4,2,180,0,0,1.216224300000249,['y'],0.7885923000003459,1.566,1084.0523659,,,,,560,19,Woman,Right,
,,,,,,,,,,,,,,,,,560,19,Woman,Right,1,27,0.4,2,180,0,0,1.0335744999997587,['n'],0.9426191000002291,1.556,1088.3690809999998,,,,,560,19,Woman,Right,
,,,,,,,,,,,,,,,,,560,19,Woman,Right,1,76,0.15,1,0,-,180,0.7758726000001843,['n'],1.164971499999865,1.5779999999999998,1092.7687342999998,,,,,560,19,Woman,Right,
,,,,,,,,,,,,,,,,,560,19,Woman,Right,1,10,0.4,1,180,-,0,1.118173299999853,['y'],0.7180582999999388,1.562,1096.9854151,,,,,560,19,Woman,Right,
,,,,,,,,,,,,,,,,,560,19,Woman,Right,1,71,0.15,2,180,0,0,0.40729200000032506,['n'],0.9824541000002682,1.612,1100.7521093999999,,,,,560,19,Woman,Right,
,,,,,,,,,,,,,,,,,560,19,Woman,Right,1,19,0.4,2,180,0,0,0.68803379999963,['y'],0.686908399999993,1.534,1104.4021707000002,,,,,560,19,Woman,Right,
,,,,,,,,,,,,,,,,,560,19,Woman,Right,1,51,0.15,2,180,0,180,0.331320599999799,['n'],0.895295299999816,1.5739999999999998,1108.0688485,,,,,560,19,Woman,Right,
,,,,,,,,,,,,,,,,,560,19,Woman,Right,1,38,0.4,1,180,-,0,0.8200904999998784,['y'],0.2071734999999535,1.6280000000000001,1111.6021805999999,,,,,560,19,Woman,Right,
,,,,,,,,,,,,,,,,,560,19,Woman,Right,1,1,1,2,0,180,180,0.5325267999996868,['y'],0.6727685999999267,1.554,1115.1856515999998,,,,,560,19,Woman,Right,
,,,,,,,,,,,,,,,,,560,19,Woman,Right,1,18,0.4,1,180,-,0,0.6630325999999513,['n'],1.0895463000001655,1.566,1119.3856546000002,,,,,560,19,Woman,Right,
,,,,,,,,,,,,,,,,,560,19,Woman,Right,1,61,0.15,2,0,180,180,0.48730730000033873,['n'],1.8094301999999516,1.466,1124.4020686,,,,,560,19,Woman,Right,
,,,,,,,,,,,,,,,,,560,19,Woman,Right,1,36,0.4,1,0,-,0,0.332839199999853,['n'],0.9142292999999881,1.698,1128.4854696000002,,,,,560,19,Woman,Right,
,,,,,,,,,,,,,,,,,560,19,Woman,Right,1,72,0.15,1,0,-,180,0.569595500000105,['n'],0.9949641000002885,1.536,1133.5687975,,,,,560,19,Woman,Right,
,,,,,,,,,,,,,,,,,560,19,Woman,Right,1,45,0.15,2,0,180,180,0.6845272000000477,['n'],1.2993132999999943,1.528,1137.9526055000001,,,,,560,19,Woman,Right,
,,,,,,,,,,,,,,,,,560,19,Woman,Right,1,34,0.4,1,180,-,0,0.42355399999996735,['n'],1.1315630999997666,1.616,1141.9020927000001,,,,,560,19,Woman,Right,
,,,,,,,,,,,,,,,,,560,19,Woman,Right,1,16,0.4,1,0,-,180,0.6318172000001141,['n'],1.908493400000225,1.466,1147.6021455999999,,,,,560,19,Woman,Right,
,,,,,,,,,,,,,,,,,560,19,Woman,Right,1,12,0.4,1,0,-,0,0.9426211999998486,['n'],2.1012218000000757,1.6019999999999999,1154.5690484000002,,,,,560,19,Woman,Right,
,,,,,,,,,,,,,,,,,560,19,Woman,Right,1,28,0.4,1,0,-,0,0.9885991999999533,['n'],0.8776214999998047,1.62,1159.1188631,,,,,560,19,Woman,Right,
,,,,,,,,,,,,,,,,,560,19,Woman,Right,1,6,1,1,180,-,0,1.5412833000000319,['y'],0.5661872000000585,1.498,1163.8521814,,,,,560,19,Woman,Right,
,,,,,,,,,,,,,,,,,560,19,Woman,Right,1,17,0.4,2,0,180,180,1.3078591000003144,['y'],1.2314936999996462,1.538,1169.8521818999998,,,,,560,19,Woman,Right,
,,,,,,,,,,,,,,,,,560,19,Woman,Right,1,26,0.4,1,180,-,180,0.41141099999958897,['n'],0.8716169999997874,1.53,1173.8690505,,,,,560,19,Woman,Right,
,,,,,,,,,,,,,,,,,560,19,Woman,Right,1,35,0.4,2,180,0,0,0.4025995000001785,['y'],0.7922522999997454,1.542,1177.7024170999998,,,,,560,19,Woman,Right,
,,,,,,,,,,,,,,,,,560,19,Woman,Right,1,49,0.15,2,0,180,180,0.27222130000018296,['n'],1.8809798000002047,1.538,1182.3855754,,,,,560,19,Woman,Right,
,,,,,,,,,,,,,,,,,560,19,Woman,Right,1,57,0.15,2,0,180,0,0.798728299999766,['n'],0.9932972999999947,1.544,1187.1190384000001,,,,,560,19,Woman,Right,
,,,,,,,,,,,,,,,,,560,19,Woman,Right,1,66,0.15,1,180,-,0,0.3347168000000238,['n'],1.4255984999999782,1.568,1191.5022021,,,,,560,19,Woman,Right,
,,,,,,,,,,,,,,,,,560,19,Woman,Right,1,39,0.4,2,180,0,0,0.98058009999977,['y'],0.9863180000002103,1.566,1195.9354828,,,,,560,19,Woman,Right,
,,,,,,,,,,,,,,,,,560,19,Woman,Right,1,23,0.4,2,180,0,0,0.5604345000001558,['y'],0.7871715999999651,1.536,1199.7189177,,,,,560,19,Woman,Right,
,,,,,,,,,,,,,,,,,560,19,Woman,Right,1,29,0.4,2,0,180,180,1.1607054000000971,['y'],0.7311998000000131,1.536,1204.0358185999999,,,,,560,19,Woman,Right,
,,,,,,,,,,,,,,,,,560,19,Woman,Right,1,50,0.15,1,180,-,0,0.5172071000001779,['n'],0.7556642000004103,1.6,1207.6189204000002,,,,,560,19,Woman,Right,
,,,,,,,,,,,,,,,,,560,19,Woman,Right,1,2,1,1,180,-,0,0.7329918999998881,['y'],0.8204721000001882,1.6600000000000001,1211.5355847,,,,,560,19,Woman,Right,
,,,,,,,,,,,,,,,,,560,19,Woman,Right,1,54,0.15,1,180,-,0,0.4224475999999413,['n'],0.716671199999837,1.58,1215.1856161,,,,,560,19,Woman,Right,
,,,,,,,,,,,,,,,,,560,19,Woman,Right,1,30,0.4,1,180,-,0,0.6463886999999886,['n'],0.9653074999996534,1.508,1219.1522647000002,,,,,560,19,Woman,Right,
,,,,,,,,,,,,,,,,,560,19,Woman,Right,1,3,1,2,180,0,0,0.791064500000175,['y'],1.5979418000001715,1.746,1224.0025882,,,,,560,19,Woman,Right,
,,,,,,,,,,,,,,,,,560,19,Woman,Right,1,44,0.15,1,0,-,0,0.6757255999996232,['n'],0.6147345999997924,1.5779999999999998,1227.9522247,,,,,560,19,Woman,Right,
,,,,,,,,,,,,,,,,,560,19,Woman,Right,1,8,0.4,1,0,-,0,1.9957217999999557,['y'],0.9909330000000409,1.246,1233.4859634999998,,,,,560,19,Woman,Right,
,,,,,,,,,,,,,,,,,560,19,Woman,Right,1,15,0.4,2,180,0,0,1.267150799999854,['y'],1.079660000000331,1.506,1238.8855807999998,,,,,560,19,Woman,Right,
,,,,,,,,,,,,,,,,,560,19,Woman,Right,1,59,0.15,2,180,0,0,0.6013097999998536,['n'],1.4402509999999893,1.508,1244.485592,,,,,560,19,Woman,Right,
,,,,,,,,,,,,,,,,,560,19,Woman,Right,2,52,0.15,1,0,-,180,0.7675546000000395,['n'],0.941683600000033,1.6099999999999999,1289.6524174,58.75,67.5,50.0,,560,19,Woman,Right,
,,,,,,,,,,,,,,,,,560,19,Woman,Right,2,79,0.15,2,180,0,0,0.3412302000001546,['n'],0.518255400000271,1.566,1293.4025742,,,,,560,19,Woman,Right,
,,,,,,,,,,,,,,,,,560,19,Woman,Right,2,21,0.4,2,0,180,180,0.47622390000015,['y'],1.0147102999999333,1.6139999999999999,1297.3193032999998,,,,,560,19,Woman,Right,
,,,,,,,,,,,,,,,,,560,19,Woman,Right,2,78,0.15,1,180,-,0,0.6121262999999999,['n'],1.4401130999999623,1.624,1302.0524300000002,,,,,560,19,Woman,Right,
,,,,,,,,,,,,,,,,,560,19,Woman,Right,2,69,0.15,2,0,180,180,0.3898028999997223,['n'],1.1039013999998133,1.646,1305.9192916000002,,,,,560,19,Woman,Right,
,,,,,,,,,,,,,,,,,560,19,Woman,Right,2,19,0.4,2,180,0,0,0.3555380000002515,['y'],0.6964270000003125,1.57,1309.5027325,,,,,560,19,Woman,Right,
,,,,,,,,,,,,,,,,,560,19,Woman,Right,2,32,0.4,1,0,-,180,0.2982280000001083,['y'],1.7124322999998185,1.576,1313.9194855,,,,,560,19,Woman,Right,
,,,,,,,,,,,,,,,,,560,19,Woman,Right,2,43,0.4,2,180,0,0,1.3774392000000262,['y'],0.6580331000000115,1.528,1318.7190474,,,,,560,19,Woman,Right,
,,,,,,,,,,,,,,,,,560,19,Woman,Right,2,0,1,1,0,-,0,1.1605565999998362,['n'],0.6418438000000606,1.604,1322.9193271,,,,,560,19,Woman,Right,
,,,,,,,,,,,,,,,,,560,19,Woman,Right,2,49,0.15,2,0,180,180,1.424674800000048,['y'],1.0504104000001462,1.552,1327.7690650999998,,,,,560,19,Woman,Right,
,,,,,,,,,,,,,,,,,560,19,Woman,Right,2,17,0.4,2,0,180,180,1.4245974000000388,['y'],0.6910911999998461,1.596,1332.2024529,,,,,560,19,Woman,Right,
,,,,,,,,,,,,,,,,,560,19,Woman,Right,2,65,0.15,2,0,180,0,0.6777974999999969,['n'],0.6675225000003593,1.558,1336.2191238,,,,,560,19,Woman,Right,
,,,,,,,,,,,,,,,,,560,19,Woman,Right,2,29,0.4,2,0,180,180,0.7271029999997154,['y'],0.9801891000001888,1.576,1340.4024505000002,,,,,560,19,Woman,Right,
,,,,,,,,,,,,,,,,,560,19,Woman,Right,2,22,0.4,1,180,-,0,0.5154585999998744,['n'],0.8288764999997511,1.592,1344.3526108,,,,,560,19,Woman,Right,
,,,,,,,,,,,,,,,,,560,19,Woman,Right,2,30,0.4,1,180,-,0,0.5422539999999572,['n'],0.7975180999997065,1.5739999999999998,1348.1192440999998,,,,,560,19,Woman,Right,
,,,,,,,,,,,,,,,,,560,19,Woman,Right,2,55,0.15,2,180,0,0,0.3680119000000559,['n'],0.9972480999999789,1.6,1351.9857860000002,,,,,560,19,Woman,Right,
,,,,,,,,,,,,,,,,,560,19,Woman,Right,2,16,0.4,1,0,-,0,2.743660699999964,['y'],0.494199799999933,1.164,1358.1191361,,,,,560,19,Woman,Right,
,,,,,,,,,,,,,,,,,560,19,Woman,Right,2,34,0.4,1,180,-,0,1.2339835999996467,['y'],0.7988160000004427,1.404,1363.4691524999998,,,,,560,19,Woman,Right,
,,,,,,,,,,,,,,,,,560,19,Woman,Right,2,75,0.15,2,180,0,180,0.7485237999999299,['n'],0.8320099000002301,1.676,1371.7360898000002,,,,,560,19,Woman,Right,
,,,,,,,,,,,,,,,,,560,19,Woman,Right,2,28,0.4,1,0,-,0,0.6695426999999654,['n'],0.9450424999999996,1.502,1375.9191205000002,,,,,560,19,Woman,Right,
,,,,,,,,,,,,,,,,,560,19,Woman,Right,2,54,0.15,1,180,-,0,0.28708400000004985,['n'],0.9370522999997775,1.512,1379.969137,,,,,560,19,Woman,Right,
,,,,,,,,,,,,,,,,,560,19,Woman,Right,2,33,0.4,2,0,180,180,0.9706556000001001,['y'],0.833922999999686,1.534,1385.6024628,,,,,560,19,Woman,Right,
,,,,,,,,,,,,,,,,,560,19,Woman,Right,2,25,0.4,2,0,180,180,0.4502990000000864,['n'],0.7659474000001865,1.6099999999999999,1389.3358368,,,,,560,19,Woman,Right,
,,,,,,,,,,,,,,,,,560,19,Woman,Right,2,58,0.15,1,180,-,0,0.5188462999999501,['n'],1.0668126000000484,1.548,1393.5525464000002,,,,,560,19,Woman,Right,
,,,,,,,,,,,,,,,,,560,19,Woman,Right,2,14,0.4,1,180,-,0,0.33340510000016366,['n'],0.9090805999999247,1.558,1397.4694157,,,,,560,19,Woman,Right,
,,,,,,,,,,,,,,,,,560,19,Woman,Right,2,76,0.15,1,0,-,0,0.4840990000002421,['n'],0.8438717999997607,1.514,1401.1194059999998,,,,,560,19,Woman,Right,
,,,,,,,,,,,,,,,,,560,19,Woman,Right,2,66,0.15,1,180,-,0,0.2293838999999025,['n'],0.7883998000002066,1.596,1404.5860779999998,,,,,560,19,Woman,Right,
,,,,,,,,,,,,,,,,,560,19,Woman,Right,2,48,0.15,1,0,-,0,0.3199475999999777,['n'],0.6933045999999194,1.526,1408.2369294,,,,,560,19,Woman,Right,
,,,,,,,,,,,,,,,,,560,19,Woman,Right,2,39,0.4,2,180,0,0,0.26896569999962594,['y'],0.7171161000001121,1.532,1412.0525444999998,,,,,560,19,Woman,Right,
,,,,,,,,,,,,,,,,,560,19,Woman,Right,2,74,0.15,1,180,-,0,0.4784143000001677,['y'],0.9258362999999008,1.522,1415.8361242,,,,,560,19,Woman,Right,
,,,,,,,,,,,,,,,,,560,19,Woman,Right,2,73,0.15,2,0,180,180,0.8504149999998845,['n'],0.869926100000157,1.536,1420.7191837,,,,,560,19,Woman,Right,
,,,,,,,,,,,,,,,,,560,19,Woman,Right,2,41,0.4,2,0,180,180,1.2492984000000433,['y'],0.7185098999998445,1.548,1425.1027319999998,,,,,560,19,Woman,Right,
,,,,,,,,,,,,,,,,,560,19,Woman,Right,2,64,0.15,1,0,-,0,0.401909500000329,['n'],0.9753869999999552,1.3940000000000001,1429.5692217,,,,,560,19,Woman,Right,
,,,,,,,,,,,,,,,,,560,19,Woman,Right,2,35,0.4,2,180,0,0,0.21503329999995913,['y'],0.7517535000001772,1.548,1433.0860665,,,,,560,19,Woman,Right,
,,,,,,,,,,,,,,,,,560,19,Woman,Right,2,7,1,2,180,0,0,0.4583161000000473,['y'],0.6881031000002622,1.638,1437.0528125,,,,,560,19,Woman,Right,
,,,,,,,,,,,,,,,,,560,19,Woman,Right,2,36,0.4,1,0,-,0,0.46922619999986637,['n'],1.3610868999999184,1.562,1442.0692583999999,,,,,560,19,Woman,Right,
,,,,,,,,,,,,,,,,,560,19,Woman,Right,2,62,0.15,1,180,-,0,0.7972399000000223,['n'],0.5378501999998662,1.548,1445.9195042000001,,,,,560,19,Woman,Right,
,,,,,,,,,,,,,,,,,560,19,Woman,Right,2,23,0.4,2,180,0,0,0.33356959999991886,['y'],1.1266128000002027,1.65,1450.0026702,,,,,560,19,Woman,Right,
,,,,,,,,,,,,,,,,,560,19,Woman,Right,2,24,0.4,1,0,-,180,0.47096309999960795,['n'],0.6982052999996995,1.566,1453.6859126999998,,,,,560,19,Woman,Right,
,,,,,,,,,,,,,,,,,560,19,Woman,Right,2,20,0.4,1,0,-,180,0.8000912000002245,['n'],0.7317078999999467,1.5779999999999998,1457.7861781000001,,,,,560,19,Woman,Right,
,,,,,,,,,,,,,,,,,560,19,Woman,Right,2,12,0.4,1,0,-,180,1.8793149000002813,['y'],0.5396722999998929,1.202,1463.585829,,,,,560,19,Woman,Right,
,,,,,,,,,,,,,,,,,560,19,Woman,Right,2,10,0.4,1,180,-,0,0.38872670000000653,['y'],1.6842860000001565,1.374,1468.8358702,,,,,560,19,Woman,Right,
,,,,,,,,,,,,,,,,,560,19,Woman,Right,2,63,0.15,2,180,0,0,0.29918369999995775,['n'],1.1890633000002708,1.6320000000000001,1472.8859894000002,,,,,560,19,Woman,Right,
,,,,,,,,,,,,,,,,,560,19,Woman,Right,2,4,1,1,0,-,180,2.1845487000000503,['y'],0.8210148000002846,1.544,1478.419571,,,,,560,19,Woman,Right,
,,,,,,,,,,,,,,,,,560,19,Woman,Right,2,18,0.4,1,180,-,180,0.9103000999998585,['n'],0.6779149999997571,1.3519999999999999,1482.6362241000002,,,,,560,19,Woman,Right,
,,,,,,,,,,,,,,,,,560,19,Woman,Right,2,56,0.15,1,0,-,0,0.634494999999788,['n'],1.5507853000003706,1.448,1487.2193907,,,,,560,19,Woman,Right,
,,,,,,,,,,,,,,,,,560,19,Woman,Right,2,50,0.15,1,180,-,0,0.3287027000001217,['n'],1.8072422999998707,1.448,1493.1359717,,,,,560,19,Woman,Right,
,,,,,,,,,,,,,,,,,560,19,Woman,Right,2,11,0.4,2,180,0,180,0.6701921999997467,['n'],0.9678278999999748,1.554,1497.4025935,,,,,560,19,Woman,Right,
,,,,,,,,,,,,,,,,,560,19,Woman,Right,2,60,0.15,1,0,-,0,0.4682047999999668,['n'],0.8800144000001637,1.558,1501.2193312,,,,,560,19,Woman,Right,
,,,,,,,,,,,,,,,,,560,19,Woman,Right,2,26,0.4,1,180,-,180,2.013435400000162,['y'],0.3687195000002248,1.564,1506.0193952999998,,,,,560,19,Woman,Right,
,,,,,,,,,,,,,,,,,560,19,Woman,Right,2,6,1,1,180,-,180,1.0339407999999821,['n'],0.8688989000002039,1.4140000000000001,1510.9862650999999,,,,,560,19,Woman,Right,
,,,,,,,,,,,,,,,,,560,19,Woman,Right,2,77,0.15,2,0,180,180,0.28447060000007696,['n'],0.8735389999997096,1.672,1514.6860594,,,,,560,19,Woman,Right,
,,,,,,,,,,,,,,,,,560,19,Woman,Right,2,27,0.4,2,180,0,0,1.0000982999999906,['y'],0.7398008000000118,1.616,1518.8360558999998,,,,,560,19,Woman,Right,
,,,,,,,,,,,,,,,,,560,19,Woman,Right,2,53,0.15,2,0,180,0,0.2825894000002336,['n'],1.1950142000000596,1.51,1523.7359949000002,,,,,560,19,Woman,Right,
,,,,,,,,,,,,,,,,,560,19,Woman,Right,2,13,0.4,2,0,180,180,0.4290685000000849,['y'],0.7637252999998054,1.592,1527.7028796999998,,,,,560,19,Woman,Right,
,,,,,,,,,,,,,,,,,560,19,Woman,Right,2,46,0.15,1,180,-,180,0.1382128999998713,['n'],0.8836089999999786,1.5779999999999998,1531.1360490000002,,,,,560,19,Woman,Right,
,,,,,,,,,,,,,,,,,560,19,Woman,Right,2,51,0.15,2,180,0,0,0.46605519999957323,['n'],0.716728399999738,1.534,1534.7694405000002,,,,,560,19,Woman,Right,
,,,,,,,,,,,,,,,,,560,19,Woman,Right,2,45,0.15,2,0,180,0,0.498218000000179,['n'],0.9247356999999283,1.568,1539.0696426999998,,,,,560,19,Woman,Right,
,,,,,,,,,,,,,,,,,560,19,Woman,Right,2,37,0.4,2,0,180,180,0.9883044999996855,['y'],0.5094395999999506,1.6099999999999999,1543.1036334,,,,,560,19,Woman,Right,
,,,,,,,,,,,,,,,,,560,19,Woman,Right,2,2,1,1,180,-,0,1.0073694000002433,['y'],0.8061514999999417,1.56,1547.5028139,,,,,560,19,Woman,Right,
,,,,,,,,,,,,,,,,,560,19,Woman,Right,2,71,0.15,2,180,0,0,0.3549494000003506,['n'],0.7262347000000773,1.5819999999999999,1551.9194082,,,,,560,19,Woman,Right,
,,,,,,,,,,,,,,,,,560,19,Woman,Right,2,57,0.15,2,0,180,180,0.2896643000003678,['n'],0.6548671000000468,1.528,1555.5198405,,,,,560,19,Woman,Right,
,,,,,,,,,,,,,,,,,560,19,Woman,Right,2,8,0.4,1,0,-,180,2.7614214000000175,['y'],0.5037695000000895,1.5939999999999999,1561.1362961999998,,,,,560,19,Woman,Right,
,,,,,,,,,,,,,,,,,560,19,Woman,Right,2,31,0.4,2,180,0,0,1.1898097999996935,['y'],0.7836521999997785,1.6019999999999999,1566.1193233,,,,,560,19,Woman,Right,
,,,,,,,,,,,,,,,,,560,19,Woman,Right,2,15,0.4,2,180,0,0,0.3839064000003418,['y'],0.7795212000000902,1.6019999999999999,1569.8702945999999,,,,,560,19,Woman,Right,
,,,,,,,,,,,,,,,,,560,19,Woman,Right,2,44,0.15,1,0,-,0,0.7245643999999629,['n'],0.8254257000003236,1.534,1573.7361486999998,,,,,560,19,Woman,Right,
,,,,,,,,,,,,,,,,,560,19,Woman,Right,2,68,0.15,1,0,-,0,0.5337195000001884,['n'],0.5574278999997659,1.552,1577.2527498999998,,,,,560,19,Woman,Right,
,,,,,,,,,,,,,,,,,560,19,Woman,Right,2,42,0.4,1,180,-,180,0.5414163999998891,['n'],1.2344404000000395,1.454,1581.4862343,,,,,560,19,Woman,Right,
,,,,,,,,,,,,,,,,,560,19,Woman,Right,2,9,0.4,2,0,180,180,1.740161100000023,['y'],0.6905402000002141,1.566,1586.4203208,,,,,560,19,Woman,Right,
,,,,,,,,,,,,,,,,,560,19,Woman,Right,2,5,1,2,0,180,180,0.803558200000225,['y'],1.7879470000002584,1.5819999999999999,1591.5193912999998,,,,,560,19,Woman,Right,
,,,,,,,,,,,,,,,,,560,19,Woman,Right,2,72,0.15,1,0,-,0,1.7938146000001325,['n'],0.9482981999999538,1.296,1596.5861224999999,,,,,560,19,Woman,Right,
,,,,,,,,,,,,,,,,,560,19,Woman,Right,2,59,0.15,2,180,0,180,1.4792637000000468,['y'],2.3487513000000035,1.174,1604.3361276,,,,,560,19,Woman,Right,
,,,,,,,,,,,,,,,,,560,19,Woman,Right,2,38,0.4,1,180,-,180,0.5571560000003046,['n'],0.7585376000001816,1.498,1609.9361284000001,,,,,560,19,Woman,Right,
,,,,,,,,,,,,,,,,,560,19,Woman,Right,2,70,0.15,1,180,-,0,0.3480776999999762,['n'],1.0224324999999226,1.488,1614.1030716999999,,,,,560,19,Woman,Right,
,,,,,,,,,,,,,,,,,560,19,Woman,Right,2,61,0.15,2,0,180,180,1.0554652000000715,['n'],1.0073072000000138,1.502,1618.6861755999998,,,,,560,19,Woman,Right,
,,,,,,,,,,,,,,,,,560,19,Woman,Right,2,47,0.15,2,180,0,0,0.42832199999975273,['n'],0.7517167999999401,1.488,1623.6028505999998,,,,,560,19,Woman,Right,
,,,,,,,,,,,,,,,,,560,19,Woman,Right,2,67,0.15,2,180,0,180,1.2518812999996953,['n'],1.216218100000333,1.51,1629.1527258,,,,,560,19,Woman,Right,
,,,,,,,,,,,,,,,,,560,19,Woman,Right,2,40,0.4,1,0,-,0,0.5621784999998454,['n'],1.0334050000001298,1.522,1633.8862926000002,,,,,560,19,Woman,Right,
,,,,,,,,,,,,,,,,,560,19,Woman,Right,2,3,1,2,180,0,0,1.3436314000000493,['y'],0.3212186999999176,1.65,1638.8530185999998,,,,,560,19,Woman,Right,
,,,,,,,,,,,,,,,,,560,19,Woman,Right,2,1,1,2,0,180,180,0.5556401999997433,['y'],0.3219364999999925,1.562,1642.1197265,,,,,560,19,Woman,Right,
,,,,,,,,,,,,,,,,,560,19,Woman,Right,3,67,0.15,2,180,0,0,0.7562929999999142,['n'],0.14926710000008825,1.5979999999999999,1670.6695728,65.0,75.0,55.0,,560,19,Woman,Right,
,,,,,,,,,,,,,,,,,560,19,Woman,Right,3,42,0.4,1,180,-,0,1.1707869000001665,['n'],0.6376097000002119,1.564,1675.0364381,,,,,560,19,Woman,Right,
,,,,,,,,,,,,,,,,,560,19,Woman,Right,3,32,0.4,1,0,-,0,0.6504227000000355,['n'],0.6189948999999615,1.546,1678.8864528,,,,,560,19,Woman,Right,
,,,,,,,,,,,,,,,,,560,19,Woman,Right,3,54,0.15,1,180,-,180,0.6759259000000384,['n'],0.5185716000000866,1.558,1682.6864752000001,,,,,560,19,Woman,Right,
,,,,,,,,,,,,,,,,,560,19,Woman,Right,3,69,0.15,2,0,180,0,0.48041639999973995,['n'],0.6237484999996923,1.548,1686.5029559,,,,,560,19,Woman,Right,
,,,,,,,,,,,,,,,,,560,19,Woman,Right,3,7,1,2,180,0,0,1.4672974000000067,['y'],0.3869905999999901,1.6019999999999999,1690.9862994,,,,,560,19,Woman,Right,
,,,,,,,,,,,,,,,,,560,19,Woman,Right,3,9,0.4,2,0,180,180,0.9599453999999241,['y'],1.3835182000002533,1.564,1696.5363198999999,,,,,560,19,Woman,Right,
,,,,,,,,,,,,,,,,,560,19,Woman,Right,3,58,0.15,1,180,-,0,0.39629369999966,['n'],0.7934894999998505,1.564,1700.3029486,,,,,560,19,Woman,Right,
,,,,,,,,,,,,,,,,,560,19,Woman,Right,3,66,0.15,1,180,-,0,0.8814478999997846,['y'],0.8495194000001902,1.5899999999999999,1704.4708308,,,,,560,19,Woman,Right,
,,,,,,,,,,,,,,,,,560,19,Woman,Right,3,13,0.4,2,0,180,180,2.371624200000042,['y'],0.8343786999998883,1.554,1710.9365615000002,,,,,560,19,Woman,Right,
,,,,,,,,,,,,,,,,,560,19,Woman,Right,3,73,0.15,2,0,180,0,0.8091271999996934,['y'],0.33904089999987264,1.5899999999999999,1714.6030494000001,,,,,560,19,Woman,Right,
,,,,,,,,,,,,,,,,,560,19,Woman,Right,3,38,0.4,1,180,-,0,1.0856902000000446,['y'],0.6192363000000114,1.53,1718.9530786,,,,,560,19,Woman,Right,
,,,,,,,,,,,,,,,,,560,19,Woman,Right,3,63,0.15,2,180,0,0,0.4783252000001994,['n'],0.8037085999999363,1.526,1722.9530184999999,,,,,560,19,Woman,Right,
,,,,,,,,,,,,,,,,,560,19,Woman,Right,3,61,0.15,2,0,180,0,0.3032621000002109,['n'],0.5644391999999243,1.57,1726.3365336000002,,,,,560,19,Woman,Right,
,,,,,,,,,,,,,,,,,560,19,Woman,Right,3,29,0.4,2,0,180,180,1.241220500000054,['y'],0.6049671000000671,1.544,1730.5531243,,,,,560,19,Woman,Right,
,,,,,,,,,,,,,,,,,560,19,Woman,Right,3,14,0.4,1,180,-,0,0.47906700000021374,['n'],0.6614454000000478,1.522,1734.1363102,,,,,560,19,Woman,Right,
,,,,,,,,,,,,,,,,,560,19,Woman,Right,3,27,0.4,2,180,0,0,0.33691429999998945,['y'],0.9497712999996111,1.548,1738.0696741000002,,,,,560,19,Woman,Right,
,,,,,,,,,,,,,,,,,560,19,Woman,Right,3,23,0.4,2,180,0,0,0.3225741000001108,['y'],1.3580772999998771,1.544,1742.1205492,,,,,560,19,Woman,Right,
,,,,,,,,,,,,,,,,,560,19,Woman,Right,3,24,0.4,1,0,-,0,0.5684117000000697,['n'],0.6627106000000822,1.558,1745.7371902,,,,,560,19,Woman,Right,
,,,,,,,,,,,,,,,,,560,19,Woman,Right,3,36,0.4,1,0,-,180,0.897929799999929,['n'],1.0868693000002168,1.552,1750.2364200000002,,,,,560,19,Woman,Right,
,,,,,,,,,,,,,,,,,560,19,Woman,Right,3,56,0.15,1,0,-,0,0.3491527999999562,['n'],0.6875049000000217,1.542,1753.6867413999998,,,,,560,19,Woman,Right,
,,,,,,,,,,,,,,,,,560,19,Woman,Right,3,10,0.4,1,180,-,0,0.3163395000001401,['n'],0.649102600000333,1.538,1757.1696705999998,,,,,560,19,Woman,Right,
,,,,,,,,,,,,,,,,,560,19,Woman,Right,3,49,0.15,2,0,180,0,0.43208469999990484,['n'],0.6962531999997736,1.54,1760.8365441,,,,,560,19,Woman,Right,
,,,,,,,,,,,,,,,,,560,19,Woman,Right,3,37,0.4,2,0,180,180,1.326043099999879,['y'],0.29713219999985085,1.5739999999999998,1765.4365705999999,,,,,560,19,Woman,Right,
,,,,,,,,,,,,,,,,,560,19,Woman,Right,3,16,0.4,1,0,-,180,0.8396920000000136,['n'],0.7367535999997017,1.546,1769.2530656,,,,,560,19,Woman,Right,
,,,,,,,,,,,,,,,,,560,19,Woman,Right,3,71,0.15,2,180,0,0,0.5096381000003021,['n'],0.8020154999999249,1.57,1772.9031381999998,,,,,560,19,Woman,Right,
,,,,,,,,,,,,,,,,,560,19,Woman,Right,3,28,0.4,1,0,-,180,0.6027210000002015,['n'],0.6103179000001546,1.546,1776.4032281999998,,,,,560,19,Woman,Right,
,,,,,,,,,,,,,,,,,560,19,Woman,Right,3,68,0.15,1,0,-,0,0.5414845999998761,['n'],0.6670774999997775,1.538,1779.9866249000002,,,,,560,19,Woman,Right,
,,,,,,,,,,,,,,,,,560,19,Woman,Right,3,74,0.15,1,180,-,180,0.08659649999981411,['n'],0.8671908999999687,1.5779999999999998,1783.2366034000001,,,,,560,19,Woman,Right,
,,,,,,,,,,,,,,,,,560,19,Woman,Right,3,65,0.15,2,0,180,180,0.5479623999999603,['n'],0.6037327000003643,1.534,1786.7866211,,,,,560,19,Woman,Right,
,,,,,,,,,,,,,,,,,560,19,Woman,Right,3,2,1,1,180,-,0,1.4876103000001422,['y'],0.6040596000002552,1.54,1791.2868508000001,,,,,560,19,Woman,Right,
,,,,,,,,,,,,,,,,,560,19,Woman,Right,3,48,0.15,1,0,-,0,0.3224719999998342,['n'],0.6524457000000439,1.53,1794.5531101000001,,,,,560,19,Woman,Right,
,,,,,,,,,,,,,,,,,560,19,Woman,Right,3,19,0.4,2,180,0,0,0.3177456999997048,['y'],0.5248199000002387,1.222,1798.9199208,,,,,560,19,Woman,Right,
,,,,,,,,,,,,,,,,,560,19,Woman,Right,3,55,0.15,2,180,0,0,0.31701090000024124,['n'],1.5653059000001122,1.562,1804.4531286000001,,,,,560,19,Woman,Right,
,,,,,,,,,,,,,,,,,560,19,Woman,Right,3,79,0.15,2,180,0,0,0.31155200000011973,['y'],0.6307611000001998,1.5859999999999999,1808.7366972,,,,,560,19,Woman,Right,
,,,,,,,,,,,,,,,,,560,19,Woman,Right,3,8,0.4,1,0,-,180,0.5769494999999552,['n'],0.8552641000001131,1.57,1812.5532843,,,,,560,19,Woman,Right,
,,,,,,,,,,,,,,,,,560,19,Woman,Right,3,44,0.15,1,0,-,0,0.32685689999971146,['n'],0.8158272000000579,1.564,1816.2198607999999,,,,,560,19,Woman,Right,
,,,,,,,,,,,,,,,,,560,19,Woman,Right,3,31,0.4,2,180,0,0,1.8544307000001936,['y'],0.5119147000000339,1.546,1821.1697801,,,,,560,19,Woman,Right,
,,,,,,,,,,,,,,,,,560,19,Woman,Right,3,62,0.15,1,180,-,0,0.11241619999964314,['n'],0.7604370999997627,1.542,1824.3864721999998,,,,,560,19,Woman,Right,
,,,,,,,,,,,,,,,,,560,19,Woman,Right,3,40,0.4,1,0,-,180,1.1038028000002669,['n'],1.3610196999998152,1.5899999999999999,1829.2868149,,,,,560,19,Woman,Right,
,,,,,,,,,,,,,,,,,560,19,Woman,Right,3,0,1,1,0,-,180,1.8585109000000557,['y'],1.1855906999999206,1.548,1834.7198193999998,,,,,560,19,Woman,Right,
,,,,,,,,,,,,,,,,,560,19,Woman,Right,3,6,1,1,180,-,180,1.0989119000000755,['n'],0.2579878000001372,1.244,1839.2033987,,,,,560,19,Woman,Right,
,,,,,,,,,,,,,,,,,560,19,Woman,Right,3,43,0.4,2,180,0,0,1.3190162999999302,['y'],0.6744845000002897,1.544,1843.8199697,,,,,560,19,Woman,Right,
,,,,,,,,,,,,,,,,,560,19,Woman,Right,3,59,0.15,2,180,0,0,3.2285163999999895,['y'],0.4593033999999534,1.6280000000000001,1849.9201626,,,,,560,19,Woman,Right,
,,,,,,,,,,,,,,,,,560,19,Woman,Right,3,75,0.15,2,180,0,0,2.113635400000021,['n'],0.6201801000001979,1.556,1855.019879,,,,,560,19,Woman,Right,
,,,,,,,,,,,,,,,,,560,19,Woman,Right,3,77,0.15,2,0,180,0,0.25588269999980184,['n'],0.40451600000005783,1.56,1858.4865666,,,,,560,19,Woman,Right,
,,,,,,,,,,,,,,,,,560,19,Woman,Right,3,18,0.4,1,180,-,0,0.9460242999998627,['n'],0.38934580000022834,1.544,1862.2032536000002,,,,,560,19,Woman,Right,
,,,,,,,,,,,,,,,,,560,19,Woman,Right,3,15,0.4,2,180,0,0,1.5036724999999933,['y'],0.9415772000002107,1.562,1866.9865731999998,,,,,560,19,Woman,Right,
,,,,,,,,,,,,,,,,,560,19,Woman,Right,3,47,0.15,2,180,0,0,0.44963529999995444,['n'],0.6741726000000199,1.588,1870.5365296,,,,,560,19,Woman,Right,
,,,,,,,,,,,,,,,,,560,19,Woman,Right,3,60,0.15,1,0,-,0,0.26561030000038954,['n'],0.382330599999932,1.55,1873.6865091,,,,,560,19,Woman,Right,
,,,,,,,,,,,,,,,,,560,19,Woman,Right,3,33,0.4,2,0,180,180,1.7500899000001482,['y'],1.0832368000001225,1.544,1880.1698732999998,,,,,560,19,Woman,Right,
,,,,,,,,,,,,,,,,,560,19,Woman,Right,3,35,0.4,2,180,0,0,0.30379750000020067,['y'],1.1595047000000704,1.572,1884.0033477000002,,,,,560,19,Woman,Right,
,,,,,,,,,,,,,,,,,560,19,Woman,Right,3,25,0.4,2,0,180,180,1.2947112000001653,['y'],1.3285273000001325,1.53,1888.8865919999998,,,,,560,19,Woman,Right,
,,,,,,,,,,,,,,,,,560,19,Woman,Right,3,64,0.15,1,0,-,180,0.47292190000007395,['n'],0.6890370000000985,1.5739999999999998,1892.3699563,,,,,560,19,Woman,Right,
,,,,,,,,,,,,,,,,,560,19,Woman,Right,3,39,0.4,2,180,0,0,0.2777800999997453,['y'],0.9049294000001282,1.54,1896.0535817,,,,,560,19,Woman,Right,
,,,,,,,,,,,,,,,,,560,19,Woman,Right,3,34,0.4,1,180,-,0,0.24508399999967878,['n'],0.4574214999997821,1.566,1899.1865904000001,,,,,560,19,Woman,Right,
,,,,,,,,,,,,,,,,,560,19,Woman,Right,3,45,0.15,2,0,180,180,0.5080903999996735,['n'],0.7136536000002707,1.562,1902.8365193,,,,,560,19,Woman,Right,
,,,,,,,,,,,,,,,,,560,19,Woman,Right,3,22,0.4,1,180,-,0,0.2948858999998265,['n'],0.3624291000000994,1.554,1905.8199811,,,,,560,19,Woman,Right,
,,,,,,,,,,,,,,,,,560,19,Woman,Right,3,78,0.15,1,180,-,0,0.6780296999995699,['n'],0.3709113999998408,1.612,1909.203513,,,,,560,19,Woman,Right,
,,,,,,,,,,,,,,,,,560,19,Woman,Right,3,53,0.15,2,0,180,0,0.3675253999999768,['n'],0.28309309999986,1.566,1912.3865952,,,,,560,19,Woman,Right,
,,,,,,,,,,,,,,,,,560,19,Woman,Right,3,26,0.4,1,180,-,0,0.2873600000002625,['n'],0.2520142000003034,1.5779999999999998,1915.4035241000001,,,,,560,19,Woman,Right,
,,,,,,,,,,,,,,,,,560,19,Woman,Right,3,41,0.4,2,0,180,180,2.5977727999998024,['y'],0.3480883000001995,1.564,1921.0700636000001,,,,,560,19,Woman,Right,
,,,,,,,,,,,,,,,,,560,19,Woman,Right,3,76,0.15,1,0,-,0,0.2286140000001069,['n'],0.2528717999998662,1.616,1923.9368949,,,,,560,19,Woman,Right,
,,,,,,,,,,,,,,,,,560,19,Woman,Right,3,72,0.15,1,0,-,0,0.3144170000000486,['n'],0.3094006999999692,1.576,1927.0701330000002,,,,,560,19,Woman,Right,
,,,,,,,,,,,,,,,,,560,19,Woman,Right,3,5,1,2,0,180,180,1.5001793000001271,['y'],0.5524132999998983,1.562,1931.5366058999998,,,,,560,19,Woman,Right,
,,,,,,,,,,,,,,,,,560,19,Woman,Right,3,57,0.15,2,0,180,0,0.7619182000003093,['n'],0.3182213000000047,1.5739999999999998,1934.8867040999999,,,,,560,19,Woman,Right,
,,,,,,,,,,,,,,,,,560,19,Woman,Right,3,30,0.4,1,180,-,0,0.2833258000000569,['n'],0.4712923999995837,1.57,1938.1367383000002,,,,,560,19,Woman,Right,
,,,,,,,,,,,,,,,,,560,19,Woman,Right,3,52,0.15,1,0,-,180,0.3679912000002332,['n'],0.7830269999999473,1.564,1941.6199833,,,,,560,19,Woman,Right,
,,,,,,,,,,,,,,,,,560,19,Woman,Right,3,70,0.15,1,180,-,0,0.2226943000000574,['n'],0.9433003000003737,1.404,1945.1368893,,,,,560,19,Woman,Right,
,,,,,,,,,,,,,,,,,560,19,Woman,Right,3,21,0.4,2,0,180,180,1.8085915999999997,['y'],0.608247399999982,1.5859999999999999,1949.8700595999999,,,,,560,19,Woman,Right,
,,,,,,,,,,,,,,,,,560,19,Woman,Right,3,3,1,2,180,0,0,0.8126667000001362,['y'],1.08849999999984,1.562,1954.1533201000002,,,,,560,19,Woman,Right,
,,,,,,,,,,,,,,,,,560,19,Woman,Right,3,1,1,2,0,180,180,0.6982696000000033,['y'],0.5525052000002688,1.564,1957.6535651,,,,,560,19,Woman,Right,
,,,,,,,,,,,,,,,,,560,19,Woman,Right,3,50,0.15,1,180,-,0,0.22983830000021044,['n'],0.44069290000015826,1.5819999999999999,1960.803519,,,,,560,19,Woman,Right,
,,,,,,,,,,,,,,,,,560,19,Woman,Right,3,46,0.15,1,180,-,180,0.18862090000038734,['n'],1.2420714999998381,1.5899999999999999,1964.9370202,,,,,560,19,Woman,Right,
,,,,,,,,,,,,,,,,,560,19,Woman,Right,3,51,0.15,2,180,0,0,0.7849510000000919,['n'],0.5300888000001578,1.604,1968.5867592,,,,,560,19,Woman,Right,
,,,,,,,,,,,,,,,,,560,19,Woman,Right,3,12,0.4,1,0,-,0,2.097683599999982,['y'],1.034693800000241,1.56,1974.5032646,,,,,560,19,Woman,Right,
,,,,,,,,,,,,,,,,,560,19,Woman,Right,3,17,0.4,2,0,180,180,0.46679279999989376,['y'],0.9869352999999137,1.554,1978.1871562000001,,,,,560,19,Woman,Right,
,,,,,,,,,,,,,,,,,560,19,Woman,Right,3,4,1,1,0,-,180,0.1601863000000776,['y'],0.9236679000000549,1.55,1981.5366267,,,,,560,19,Woman,Right,
,,,,,,,,,,,,,,,,,560,19,Woman,Right,3,11,0.4,2,180,0,0,2.8494612999998026,['y'],0.7086367000001701,1.548,1987.3034161,,,,,560,19,Woman,Right,
,,,,,,,,,,,,,,,,,560,19,Woman,Right,3,20,0.4,1,0,-,180,0.6995239000002584,['n'],0.4263192999997045,1.55,1991.3367047000002,,,,,560,19,Woman,Right,
,,,,,,,,,,,,,,,,,560,19,Woman,Right,4,1,1,2,0,180,180,0.868498400000135,['y'],0.7060152000003654,1.8,2020.6536348999998,58.75,85.0,62.5,,560,19,Woman,Right,
,,,,,,,,,,,,,,,,,560,19,Woman,Right,4,3,1,2,180,0,0,0.21604359999992084,['y'],0.6405561000001398,1.658,2023.8701283999999,,,,,560,19,Woman,Right,
,,,,,,,,,,,,,,,,,560,19,Woman,Right,4,70,0.15,1,180,-,0,0.31736499999988155,['n'],0.8256741000000147,1.588,2027.3537376,,,,,560,19,Woman,Right,
,,,,,,,,,,,,,,,,,560,19,Woman,Right,4,57,0.15,2,0,180,180,0.4535378000000492,['y'],1.4340460000003077,1.638,2031.586777,,,,,560,19,Woman,Right,
,,,,,,,,,,,,,,,,,560,19,Woman,Right,4,41,0.4,2,0,180,180,1.0961898000005021,['y'],0.8744660000002114,1.592,2035.8202726000004,,,,,560,19,Woman,Right,
,,,,,,,,,,,,,,,,,560,19,Woman,Right,4,35,0.4,2,180,0,0,0.21549119999963295,['y'],0.6907751999997345,1.624,2039.0704122000002,,,,,560,19,Woman,Right,
,,,,,,,,,,,,,,,,,560,19,Woman,Right,4,9,0.4,2,0,180,180,1.771552299999712,['y'],0.7154454999999871,1.5739999999999998,2043.8708019,,,,,560,19,Woman,Right,
,,,,,,,,,,,,,,,,,560,19,Woman,Right,4,54,0.15,1,180,-,0,0.6646131999996214,['n'],0.5560965000004217,1.562,2048.1202457000004,,,,,560,19,Woman,Right,
,,,,,,,,,,,,,,,,,560,19,Woman,Right,4,17,0.4,2,0,180,180,1.9674959999993007,['y'],1.1256219999995665,1.624,2054.3870361000004,,,,,560,19,Woman,Right,
,,,,,,,,,,,,,,,,,560,19,Woman,Right,4,78,0.15,1,180,-,0,0.15002350000031583,['n'],0.5195925999996689,1.6059999999999999,2057.5200553,,,,,560,19,Woman,Right,
,,,,,,,,,,,,,,,,,560,19,Woman,Right,4,48,0.15,1,0,-,0,0.15418570000019827,['n'],1.4054870999998457,1.6099999999999999,2061.4374414,,,,,560,19,Woman,Right,
,,,,,,,,,,,,,,,,,560,19,Woman,Right,4,32,0.4,1,0,-,0,0.2234082999993916,['n'],1.1019321000003401,1.596,2065.0871794,,,,,560,19,Woman,Right,
,,,,,,,,,,,,,,,,,560,19,Woman,Right,4,74,0.15,1,180,-,180,0.8021662000001015,['n'],0.718496899999991,1.592,2068.9701997999996,,,,,560,19,Woman,Right,
,,,,,,,,,,,,,,,,,560,19,Woman,Right,4,59,0.15,2,180,0,0,0.288155000000188,['n'],0.6073389000002862,1.6059999999999999,2072.4701748,,,,,560,19,Woman,Right,
,,,,,,,,,,,,,,,,,560,19,Woman,Right,4,36,0.4,1,0,-,0,0.2690348999994967,['n'],0.6797609999994165,1.564,2076.2869815999998,,,,,560,19,Woman,Right,
,,,,,,,,,,,,,,,,,560,19,Woman,Right,4,0,1,1,0,-,0,0.9768246000003273,['n'],0.9522323000001052,1.568,2080.5535926999996,,,,,560,19,Woman,Right,
,,,,,,,,,,,,,,,,,560,19,Woman,Right,4,66,0.15,1,180,-,0,0.23541370000020834,['n'],0.6002907000001869,1.604,2083.636889,,,,,560,19,Woman,Right,
,,,,,,,,,,,,,,,,,560,19,Woman,Right,4,47,0.15,2,180,0,0,0.3404952000000776,['n'],0.5533514000007926,1.5899999999999999,2086.8871049000004,,,,,560,19,Woman,Right,
,,,,,,,,,,,,,,,,,560,19,Woman,Right,4,23,0.4,2,180,0,0,0.8833967999999004,['y'],0.2886453999999503,1.6440000000000001,2090.3201262,,,,,560,19,Woman,Right,
,,,,,,,,,,,,,,,,,560,19,Woman,Right,4,61,0.15,2,0,180,0,0.2808965000003809,['n'],0.561447699999917,1.6139999999999999,2093.8202124000004,,,,,560,19,Woman,Right,
,,,,,,,,,,,,,,,,,560,19,Woman,Right,4,42,0.4,1,180,-,0,0.18095829999947455,['n'],0.4098314000002574,1.6139999999999999,2097.0871153000003,,,,,560,19,Woman,Right,
,,,,,,,,,,,,,,,,,560,19,Woman,Right,4,49,0.15,2,0,180,180,0.9133862999997291,['n'],0.8989413999997851,1.552,2101.1870388,,,,,560,19,Woman,Right,
,,,,,,,,,,,,,,,,,560,19,Woman,Right,4,7,1,2,180,0,0,1.1432397000007768,['y'],0.6272198999995453,1.6139999999999999,2105.2370751000003,,,,,560,19,Woman,Right,
,,,,,,,,,,,,,,,,,560,19,Woman,Right,4,58,0.15,1,180,-,0,0.17206850000002305,['n'],0.3396430999991935,1.566,2108.3037019,,,,,560,19,Woman,Right,
,,,,,,,,,,,,,,,,,560,19,Woman,Right,4,22,0.4,1,180,-,0,0.08342639999955281,['n'],0.47617409999929805,1.5739999999999998,2111.1369773,,,,,560,19,Woman,Right,
,,,,,,,,,,,,,,,,,560,19,Woman,Right,4,75,0.15,2,180,0,0,0.21733769999991637,['y'],1.3243678000008003,1.6400000000000001,2115.3203175000003,,,,,560,19,Woman,Right,
,,,,,,,,,,,,,,,,,560,19,Woman,Right,4,77,0.15,2,0,180,180,0.7592131000001245,['y'],0.836818900000253,1.546,2119.2213218,,,,,560,19,Woman,Right,
,,,,,,,,,,,,,,,,,560,19,Woman,Right,4,10,0.4,1,180,-,0,0.24568149999959132,['n'],0.90113620000011,1.412,2122.7044806,,,,,560,19,Woman,Right,
,,,,,,,,,,,,,,,,,560,19,Woman,Right,4,20,0.4,1,0,-,180,0.5946682999992845,['n'],0.910464999999931,1.346,2126.9368657,,,,,560,19,Woman,Right,
,,,,,,,,,,,,,,,,,560,19,Woman,Right,4,12,0.4,1,0,-,0,0.32940899999994144,['n'],0.542091000000255,1.55,2130.4704668,,,,,560,19,Woman,Right,
,,,,,,,,,,,,,,,,,560,19,Woman,Right,4,38,0.4,1,180,-,0,0.37246800000048097,['n'],0.6552097000003414,1.6019999999999999,2133.7038659000004,,,,,560,19,Woman,Right,
,,,,,,,,,,,,,,,,,560,19,Woman,Right,4,26,0.4,1,180,-,0,0.20237980000001698,['n'],0.7993341999999757,1.5819999999999999,2137.0872320000003,,,,,560,19,Woman,Right,
,,,,,,,,,,,,,,,,,560,19,Woman,Right,4,44,0.15,1,0,-,180,0.578548999999839,['n'],0.9357284999996409,1.62,2140.9035836999997,,,,,560,19,Woman,Right,
,,,,,,,,,,,,,,,,,560,19,Woman,Right,4,43,0.4,2,180,0,0,0.34672740000041813,['n'],0.5919050000002244,1.5819999999999999,2144.0701856,,,,,560,19,Woman,Right,
,,,,,,,,,,,,,,,,,560,19,Woman,Right,4,16,0.4,1,0,-,180,0.9390683999999965,['n'],0.912435799999912,1.558,2148.2202785000004,,,,,560,19,Woman,Right,
,,,,,,,,,,,,,,,,,560,19,Woman,Right,4,68,0.15,1,0,-,0,0.39770560000033583,['n'],0.6090675000004921,1.556,2151.4707308,,,,,560,19,Woman,Right,
,,,,,,,,,,,,,,,,,560,19,Woman,Right,4,52,0.15,1,0,-,0,0.45816389999981766,['n'],0.569262300000446,1.558,2154.7703318,,,,,560,19,Woman,Right,
,,,,,,,,,,,,,,,,,560,19,Woman,Right,4,76,0.15,1,0,-,180,0.4621219000000565,['n'],0.5935189000001628,1.552,2158.1536889000004,,,,,560,19,Woman,Right,
,,,,,,,,,,,,,,,,,560,19,Woman,Right,4,71,0.15,2,180,0,0,0.5692162000004828,['n'],0.29026510000039707,1.566,2161.2703103999997,,,,,560,19,Woman,Right,
,,,,,,,,,,,,,,,,,560,19,Woman,Right,4,73,0.15,2,0,180,180,0.7635311999993064,['n'],0.5863319999998566,1.612,2164.9369809000004,,,,,560,19,Woman,Right,
,,,,,,,,,,,,,,,,,560,19,Woman,Right,4,69,0.15,2,0,180,180,0.4485540999994555,['n'],0.7309880000002522,1.552,2168.4204387000004,,,,,560,19,Woman,Right,
,,,,,,,,,,,,,,,,,560,19,Woman,Right,4,24,0.4,1,0,-,180,0.750181800000064,['n'],0.5938880000003337,1.566,2172.2369889999995,,,,,560,19,Woman,Right,
,,,,,,,,,,,,,,,,,560,19,Woman,Right,4,51,0.15,2,180,0,0,0.4448416000004727,['n'],0.37959740000042075,1.674,2175.803647,,,,,560,19,Woman,Right,
,,,,,,,,,,,,,,,,,560,19,Woman,Right,4,27,0.4,2,180,0,0,2.869777300000351,['y'],0.3485712000001513,1.546,2181.3871476,,,,,560,19,Woman,Right,
,,,,,,,,,,,,,,,,,560,19,Woman,Right,4,55,0.15,2,180,0,180,3.0204323000007207,['n'],0.8127383999999438,1.424,2188.0372212999996,,,,,560,19,Woman,Right,
,,,,,,,,,,,,,,,,,560,19,Woman,Right,4,67,0.15,2,180,0,0,0.3344681999997192,['n'],1.0619458999999551,1.604,2191.7203833999997,,,,,560,19,Woman,Right,
,,,,,,,,,,,,,,,,,560,19,Woman,Right,4,11,0.4,2,180,0,0,1.0815608000002612,['y'],0.6787180000001172,1.5779999999999998,2195.7704018,,,,,560,19,Woman,Right,
,,,,,,,,,,,,,,,,,560,19,Woman,Right,4,28,0.4,1,0,-,180,0.3823675000003277,['n'],0.647214300000087,1.35,2199.6038777,,,,,560,19,Woman,Right,
,,,,,,,,,,,,,,,,,560,19,Woman,Right,4,30,0.4,1,180,-,0,0.6711986999998771,['n'],0.7591383999997561,1.6019999999999999,2203.2880265,,,,,560,19,Woman,Right,
,,,,,,,,,,,,,,,,,560,19,Woman,Right,4,50,0.15,1,180,-,0,0.8196847999997772,['n'],0.2718181000000186,1.6360000000000001,2206.6539743,,,,,560,19,Woman,Right,
,,,,,,,,,,,,,,,,,560,19,Woman,Right,4,33,0.4,2,0,180,180,1.0599331000003076,['y'],0.8802118999992672,1.5739999999999998,2210.8537779000003,,,,,560,19,Woman,Right,
,,,,,,,,,,,,,,,,,560,19,Woman,Right,4,6,1,1,180,-,0,0.6980131000000256,['n'],1.6406227000006766,1.634,2215.4704275,,,,,560,19,Woman,Right,
,,,,,,,,,,,,,,,,,560,19,Woman,Right,4,34,0.4,1,180,-,0,0.42935620000025665,['n'],0.4091954000004989,1.564,2218.5538488999996,,,,,560,19,Woman,Right,
,,,,,,,,,,,,,,,,,560,19,Woman,Right,4,63,0.15,2,180,0,0,1.1330543000003672,['y'],0.649927899999966,1.552,2222.8040128999996,,,,,560,19,Woman,Right,
,,,,,,,,,,,,,,,,,560,19,Woman,Right,4,4,1,1,0,-,0,2.7906003999996756,['n'],3.106667699999889,1.342,2231.3879490000004,,,,,560,19,Woman,Right,
,,,,,,,,,,,,,,,,,560,19,Woman,Right,4,2,1,1,180,-,0,0.5358360000000175,['n'],8.204158800000187,1.726,2243.2205018,,,,,560,19,Woman,Right,
,,,,,,,,,,,,,,,,,560,19,Woman,Right,4,8,0.4,1,0,-,0,0.758489599999848,['n'],0.4847536000006585,1.548,2246.6204700000003,,,,,560,19,Woman,Right,
,,,,,,,,,,,,,,,,,560,19,Woman,Right,4,31,0.4,2,180,0,0,1.152564099999836,['y'],0.6931077999997797,1.562,2250.5372308,,,,,560,19,Woman,Right,
,,,,,,,,,,,,,,,,,560,19,Woman,Right,4,13,0.4,2,0,180,180,0.6473111000004792,['y'],0.6059223000002021,1.548,2254.2539856999997,,,,,560,19,Woman,Right,
,,,,,,,,,,,,,,,,,560,19,Woman,Right,4,79,0.15,2,180,0,0,0.24364559999958146,['n'],0.3820698999998058,1.564,2257.2371675,,,,,560,19,Woman,Right,
,,,,,,,,,,,,,,,,,560,19,Woman,Right,4,40,0.4,1,0,-,0,1.4205830999999307,['y'],0.39031660000000556,1.646,2261.2871904999997,,,,,560,19,Woman,Right,
,,,,,,,,,,,,,,,,,560,19,Woman,Right,4,60,0.15,1,0,-,180,0.6389405999998417,['n'],0.5434645999994245,1.596,2264.9038729999997,,,,,560,19,Woman,Right,
,,,,,,,,,,,,,,,,,560,19,Woman,Right,4,15,0.4,2,180,0,0,0.7125321999992593,['y'],0.7113926000001811,1.604,2268.6208063999998,,,,,560,19,Woman,Right,
,,,,,,,,,,,,,,,,,560,19,Woman,Right,4,65,0.15,2,0,180,180,0.591130300000259,['n'],0.39987010000004375,1.5819999999999999,2271.7871431999997,,,,,560,19,Woman,Right,
,,,,,,,,,,,,,,,,,560,19,Woman,Right,4,18,0.4,1,180,-,0,1.016292300000714,['y'],0.33585709999988467,1.546,2275.2705036,,,,,560,19,Woman,Right,
,,,,,,,,,,,,,,,,,560,19,Woman,Right,4,29,0.4,2,0,180,180,0.4504200999999739,['y'],1.058923199999299,1.546,2275.2705036,,,,,560,19,Woman,Right,
,,,,,,,,,,,,,,,,,560,19,Woman,Right,4,5,1,2,0,180,180,0.3939602999998897,['y'],0.6335570999999618,1.568,2282.2205081999996,,,,,560,19,Woman,Right,
,,,,,,,,,,,,,,,,,560,19,Woman,Right,4,25,0.4,2,0,180,180,1.1965493999996397,['y'],0.41763170000012906,1.604,2286.1204875999997,,,,,560,19,Woman,Right,
,,,,,,,,,,,,,,,,,560,19,Woman,Right,4,46,0.15,1,180,-,0,0.2982774000001882,['n'],0.4266358999993827,1.592,2289.2205015000004,,,,,560,19,Woman,Right,
,,,,,,,,,,,,,,,,,560,19,Woman,Right,4,56,0.15,1,0,-,180,0.3503669000001537,['n'],0.8170430000000124,1.566,2292.6371518,,,,,560,19,Woman,Right,
,,,,,,,,,,,,,,,,,560,19,Woman,Right,4,14,0.4,1,180,-,0,0.32655310000063764,['n'],0.498569000000316,1.5819999999999999,2295.6871824000004,,,,,560,19,Woman,Right,
,,,,,,,,,,,,,,,,,560,19,Woman,Right,4,53,0.15,2,0,180,180,0.3389734000002136,['n'],0.34693460000016785,1.6099999999999999,2298.6705151,,,,,560,19,Woman,Right,
,,,,,,,,,,,,,,,,,560,19,Woman,Right,4,39,0.4,2,180,0,0,0.7961790999997902,['y'],0.5637710999999399,1.5819999999999999,2302.3204782,,,,,560,19,Woman,Right,
,,,,,,,,,,,,,,,,,560,19,Woman,Right,4,19,0.4,2,180,0,0,2.4410719000006793,['y'],0.2681335000006584,1.566,2307.3204922,,,,,560,19,Woman,Right,
,,,,,,,,,,,,,,,,,560,19,Woman,Right,4,21,0.4,2,0,180,180,0.9220669999995152,['y'],0.6202305999995588,1.572,2311.0707326999996,,,,,560,19,Woman,Right,
,,,,,,,,,,,,,,,,,560,19,Woman,Right,4,72,0.15,1,0,-,180,0.07901589999983116,['n'],0.6128846999999951,1.57,2313.9539275,,,,,560,19,Woman,Right,
,,,,,,,,,,,,,,,,,560,19,Woman,Right,4,37,0.4,2,0,180,180,0.28045509999992646,['n'],1.0526460999999472,1.58,2317.5539028,,,,,560,19,Woman,Right,
,,,,,,,,,,,,,,,,,560,19,Woman,Right,4,45,0.15,2,0,180,0,0.2963565000000017,['n'],0.5101221000004443,1.604,2320.6708673999997,,,,,560,19,Woman,Right,
,,,,,,,,,,,,,,,,,560,19,Woman,Right,4,62,0.15,1,180,-,0,0.15655550000064977,['n'],0.5103934999997364,1.56,2323.6540865,,,,,560,19,Woman,Right,
,,,,,,,,,,,,,,,,,560,19,Woman,Right,4,64,0.15,1,0,-,0,0.3008818999996947,['n'],0.43058990000008635,1.612,2326.6042212999996,,,,,560,19,Woman,Right,
,,,,,,,,,,,,,,,,,560,19,Woman,Right,5,31,0.4,2,180,0,0,1.1051069000004645,['y'],0.3152071000004071,1.6280000000000001,2364.0205150999996,61.25,95.0,60.0,,560,19,Woman,Right,
,,,,,,,,,,,,,,,,,560,19,Woman,Right,5,39,0.4,2,180,0,0,0.9744635999995808,['y'],0.579564599999685,1.6600000000000001,2368.1539998000003,,,,,560,19,Woman,Right,
,,,,,,,,,,,,,,,,,560,19,Woman,Right,5,1,1,2,0,180,180,0.32644770000024437,['y'],0.6125059000005422,1.596,2371.3206502,,,,,560,19,Woman,Right,
,,,,,,,,,,,,,,,,,560,19,Woman,Right,5,78,0.15,1,180,-,0,0.28159950000008394,['n'],0.9485644999995202,1.546,2374.8543045,,,,,560,19,Woman,Right,
,,,,,,,,,,,,,,,,,560,19,Woman,Right,5,45,0.15,2,0,180,180,0.22928460000002815,['n'],0.8052868999993734,1.566,2378.8708592999997,,,,,560,19,Woman,Right,
,,,,,,,,,,,,,,,,,560,19,Woman,Right,5,36,0.4,1,0,-,180,0.27865419999943697,['n'],1.085477599999649,1.384,2382.5040274999997,,,,,560,19,Woman,Right,
,,,,,,,,,,,,,,,,,560,19,Woman,Right,5,19,0.4,2,180,0,0,0.21721419999994396,['n'],1.2147283999993306,1.596,2386.2373473000002,,,,,560,19,Woman,Right,
,,,,,,,,,,,,,,,,,560,19,Woman,Right,5,67,0.15,2,180,0,0,0.13462320000053296,['n'],1.1107631000004403,1.596,2389.6544043999997,,,,,560,19,Woman,Right,
,,,,,,,,,,,,,,,,,560,19,Woman,Right,5,16,0.4,1,0,-,0,1.2203363000007812,['n'],0.45535860000018147,1.5779999999999998,2393.5373630999998,,,,,560,19,Woman,Right,
,,,,,,,,,,,,,,,,,560,19,Woman,Right,5,79,0.15,2,180,0,0,0.516038099999605,['n'],0.48677979999956733,1.6019999999999999,2396.7706067000004,,,,,560,19,Woman,Right,
,,,,,,,,,,,,,,,,,560,19,Woman,Right,5,62,0.15,1,180,-,180,0.3015478000006624,['n'],0.6477616000001944,1.57,2400.1206854999996,,,,,560,19,Woman,Right,
,,,,,,,,,,,,,,,,,560,19,Woman,Right,5,53,0.15,2,0,180,0,0.06521909999992204,['n'],0.3844063000005917,1.6,2402.7706652,,,,,560,19,Woman,Right,
,,,,,,,,,,,,,,,,,560,19,Woman,Right,5,74,0.15,1,180,-,0,0.08241439999983413,['n'],0.24872330000016518,1.596,2405.4716728,,,,,560,19,Woman,Right,
,,,,,,,,,,,,,,,,,560,19,Woman,Right,5,59,0.15,2,180,0,0,0.035618199999589706,['n'],0.2804252000005363,1.6440000000000001,2408.0207047,,,,,560,19,Woman,Right,
,,,,,,,,,,,,,,,,,560,19,Woman,Right,5,46,0.15,1,180,-,180,0.5632111999993867,['n'],0.6977079999996931,1.6139999999999999,2411.6040268,,,,,560,19,Woman,Right,
,,,,,,,,,,,,,,,,,560,19,Woman,Right,5,48,0.15,1,0,-,180,0.5822269999998753,['n'],0.273554299999887,1.674,2414.6873489000004,,,,,560,19,Woman,Right,
,,,,,,,,,,,,,,,,,560,19,Woman,Right,5,63,0.15,2,180,0,180,0.4448238000004494,['n'],0.2735566999999719,1.654,2417.8040502999997,,,,,560,19,Woman,Right,
,,,,,,,,,,,,,,,,,560,19,Woman,Right,5,73,0.15,2,0,180,0,0.6387561999999889,['n'],0.4819675000007919,1.634,2421.0874553,,,,,560,19,Woman,Right,
,,,,,,,,,,,,,,,,,560,19,Woman,Right,5,66,0.15,1,180,-,0,0.19462239999938902,['n'],0.4105781999996907,1.624,2423.8873043999997,,,,,560,19,Woman,Right,
,,,,,,,,,,,,,,,,,560,19,Woman,Right,5,13,0.4,2,0,180,180,1.2906550999996398,['y'],0.883429100000285,1.5859999999999999,2428.2207317999996,,,,,560,19,Woman,Right,
,,,,,,,,,,,,,,,,,560,19,Woman,Right,5,54,0.15,1,180,-,0,0.606320400000186,['n'],0.2754473999993934,1.674,2431.2542583,,,,,560,19,Woman,Right,
,,,,,,,,,,,,,,,,,560,19,Woman,Right,5,44,0.15,1,0,-,180,0.5251044000006004,['n'],0.2759916000004523,1.63,2434.2378482999998,,,,,560,19,Woman,Right,
,,,,,,,,,,,,,,,,,560,19,Woman,Right,5,23,0.4,2,180,0,0,0.3362388000005012,['y'],0.7003492000003462,1.592,2438.0374538,,,,,560,19,Woman,Right,
,,,,,,,,,,,,,,,,,560,19,Woman,Right,5,50,0.15,1,180,-,0,0.15664379999998346,['n'],0.39629669999976613,1.58,2441.3207417999997,,,,,560,19,Woman,Right,
,,,,,,,,,,,,,,,,,560,19,Woman,Right,5,52,0.15,1,0,-,180,0.3625087000000349,['n'],0.6930436000002373,1.5739999999999998,2444.6207120000004,,,,,560,19,Woman,Right,
,,,,,,,,,,,,,,,,,560,19,Woman,Right,5,22,0.4,1,180,-,0,0.7988287999996828,['n'],0.29326359999959095,1.6360000000000001,2448.454257,,,,,560,19,Woman,Right,
,,,,,,,,,,,,,,,,,560,19,Woman,Right,5,10,0.4,1,180,-,0,0.2674613999997746,['n'],0.19825670000045648,1.6560000000000001,2451.2542818999996,,,,,560,19,Woman,Right,
,,,,,,,,,,,,,,,,,560,19,Woman,Right,5,12,0.4,1,0,-,180,0.41041169999971316,['y'],0.5982669000004535,1.6059999999999999,2454.7541073999996,,,,,560,19,Woman,Right,
,,,,,,,,,,,,,,,,,560,19,Woman,Right,5,4,1,1,0,-,0,0.4891639999996187,['n'],0.2706895999999688,1.604,2457.8040687,,,,,560,19,Woman,Right,
,,,,,,,,,,,,,,,,,560,19,Woman,Right,5,7,1,2,180,0,0,0.789640099999815,['y'],0.9433693999999377,1.604,2461.7207817000003,,,,,560,19,Woman,Right,
,,,,,,,,,,,,,,,,,560,19,Woman,Right,5,57,0.15,2,0,180,0,0.11384369999996125,['n'],0.20736959999976534,1.626,2464.2040883000004,,,,,560,19,Woman,Right,
,,,,,,,,,,,,,,,,,560,19,Woman,Right,5,21,0.4,2,0,180,0,0.14270870000018476,['n'],0.2720694999998159,1.278,2467.7707582999997,,,,,560,19,Woman,Right,
,,,,,,,,,,,,,,,,,560,19,Woman,Right,5,61,0.15,2,0,180,180,0.23018489999958547,['n'],0.4569535000000542,1.3820000000000001,2471.7375016,,,,,560,19,Woman,Right,
,,,,,,,,,,,,,,,,,560,19,Woman,Right,5,5,1,2,0,180,180,0.5729466000002503,['y'],0.6332514000005176,1.544,2475.237633,,,,,560,19,Woman,Right,
,,,,,,,,,,,,,,,,,560,19,Woman,Right,5,20,0.4,1,0,-,0,0.4141764999994848,['n'],0.5136676000001899,1.5819999999999999,2478.3707894000004,,,,,560,19,Woman,Right,
,,,,,,,,,,,,,,,,,560,19,Woman,Right,5,8,0.4,1,0,-,0,0.26723279999987426,['y'],0.8660530999995899,1.576,2481.9377914,,,,,560,19,Woman,Right,
,,,,,,,,,,,,,,,,,560,19,Woman,Right,5,24,0.4,1,0,-,180,0.5766985999998724,['n'],0.4104648000002271,1.6219999999999999,2485.5708192999996,,,,,560,19,Woman,Right,
,,,,,,,,,,,,,,,,,560,19,Woman,Right,5,30,0.4,1,180,-,0,0.28744449999976496,['n'],1.0902243999998973,1.674,2489.1708456,,,,,560,19,Woman,Right,
,,,,,,,,,,,,,,,,,560,19,Woman,Right,5,58,0.15,1,180,-,180,0.11075619999974151,['n'],0.22704290000001492,1.592,2491.7374455000004,,,,,560,19,Woman,Right,
,,,,,,,,,,,,,,,,,560,19,Woman,Right,5,49,0.15,2,0,180,0,0.3363443999996889,['n'],1.3233994000001985,1.624,2495.6544209,,,,,560,19,Woman,Right,
,,,,,,,,,,,,,,,,,560,19,Woman,Right,5,51,0.15,2,180,0,180,0.15685819999998785,['n'],0.7476824999994278,1.676,2498.6874638000004,,,,,560,19,Woman,Right,
,,,,,,,,,,,,,,,,,560,19,Woman,Right,5,77,0.15,2,0,180,180,1.058808300000237,['y'],0.916670200000226,1.57,2504.5375743,,,,,560,19,Woman,Right,
,,,,,,,,,,,,,,,,,560,19,Woman,Right,5,34,0.4,1,180,-,0,0.4661374999996042,['y'],1.3492321999992782,1.552,2508.4874462000002,,,,,560,19,Woman,Right,
,,,,,,,,,,,,,,,,,560,19,Woman,Right,5,43,0.4,2,180,0,0,0.7493579000001773,['y'],0.4056047000003673,1.566,2511.870955,,,,,560,19,Woman,Right,
,,,,,,,,,,,,,,,,,560,19,Woman,Right,5,76,0.15,1,0,-,180,0.9458708000001934,['n'],0.6377624999995533,1.572,2515.7876872,,,,,560,19,Woman,Right,
,,,,,,,,,,,,,,,,,560,19,Woman,Right,5,18,0.4,1,180,-,0,0.47192879999965953,['n'],0.8388972000002468,1.5739999999999998,2519.204212,,,,,560,19,Woman,Right,
,,,,,,,,,,,,,,,,,560,19,Woman,Right,5,64,0.15,1,0,-,180,1.2148071999999956,['n'],0.4237473000002865,1.544,2523.0376650000003,,,,,560,19,Woman,Right,
,,,,,,,,,,,,,,,,,560,19,Woman,Right,5,15,0.4,2,180,0,0,0.7794943999997486,['y'],0.7834442999992461,1.544,2527.5550805999997,,,,,560,19,Woman,Right,
,,,,,,,,,,,,,,,,,560,19,Woman,Right,5,37,0.4,2,0,180,180,1.0269250999999713,['y'],0.6318499999997584,1.528,2531.487549,,,,,560,19,Woman,Right,
,,,,,,,,,,,,,,,,,560,19,Woman,Right,5,56,0.15,1,0,-,0,0.13230359999943175,['n'],0.5682302999994135,1.56,2534.4378473,,,,,560,19,Woman,Right,
,,,,,,,,,,,,,,,,,560,19,Woman,Right,5,55,0.15,2,180,0,0,0.1832045000001017,['n'],0.2080654000001232,1.5939999999999999,2537.004512,,,,,560,19,Woman,Right,
,,,,,,,,,,,,,,,,,560,19,Woman,Right,5,71,0.15,2,180,0,0,0.23148659999969823,['y'],0.9453603000001749,1.568,2540.4877043,,,,,560,19,Woman,Right,
,,,,,,,,,,,,,,,,,560,19,Woman,Right,5,29,0.4,2,0,180,180,2.443921999999475,['y'],0.2740873999991891,1.588,2545.5377660999998,,,,,560,19,Woman,Right,
,,,,,,,,,,,,,,,,,560,19,Woman,Right,5,28,0.4,1,0,-,0,0.8386356000000887,['n'],0.18610130000070058,1.568,2548.8875492,,,,,560,19,Woman,Right,
,,,,,,,,,,,,,,,,,560,19,Woman,Right,5,65,0.15,2,0,180,0,0.1302776000002268,['n'],0.37033879999944475,1.542,2551.7041825,,,,,560,19,Woman,Right,
,,,,,,,,,,,,,,,,,560,19,Woman,Right,5,14,0.4,1,180,-,0,0.23458579999987705,['n'],0.1793271000005916,1.5979999999999999,2556.4218034,,,,,560,19,Woman,Right,
,,,,,,,,,,,,,,,,,560,19,Woman,Right,5,75,0.15,2,180,0,0,0.23435590000008233,['n'],0.5477431000008437,1.556,2559.6709029,,,,,560,19,Woman,Right,
,,,,,,,,,,,,,,,,,560,19,Woman,Right,5,11,0.4,2,180,0,0,0.193402399999286,['y'],2.788082199999735,1.5779999999999998,2565.0542641999996,,,,,560,19,Woman,Right,
,,,,,,,,,,,,,,,,,560,19,Woman,Right,5,40,0.4,1,0,-,0,0.5662227999991956,['n'],0.36433190000025206,1.554,2568.3384953,,,,,560,19,Woman,Right,
,,,,,,,,,,,,,,,,,560,19,Woman,Right,5,69,0.15,2,0,180,180,0.35398780000014085,['n'],0.3969637000000148,1.588,2571.3544475000003,,,,,560,19,Woman,Right,
,,,,,,,,,,,,,,,,,560,19,Woman,Right,5,47,0.15,2,180,0,0,0.21037410000008094,['y'],0.9099077000000761,1.552,2574.7878143000003,,,,,560,19,Woman,Right,
,,,,,,,,,,,,,,,,,560,19,Woman,Right,5,35,0.4,2,180,0,0,0.7667290999997931,['y'],0.6876534000002721,1.552,2578.4209269999997,,,,,560,19,Woman,Right,
,,,,,,,,,,,,,,,,,560,19,Woman,Right,5,6,1,1,180,-,0,1.5493627999994715,['y'],0.5262891000002128,1.564,2582.7708478,,,,,560,19,Woman,Right,
,,,,,,,,,,,,,,,,,560,19,Woman,Right,5,38,0.4,1,180,-,0,0.536934900000233,['n'],0.29470130000026984,1.564,2585.8708825999997,,,,,560,19,Woman,Right,
,,,,,,,,,,,,,,,,,560,19,Woman,Right,5,41,0.4,2,0,180,180,1.428450200000043,['y'],0.31880289999935485,1.58,2590.0209056,,,,,560,19,Woman,Right,
,,,,,,,,,,,,,,,,,560,19,Woman,Right,5,70,0.15,1,180,-,0,0.7063757999994777,['n'],0.32784260000062204,1.54,2593.4209816,,,,,560,19,Woman,Right,
,,,,,,,,,,,,,,,,,560,19,Woman,Right,5,42,0.4,1,180,-,0,0.9003293999994639,['n'],0.1520079000001715,1.5899999999999999,2596.7710296,,,,,560,19,Woman,Right,
,,,,,,,,,,,,,,,,,560,19,Woman,Right,5,9,0.4,2,0,180,180,1.3721976999995604,['y'],0.3603600999995251,1.576,2600.9043262,,,,,560,19,Woman,Right,
,,,,,,,,,,,,,,,,,560,19,Woman,Right,5,3,1,2,180,0,0,0.6025947999996788,['y'],0.2492923999998311,1.6019999999999999,2603.9050517,,,,,560,19,Woman,Right,
,,,,,,,,,,,,,,,,,560,19,Woman,Right,5,68,0.15,1,0,-,0,0.3844925000003059,['n'],0.4580157999998846,1.576,2607.0209828,,,,,560,19,Woman,Right,
,,,,,,,,,,,,,,,,,560,19,Woman,Right,5,0,1,1,0,-,0,0.685480699999971,['n'],0.265508200000113,1.5819999999999999,2610.2710841000003,,,,,560,19,Woman,Right,
,,,,,,,,,,,,,,,,,560,19,Woman,Right,5,25,0.4,2,0,180,180,1.1943230999995649,['y'],0.7146060999994006,1.562,2614.387642,,,,,560,19,Woman,Right,
,,,,,,,,,,,,,,,,,560,19,Woman,Right,5,26,0.4,1,180,-,180,0.9353671999997459,['n'],1.339369600000282,1.1320000000000001,2619.3376476999997,,,,,560,19,Woman,Right,
,,,,,,,,,,,,,,,,,560,19,Woman,Right,5,32,0.4,1,0,-,0,0.9860395000005155,['n'],0.4351896999996825,1.564,2623.1543156000002,,,,,560,19,Woman,Right,
,,,,,,,,,,,,,,,,,560,19,Woman,Right,5,72,0.15,1,0,-,0,0.24113490000036109,['n'],0.3081609999999273,1.5779999999999998,2626.6045214,,,,,560,19,Woman,Right,
,,,,,,,,,,,,,,,,,560,19,Woman,Right,5,27,0.4,2,180,0,0,1.2182054000004428,['y'],1.2763253000002805,1.528,2631.6379088,,,,,560,19,Woman,Right,
,,,,,,,,,,,,,,,,,560,19,Woman,Right,5,2,1,1,180,-,0,2.680643599999712,['y'],0.7252219000001787,1.6360000000000001,2637.9383171000004,,,,,560,19,Woman,Right,
,,,,,,,,,,,,,,,,,560,19,Woman,Right,5,60,0.15,1,0,-,0,0.7701879000005647,['n'],0.31840899999951944,1.5899999999999999,2642.5212184999996,,,,,560,19,Woman,Right,
,,,,,,,,,,,,,,,,,560,19,Woman,Right,5,33,0.4,2,0,180,180,1.8567456999999195,['y'],0.15832709999995132,1.53,2647.7876775,,,,,560,19,Woman,Right,
,,,,,,,,,,,,,,,,,560,19,Woman,Right,5,17,0.4,2,0,180,180,0.8560837999993964,['y'],0.5827533000001495,1.558,2651.9876848,,,,,560,19,Woman,Right,
,,,,,,,,,,,,,,,,,,,,,,,,,,,,,,,,,60.0,87.5,57.5,2306.3108543,,,,,
