p_block,p_section,p_coherence,p_direction1,p_direction2,p_direction_response,p_direction_RT,p_change_response,p_change_RT,p_confidence,p_full_correct,p_without5_correct,p_full_total,p_without5_total,p_full_avg,p_witout5_avg,p_total_time,sub,age,sex,handedness,loop,trial randomization,coherence,condition,direction1,direction2,direction_response,direction_RT,change_response,change_RT,change_confidence,change_confidence_RT,block_direction_avg,block_stable_avg,block_change_avg,total_time,sub,age,sex,handedness,
1,1,1.0,180,-,180,0.4329968999954872,-,-,-,,,,,,,,526,18,Woman,Left,,,,,,,,,,,,,,,,,526,18,Woman,Left,
1,1,1.0,0,-,0,1.963207799999509,-,-,-,,,,,,,,526,18,Woman,Left,,,,,,,,,,,,,,,,,526,18,Woman,Left,
1,1,1.0,180,-,180,0.5037092000056873,-,-,-,,,,,,,,526,18,Woman,Left,,,,,,,,,,,,,,,,,526,18,Woman,Left,
1,1,1.0,180,-,180,0.3335369999986142,-,-,-,,,,,,,,526,18,Woman,Left,,,,,,,,,,,,,,,,,526,18,Woman,Left,
1,1,1.0,0,-,0,0.016853699999046512,-,-,-,,,,,,,,526,18,Woman,Left,,,,,,,,,,,,,,,,,526,18,Woman,Left,
1,1,1.0,180,-,180,0.7166769000032218,-,-,-,,,,,,,,526,18,Woman,Left,,,,,,,,,,,,,,,,,526,18,Woman,Left,
1,1,1.0,0,-,0,0.22554780000064056,-,-,-,,,,,,,,526,18,Woman,Left,,,,,,,,,,,,,,,,,526,18,Woman,Left,
1,1,1.0,180,-,180,0.044638699997449294,-,-,-,,,,,,,,526,18,Woman,Left,,,,,,,,,,,,,,,,,526,18,Woman,Left,
1,1,1.0,0,-,0,0.016821899997012224,-,-,-,,,,,,,,526,18,Woman,Left,,,,,,,,,,,,,,,,,526,18,Woman,Left,
1,1,1.0,180,-,180,0.016426499998487998,-,-,-,10,10,10,10,1.0,1.0,,526,18,Woman,Left,,,,,,,,,,,,,,,,,526,18,Woman,Left,
2,1,0.15,0,-,180,0.9304422999994131,-,-,-,,,,,,,,526,18,Woman,Left,,,,,,,,,,,,,,,,,526,18,Woman,Left,
2,1,0.4,0,-,0,0.34415810000064084,-,-,-,,,,,,,,526,18,Woman,Left,,,,,,,,,,,,,,,,,526,18,Woman,Left,
2,1,0.15,180,-,180,0.08449429999745917,-,-,-,,,,,,,,526,18,Woman,Left,,,,,,,,,,,,,,,,,526,18,Woman,Left,
2,1,0.15,180,-,180,0.6125639000019873,-,-,-,,,,,,,,526,18,Woman,Left,,,,,,,,,,,,,,,,,526,18,Woman,Left,
2,1,0.4,0,-,0,0.1031217000054312,-,-,-,,,,,,,,526,18,Woman,Left,,,,,,,,,,,,,,,,,526,18,Woman,Left,
2,1,0.4,180,-,180,0.01635330000135582,-,-,-,,,,,,,,526,18,Woman,Left,,,,,,,,,,,,,,,,,526,18,Woman,Left,
2,1,0.4,180,-,180,0.5035236000039731,-,-,-,,,,,,,,526,18,Woman,Left,,,,,,,,,,,,,,,,,526,18,Woman,Left,
2,1,0.15,0,-,180,0.016533499998331536,-,-,-,,,,,,,,526,18,Woman,Left,,,,,,,,,,,,,,,,,526,18,Woman,Left,
2,1,0.15,0,-,180,1.3285232999987784,-,-,-,,,,,,,,526,18,Woman,Left,,,,,,,,,,,,,,,,,526,18,Woman,Left,
2,1,0.4,180,-,180,0.2547779000014998,-,-,-,7,5,10,5,0.7,1.0,,526,18,Woman,Left,,,,,,,,,,,,,,,,,526,18,Woman,Left,
3,2,1.0,180,0,0,1.564789900003234,['n'],3.2013201999943703,1.064,,,,,,,,526,18,Woman,Left,,,,,,,,,,,,,,,,,526,18,Woman,Left,
3,2,1.0,180,0,0,2.2403129000012996,['y'],0.02543380000133766,1.988,,,,,,,,526,18,Woman,Left,,,,,,,,,,,,,,,,,526,18,Woman,Left,
3,2,1.0,180,0,0,1.2781995000041206,['y'],0.08611999999993714,1.966,,,,,,,,526,18,Woman,Left,,,,,,,,,,,,,,,,,526,18,Woman,Left,
3,2,1.0,0,180,180,0.9942060000030324,['y'],0.9573442000037176,1.966,,,,,,,,526,18,Woman,Left,,,,,,,,,,,,,,,,,526,18,Woman,Left,
3,2,1.0,0,180,180,0.6493026000025566,['y'],0.4483064000014565,1.972,,,,,,,,526,18,Woman,Left,,,,,,,,,,,,,,,,,526,18,Woman,Left,
3,2,1.0,180,0,180,0.7256739000004018,['y'],1.3940479000011692,1.97,,,,,,,,526,18,Woman,Left,,,,,,,,,,,,,,,,,526,18,Woman,Left,
3,2,1.0,0,180,180,0.36681379999936325,['y'],0.5175453000047128,1.924,,,,,,,,526,18,Woman,Left,,,,,,,,,,,,,,,,,526,18,Woman,Left,
3,2,1.0,180,0,0,0.7755649000027915,['y'],0.3464187000063248,1.974,,,,,,,,526,18,Woman,Left,,,,,,,,,,,,,,,,,526,18,Woman,Left,
3,2,1.0,180,0,0,0.9037917999958154,['y'],0.3427391000004718,1.984,,,,,,,,526,18,Woman,Left,,,,,,,,,,,,,,,,,526,18,Woman,Left,
3,2,1.0,0,180,180,1.1791808999987552,['y'],0.3270252000002074,1.946,9,9,10,10,0.9,0.9,,526,18,Woman,Left,,,,,,,,,,,,,,,,,526,18,Woman,Left,
4,2,0.4,0,180,180,1.987578600004781,['n'],1.734936299995752,1.298,,,,,,,,526,18,Woman,Left,,,,,,,,,,,,,,,,,526,18,Woman,Left,
4,2,0.15,0,180,0,1.43625510000129,['y'],0.48640159999922616,1.6099999999999999,,,,,,,,526,18,Woman,Left,,,,,,,,,,,,,,,,,526,18,Woman,Left,
4,2,0.4,180,0,0,0.8833324000006542,['y'],0.33837250000215136,1.756,,,,,,,,526,18,Woman,Left,,,,,,,,,,,,,,,,,526,18,Woman,Left,
4,2,0.4,0,180,180,0.5830242000010912,['y'],0.13611250000394648,1.814,,,,,,,,526,18,Woman,Left,,,,,,,,,,,,,,,,,526,18,Woman,Left,
4,2,0.15,0,180,0,2.9161229000019375,['n'],0.30570159999479074,1.166,,,,,,,,526,18,Woman,Left,,,,,,,,,,,,,,,,,526,18,Woman,Left,
4,2,0.4,180,0,0,0.6523058999955538,['y'],0.36478250000072876,1.72,,,,,,,,526,18,Woman,Left,,,,,,,,,,,,,,,,,526,18,Woman,Left,
4,2,0.15,0,180,180,0.868887700002233,['y'],0.4277231000014581,1.8820000000000001,,,,,,,,526,18,Woman,Left,,,,,,,,,,,,,,,,,526,18,Woman,Left,
4,2,0.15,0,180,180,0.4674490000033984,['y'],0.23485730000538751,1.326,,,,,,,,526,18,Woman,Left,,,,,,,,,,,,,,,,,526,18,Woman,Left,
4,2,0.15,0,180,0,2.778951300002518,['n'],0.8478037999957451,1.298,,,,,,,,526,18,Woman,Left,,,,,,,,,,,,,,,,,526,18,Woman,Left,
4,2,0.15,0,180,180,3.300509000000602,['n'],0.9759544999978971,1.3479999999999999,7,4,10,4,0.7,1.0,,526,18,Woman,Left,,,,,,,,,,,,,,,,,526,18,Woman,Left,
5,3,0.15,0,180,180,1.5651141999987885,['n'],1.4081881000020076,1.3519999999999999,,,,,,,,526,18,Woman,Left,,,,,,,,,,,,,,,,,526,18,Woman,Left,
5,3,0.15,180,0,0,0.9092992000005324,['y'],0.4513972000058857,1.726,,,,,,,,526,18,Woman,Left,,,,,,,,,,,,,,,,,526,18,Woman,Left,
5,3,0.15,0,-,180,0.8231793000013568,['n'],1.5047809000025154,1.8940000000000001,,,,,,,,526,18,Woman,Left,,,,,,,,,,,,,,,,,526,18,Woman,Left,
5,3,0.15,0,180,180,1.6704339000061736,['y'],1.6153393999993568,1.786,,,,,,,,526,18,Woman,Left,,,,,,,,,,,,,,,,,526,18,Woman,Left,
5,3,0.15,0,-,180,1.7663603000037256,['n'],0.4968118000033428,1.846,,,,,,,,526,18,Woman,Left,,,,,,,,,,,,,,,,,526,18,Woman,Left,
5,3,0.4,180,-,0,1.1289767999987816,['y'],0.8642061999998987,1.304,,,,,,,,526,18,Woman,Left,,,,,,,,,,,,,,,,,526,18,Woman,Left,
5,3,1.0,180,-,180,1.9298770000023069,['n'],0.3911262000037823,1.976,,,,,,,,526,18,Woman,Left,,,,,,,,,,,,,,,,,526,18,Woman,Left,
5,3,0.15,0,-,180,1.7677928000048269,['n'],1.2732506999964244,1.846,,,,,,,,526,18,Woman,Left,,,,,,,,,,,,,,,,,526,18,Woman,Left,
5,3,0.4,0,180,180,0.8551995000016177,['y'],0.3353992999982438,1.768,,,,,,,,526,18,Woman,Left,,,,,,,,,,,,,,,,,526,18,Woman,Left,
5,3,0.4,180,-,180,0.7637051999990945,['n'],0.3197216999978991,1.8,,,,,,,,526,18,Woman,Left,,,,,,,,,,,,,,,,,526,18,Woman,Left,
5,3,0.15,180,0,0,1.2818409000028623,['y'],0.27423089999501826,1.834,,,,,,,,526,18,Woman,Left,,,,,,,,,,,,,,,,,526,18,Woman,Left,
5,3,0.15,0,180,180,1.7135821999982,['n'],0.33627569999953266,1.282,,,,,,,,526,18,Woman,Left,,,,,,,,,,,,,,,,,526,18,Woman,Left,
5,3,1.0,0,-,180,1.8472440000041388,['n'],1.4007601000048453,1.962,,,,,,,,526,18,Woman,Left,,,,,,,,,,,,,,,,,526,18,Woman,Left,
5,3,1.0,180,0,0,1.3161891999989166,['y'],0.28139850000297884,1.784,,,,,,,,526,18,Woman,Left,,,,,,,,,,,,,,,,,526,18,Woman,Left,
5,3,1.0,0,180,180,0.7815655000013066,['y'],0.9050187999964692,1.982,,,,,,,,526,18,Woman,Left,,,,,,,,,,,,,,,,,526,18,Woman,Left,
5,3,0.4,180,-,180,1.6933184000008623,['n'],0.31666630000108853,1.984,,,,,,,,526,18,Woman,Left,,,,,,,,,,,,,,,,,526,18,Woman,Left,
5,3,0.4,180,0,0,0.6503641999952379,['y'],0.3386967000042205,1.8719999999999999,,,,,,,,526,18,Woman,Left,,,,,,,,,,,,,,,,,526,18,Woman,Left,
5,3,0.15,0,-,0,1.2413047999943956,['n'],0.2665837000022293,1.912,,,,,,,,526,18,Woman,Left,,,,,,,,,,,,,,,,,526,18,Woman,Left,
5,3,0.15,0,-,180,1.155912400005036,['n'],0.30431120000139344,1.924,,,,,,,,526,18,Woman,Left,,,,,,,,,,,,,,,,,526,18,Woman,Left,
5,3,0.15,0,-,0,0.48008820000541164,['n'],1.0090321000025142,1.91,8,4,10,5,0.8,0.8,,526,18,Woman,Left,,,,,,,,,,,,,,,,,526,18,Woman,Left,
,,,,,,,,,,,,,,,,5.30000397702679e-06,526,18,Woman,Left,,,,,,,,,,,,,,,,,526,18,Woman,Left,
,,,,,,,,,,,,,,,,,526,18,Woman,Left,0,72,0.15,1,0,-,180,0.8865053999979864,['y'],2.0644279999978608,1.65,377.1828991000002,,,,,526,18,Woman,Left,
,,,,,,,,,,,,,,,,,526,18,Woman,Left,0,46,0.15,1,180,-,180,0.8678881000014371,['n'],0.8160095999992336,1.734,382.43292669999937,,,,,526,18,Woman,Left,
,,,,,,,,,,,,,,,,,526,18,Woman,Left,0,5,1,2,0,180,180,1.3366069000039715,['y'],1.5910416999977315,1.996,388.43381619999855,,,,,526,18,Woman,Left,
,,,,,,,,,,,,,,,,,526,18,Woman,Left,0,38,0.4,1,180,-,180,1.0276046999933897,['n'],1.312261099999887,1.8719999999999999,393.8497100999957,,,,,526,18,Woman,Left,
,,,,,,,,,,,,,,,,,526,18,Woman,Left,0,17,0.4,2,0,180,180,0.698292400003993,['y'],0.9193718000024091,1.846,398.76687870000023,,,,,526,18,Woman,Left,
,,,,,,,,,,,,,,,,,526,18,Woman,Left,0,39,0.4,2,180,0,0,1.2004850000012084,['y'],0.807261699999799,1.8559999999999999,403.899516999998,,,,,526,18,Woman,Left,
,,,,,,,,,,,,,,,,,526,18,Woman,Left,0,26,0.4,1,180,-,180,1.3707702999963658,['n'],1.048613099999784,1.692,409.15025369999785,,,,,526,18,Woman,Left,
,,,,,,,,,,,,,,,,,526,18,Woman,Left,0,62,0.15,1,180,-,180,1.2178008999981103,['n'],0.9035978999963845,1.772,414.38313869999547,,,,,526,18,Woman,Left,
,,,,,,,,,,,,,,,,,526,18,Woman,Left,0,57,0.15,2,0,180,0,1.768939900000987,['y'],1.8955134000061662,1.674,421.4669092999975,,,,,526,18,Woman,Left,
,,,,,,,,,,,,,,,,,526,18,Woman,Left,0,33,0.4,2,0,180,0,1.680512599996291,['y'],1.3039185000016005,1.312,427.799526099996,,,,,526,18,Woman,Left,
,,,,,,,,,,,,,,,,,526,18,Woman,Left,0,12,0.4,1,0,-,0,2.347696300006646,['n'],1.4708587000059197,1.408,434.51693299999897,,,,,526,18,Woman,Left,
,,,,,,,,,,,,,,,,,526,18,Woman,Left,0,36,0.4,1,0,-,180,1.495716600002197,['y'],1.2560493999990285,1.8,439.8504160999946,,,,,526,18,Woman,Left,
,,,,,,,,,,,,,,,,,526,18,Woman,Left,0,6,1,1,180,-,180,0.562643700002809,['n'],0.9513263999979245,1.822,444.9343585999959,,,,,526,18,Woman,Left,
,,,,,,,,,,,,,,,,,526,18,Woman,Left,0,45,0.15,2,0,180,180,1.7433707999953185,['y'],1.231738000002224,1.782,452.51619379999465,,,,,526,18,Woman,Left,
,,,,,,,,,,,,,,,,,526,18,Woman,Left,0,24,0.4,1,0,-,0,0.9568910000016331,['n'],1.3683748999974341,1.734,457.89942229999724,,,,,526,18,Woman,Left,
,,,,,,,,,,,,,,,,,526,18,Woman,Left,0,47,0.15,2,180,0,180,1.5166081999996095,['n'],0.6955789000057848,1.634,462.58352809999633,,,,,526,18,Woman,Left,
,,,,,,,,,,,,,,,,,526,18,Woman,Left,0,9,0.4,2,0,180,180,0.6182086000044364,['y'],0.7189236999984132,1.772,467.2662254999959,,,,,526,18,Woman,Left,
,,,,,,,,,,,,,,,,,526,18,Woman,Left,0,16,0.4,1,0,-,0,1.2225381000025664,['n'],1.0554646000018693,1.776,472.0497108999989,,,,,526,18,Woman,Left,
,,,,,,,,,,,,,,,,,526,18,Woman,Left,0,41,0.4,2,0,180,180,1.6062471000041114,['y'],0.759126799996011,1.9060000000000001,477.0493939999942,,,,,526,18,Woman,Left,
,,,,,,,,,,,,,,,,,526,18,Woman,Left,0,76,0.15,1,0,-,180,1.1737155999944662,['n'],2.7121036000025924,1.756,483.7161663000006,,,,,526,18,Woman,Left,
,,,,,,,,,,,,,,,,,526,18,Woman,Left,0,64,0.15,1,0,-,0,2.375969000000623,['n'],1.440153300005477,1.77,490.1662354,,,,,526,18,Woman,Left,
,,,,,,,,,,,,,,,,,526,18,Woman,Left,0,25,0.4,2,0,180,180,1.0539224000021932,['y'],0.7678453999978956,1.952,494.8001252999966,,,,,526,18,Woman,Left,
,,,,,,,,,,,,,,,,,526,18,Woman,Left,0,65,0.15,2,0,180,0,0.8663176999980351,['n'],0.6799606999993557,1.78,499.3327544999993,,,,,526,18,Woman,Left,
,,,,,,,,,,,,,,,,,526,18,Woman,Left,0,43,0.4,2,180,0,0,0.8888277000005473,['y'],0.7276478999992833,1.954,503.9661039999992,,,,,526,18,Woman,Left,
,,,,,,,,,,,,,,,,,526,18,Woman,Left,0,71,0.15,2,180,0,0,0.9922516999940854,['y'],1.8158154000047944,1.836,509.39951440000004,,,,,526,18,Woman,Left,
,,,,,,,,,,,,,,,,,526,18,Woman,Left,0,11,0.4,2,180,0,0,0.6288285999980872,['y'],0.6795045000035316,1.816,513.1994505999974,,,,,526,18,Woman,Left,
,,,,,,,,,,,,,,,,,526,18,Woman,Left,0,63,0.15,2,180,0,0,0.9491572999977507,['y'],0.7199013999997987,1.8820000000000001,517.4001179999977,,,,,526,18,Woman,Left,
,,,,,,,,,,,,,,,,,526,18,Woman,Left,0,54,0.15,1,180,-,180,2.346048500003235,['n'],0.9351081000058912,1.724,523.2660699999979,,,,,526,18,Woman,Left,
,,,,,,,,,,,,,,,,,526,18,Woman,Left,0,20,0.4,1,0,-,0,0.7814451000012923,['n'],0.6155068000007304,1.67,527.2345448999986,,,,,526,18,Woman,Left,
,,,,,,,,,,,,,,,,,526,18,Woman,Left,0,15,0.4,2,180,0,0,0.7591530999998213,['y'],0.6395515000040177,1.758,531.5660327000005,,,,,526,18,Woman,Left,
,,,,,,,,,,,,,,,,,526,18,Woman,Left,0,60,0.15,1,0,-,180,1.4379763999968418,['n'],0.5916784000000916,1.6320000000000001,536.3828711999959,,,,,526,18,Woman,Left,
,,,,,,,,,,,,,,,,,526,18,Woman,Left,0,0,1,1,0,-,0,0.6185312000015983,['n'],1.1190400999985286,1.8860000000000001,541.0667749999993,,,,,526,18,Woman,Left,
,,,,,,,,,,,,,,,,,526,18,Woman,Left,0,31,0.4,2,180,0,0,1.0309659999984433,['y'],1.1514392000026419,1.6219999999999999,545.7500718999945,,,,,526,18,Woman,Left,
,,,,,,,,,,,,,,,,,526,18,Woman,Left,0,29,0.4,2,0,180,180,0.4758434000032139,['y'],0.9358358000026783,1.688,550.016026199999,,,,,526,18,Woman,Left,
,,,,,,,,,,,,,,,,,526,18,Woman,Left,0,30,0.4,1,180,-,180,2.073210900001868,['n'],0.7992615999974078,1.354,556.0500102000005,,,,,526,18,Woman,Left,
,,,,,,,,,,,,,,,,,526,18,Woman,Left,0,48,0.15,1,0,-,0,1.4345679999969434,['n'],1.1758105000044452,1.3439999999999999,561.6828309999983,,,,,526,18,Woman,Left,
,,,,,,,,,,,,,,,,,526,18,Woman,Left,0,2,1,1,180,-,180,0.8254181999946013,['n'],0.9354771999933291,1.8940000000000001,566.8833565999958,,,,,526,18,Woman,Left,
,,,,,,,,,,,,,,,,,526,18,Woman,Left,0,27,0.4,2,180,0,0,0.8749915000007604,['y'],0.6961293999993359,1.736,571.1000882999942,,,,,526,18,Woman,Left,
,,,,,,,,,,,,,,,,,526,18,Woman,Left,0,69,0.15,2,0,180,180,0.5698707999981707,['y'],1.1199504999967758,1.772,575.5836890999999,,,,,526,18,Woman,Left,
,,,,,,,,,,,,,,,,,526,18,Woman,Left,0,70,0.15,1,180,-,180,1.858013100005337,['y'],0.7351930000004359,1.1059999999999999,581.8826402999985,,,,,526,18,Woman,Left,
,,,,,,,,,,,,,,,,,526,18,Woman,Left,0,68,0.15,1,0,-,0,1.1147701000008965,['n'],0.6957011999984388,1.794,586.6335712,,,,,526,18,Woman,Left,
,,,,,,,,,,,,,,,,,526,18,Woman,Left,0,77,0.15,2,0,180,180,0.6544763999991119,['n'],3.5834376999991946,1.4140000000000001,593.5995646999945,,,,,526,18,Woman,Left,
,,,,,,,,,,,,,,,,,526,18,Woman,Left,0,34,0.4,1,180,-,180,0.7990231000003405,['n'],0.5752496000059182,1.834,597.7659029999995,,,,,526,18,Woman,Left,
,,,,,,,,,,,,,,,,,526,18,Woman,Left,0,52,0.15,1,0,-,180,0.835625899999286,['n'],0.47101349999866216,1.684,601.5999759999977,,,,,526,18,Woman,Left,
,,,,,,,,,,,,,,,,,526,18,Woman,Left,0,40,0.4,1,0,-,0,0.4713162000043667,['n'],0.8077151000034064,1.742,605.899333399997,,,,,526,18,Woman,Left,
,,,,,,,,,,,,,,,,,526,18,Woman,Left,0,73,0.15,2,0,180,180,3.663521899994521,['n'],1.0873394000009284,1.79,613.3999482999934,,,,,526,18,Woman,Left,
,,,,,,,,,,,,,,,,,526,18,Woman,Left,0,21,0.4,2,0,180,180,1.1065448000008473,['y'],0.6317093999969075,1.74,617.9325783999957,,,,,526,18,Woman,Left,
,,,,,,,,,,,,,,,,,526,18,Woman,Left,0,59,0.15,2,180,0,0,1.069934999999532,['y'],1.2790190999949118,1.692,622.8326071999982,,,,,526,18,Woman,Left,
,,,,,,,,,,,,,,,,,526,18,Woman,Left,0,13,0.4,2,0,180,180,1.0844120999972802,['y'],0.7837269000010565,1.8599999999999999,627.5325572000002,,,,,526,18,Woman,Left,
,,,,,,,,,,,,,,,,,526,18,Woman,Left,0,78,0.15,1,180,-,0,1.185867899999721,['n'],1.9038817999971798,1.708,633.1170850999988,,,,,526,18,Woman,Left,
,,,,,,,,,,,,,,,,,526,18,Woman,Left,0,66,0.15,1,180,-,180,1.8904301000002306,['n'],0.8639277000038419,1.6400000000000001,638.3992942999976,,,,,526,18,Woman,Left,
,,,,,,,,,,,,,,,,,526,18,Woman,Left,0,37,0.4,2,0,180,180,1.0609583999976167,['y'],0.7517794000013964,1.806,642.7500086,,,,,526,18,Woman,Left,
,,,,,,,,,,,,,,,,,526,18,Woman,Left,0,35,0.4,2,180,0,0,0.9834970000010799,['y'],1.0474710000053165,1.914,647.3659469999984,,,,,526,18,Woman,Left,
,,,,,,,,,,,,,,,,,526,18,Woman,Left,0,4,1,1,0,-,0,1.8811655999961658,['n'],0.5118139999976847,1.846,652.3326675999997,,,,,526,18,Woman,Left,
,,,,,,,,,,,,,,,,,526,18,Woman,Left,0,19,0.4,2,180,0,0,1.3001756000012392,['y'],0.8950858999960474,1.822,657.4330768999935,,,,,526,18,Woman,Left,
,,,,,,,,,,,,,,,,,526,18,Woman,Left,0,67,0.15,2,180,0,0,1.199690699999337,['y'],0.8789283000005526,1.796,662.1668091999964,,,,,526,18,Woman,Left,
,,,,,,,,,,,,,,,,,526,18,Woman,Left,0,23,0.4,2,180,0,0,0.689701100003731,['y'],0.520141799999692,1.742,665.915857299995,,,,,526,18,Woman,Left,
,,,,,,,,,,,,,,,,,526,18,Woman,Left,0,3,1,2,180,0,0,0.49283809999906225,['y'],0.4551410999993095,1.73,669.716148499996,,,,,526,18,Woman,Left,
,,,,,,,,,,,,,,,,,526,18,Woman,Left,0,56,0.15,1,0,-,180,1.4178526000032434,['n'],1.2078555999978562,1.732,675.4501189000002,,,,,526,18,Woman,Left,
,,,,,,,,,,,,,,,,,526,18,Woman,Left,0,79,0.15,2,180,0,0,1.1207166999956826,['y'],0.7441532000011648,1.816,679.8833277999947,,,,,526,18,Woman,Left,
,,,,,,,,,,,,,,,,,526,18,Woman,Left,0,1,1,2,0,180,180,0.3872219999975641,['y'],0.6394393000009586,1.768,683.3998269000003,,,,,526,18,Woman,Left,
,,,,,,,,,,,,,,,,,526,18,Woman,Left,0,51,0.15,2,180,0,0,2.9097664000000805,['n'],0.6957813999979408,1.674,689.6325555000003,,,,,526,18,Woman,Left,
,,,,,,,,,,,,,,,,,526,18,Woman,Left,0,22,0.4,1,180,-,180,1.7522372000021278,['y'],0.7602037000033306,1.576,694.8835087999978,,,,,526,18,Woman,Left,
,,,,,,,,,,,,,,,,,526,18,Woman,Left,0,50,0.15,1,180,-,0,1.6384716000029584,['n'],0.6232967000032659,1.708,699.6661471999978,,,,,526,18,Woman,Left,
,,,,,,,,,,,,,,,,,526,18,Woman,Left,0,61,0.15,2,0,180,180,0.8921929999996792,['n'],1.527259900001809,1.21,706.4998126999999,,,,,526,18,Woman,Left,
,,,,,,,,,,,,,,,,,526,18,Woman,Left,0,8,0.4,1,0,-,0,0.9221634999994421,['n'],0.7037420999986352,1.69,710.6658682999987,,,,,526,18,Woman,Left,
,,,,,,,,,,,,,,,,,526,18,Woman,Left,0,53,0.15,2,0,180,0,1.7912600999989081,['n'],0.4077991999947699,1.5899999999999999,715.4500052999938,,,,,526,18,Woman,Left,
,,,,,,,,,,,,,,,,,526,18,Woman,Left,0,32,0.4,1,0,-,0,0.7274421999973129,['n'],0.7521345999994082,1.6520000000000001,719.6667985999957,,,,,526,18,Woman,Left,
,,,,,,,,,,,,,,,,,526,18,Woman,Left,0,44,0.15,1,0,-,0,0.811760199998389,['n'],0.6399087000027066,1.5819999999999999,723.6999899000002,,,,,526,18,Woman,Left,
,,,,,,,,,,,,,,,,,526,18,Woman,Left,0,75,0.15,2,180,0,180,0.9384477999992669,['y'],1.0394510999976774,1.21,729.2834867999991,,,,,526,18,Woman,Left,
,,,,,,,,,,,,,,,,,526,18,Woman,Left,0,7,1,2,180,0,0,0.7992264999993495,['y'],0.4630481999993208,1.736,733.2170292999945,,,,,526,18,Woman,Left,
,,,,,,,,,,,,,,,,,526,18,Woman,Left,0,14,0.4,1,180,-,180,0.8799730999962776,['n'],0.8475765000039246,1.558,738.2990726999997,,,,,526,18,Woman,Left,
,,,,,,,,,,,,,,,,,526,18,Woman,Left,0,58,0.15,1,180,-,180,0.7195722999967984,['n'],1.1435328999941703,1.6360000000000001,743.3167642999979,,,,,526,18,Woman,Left,
,,,,,,,,,,,,,,,,,526,18,Woman,Left,0,55,0.15,2,180,0,0,1.2094307000006665,['y'],0.7995139999984531,1.724,748.349288999998,,,,,526,18,Woman,Left,
,,,,,,,,,,,,,,,,,526,18,Woman,Left,0,28,0.4,1,0,-,0,1.0958434999993187,['n'],0.687116100001731,1.654,752.7157605999964,,,,,526,18,Woman,Left,
,,,,,,,,,,,,,,,,,526,18,Woman,Left,0,49,0.15,2,0,180,180,2.193317699995532,['n'],0.6234801999962656,1.702,758.5668941999975,,,,,526,18,Woman,Left,
,,,,,,,,,,,,,,,,,526,18,Woman,Left,0,18,0.4,1,180,-,180,1.0241334999955143,['n'],0.6556419999978971,1.68,762.6491319999986,,,,,526,18,Woman,Left,
,,,,,,,,,,,,,,,,,526,18,Woman,Left,0,42,0.4,1,180,-,180,0.4525768999956199,['n'],0.6075575000068056,1.7,765.9831339999946,,,,,526,18,Woman,Left,
,,,,,,,,,,,,,,,,,526,18,Woman,Left,0,10,0.4,1,180,-,180,0.45341900000494206,['n'],1.3120572000043467,1.7,770.9656451999981,,,,,526,18,Woman,Left,
,,,,,,,,,,,,,,,,,526,18,Woman,Left,0,74,0.15,1,180,-,180,1.3480109000010998,['n'],0.43205300000408897,1.646,775.5668417999987,,,,,526,18,Woman,Left,
,,,,,,,,,,,,,,,,,526,18,Woman,Left,1,41,0.4,2,0,180,180,1.6258996000033221,['y'],1.8079702999966685,1.982,801.7997830999957,82.5,90.0,80.0,,526,18,Woman,Left,
,,,,,,,,,,,,,,,,,526,18,Woman,Left,1,39,0.4,2,180,0,0,0.8125806999960332,['y'],1.0157866000008653,1.808,806.1990987999961,,,,,526,18,Woman,Left,
,,,,,,,,,,,,,,,,,526,18,Woman,Left,1,70,0.15,1,180,-,180,1.8150488999963272,['n'],0.9358422000004794,1.6019999999999999,811.7495144999993,,,,,526,18,Woman,Left,
,,,,,,,,,,,,,,,,,526,18,Woman,Left,1,31,0.4,2,180,0,0,0.8416966000004322,['y'],0.8714152000029571,1.698,815.7657219999965,,,,,526,18,Woman,Left,
,,,,,,,,,,,,,,,,,526,18,Woman,Left,1,43,0.4,2,180,0,0,0.6876998999941861,['y'],0.9116777000017464,1.866,819.6324408999935,,,,,526,18,Woman,Left,
,,,,,,,,,,,,,,,,,526,18,Woman,Left,1,27,0.4,2,180,0,0,0.8781396999984281,['y'],0.6400199000054272,1.78,823.5657930999951,,,,,526,18,Woman,Left,
,,,,,,,,,,,,,,,,,526,18,Woman,Left,1,72,0.15,1,0,-,180,1.4607900999981211,['n'],0.742978200003563,1.5939999999999999,829.0490322999976,,,,,526,18,Woman,Left,
,,,,,,,,,,,,,,,,,526,18,Woman,Left,1,17,0.4,2,0,180,180,0.8245787999985623,['y'],0.7195673000023817,1.778,832.9834814999995,,,,,526,18,Woman,Left,
,,,,,,,,,,,,,,,,,526,18,Woman,Left,1,0,1,1,0,-,0,1.0348413000028813,['n'],0.7034688999992795,1.654,837.0162012999936,,,,,526,18,Woman,Left,
,,,,,,,,,,,,,,,,,526,18,Woman,Left,1,71,0.15,2,180,0,180,0.8239782999953604,['n'],2.43205680000392,1.4100000000000001,843.2332953000005,,,,,526,18,Woman,Left,
,,,,,,,,,,,,,,,,,526,18,Woman,Left,1,19,0.4,2,180,0,0,0.7201628999973764,['y'],0.9114769000007072,1.6400000000000001,847.2323776999983,,,,,526,18,Woman,Left,
,,,,,,,,,,,,,,,,,526,18,Woman,Left,1,40,0.4,1,0,-,0,0.7298406999980216,['y'],0.9751690999983111,1.3599999999999999,852.9330973999968,,,,,526,18,Woman,Left,
,,,,,,,,,,,,,,,,,526,18,Woman,Left,1,44,0.15,1,0,-,180,1.4659968000050867,['n'],1.3913049000038882,1.57,858.6831256000005,,,,,526,18,Woman,Left,
,,,,,,,,,,,,,,,,,526,18,Woman,Left,1,14,0.4,1,180,-,180,0.6241481999968528,['n'],0.8797661999997217,1.558,862.8998522999973,,,,,526,18,Woman,Left,
,,,,,,,,,,,,,,,,,526,18,Woman,Left,1,38,0.4,1,180,-,180,2.2315677000005962,['n'],0.5684193999913987,1.6099999999999999,869.1164008999986,,,,,526,18,Woman,Left,
,,,,,,,,,,,,,,,,,526,18,Woman,Left,1,62,0.15,1,180,-,180,1.1957253000000492,['n'],0.7832262000010815,1.552,873.9656947999974,,,,,526,18,Woman,Left,
,,,,,,,,,,,,,,,,,526,18,Woman,Left,1,57,0.15,2,0,180,0,1.0142836999875726,['n'],0.5832302999915555,1.6280000000000001,878.1665750000029,,,,,526,18,Woman,Left,
,,,,,,,,,,,,,,,,,526,18,Woman,Left,1,45,0.15,2,0,180,0,1.013058500000625,['n'],0.6798526000056881,1.642,882.2496808999931,,,,,526,18,Woman,Left,
,,,,,,,,,,,,,,,,,526,18,Woman,Left,1,37,0.4,2,0,180,180,1.3499188999994658,['y'],0.6786578000028385,1.608,886.6489724999919,,,,,526,18,Woman,Left,
,,,,,,,,,,,,,,,,,526,18,Woman,Left,1,69,0.15,2,0,180,180,1.4511156000080518,['n'],2.1595433999900706,1.672,893.0830178999968,,,,,526,18,Woman,Left,
,,,,,,,,,,,,,,,,,526,18,Woman,Left,1,78,0.15,1,180,-,0,1.7822803000017302,['n'],0.5114677999954438,1.612,898.0829468999946,,,,,526,18,Woman,Left,
,,,,,,,,,,,,,,,,,526,18,Woman,Left,1,53,0.15,2,0,180,180,0.8398185999976704,['n'],1.423982199994498,1.616,902.5829950999978,,,,,526,18,Woman,Left,
,,,,,,,,,,,,,,,,,526,18,Woman,Left,1,47,0.15,2,180,0,0,2.1568862999993144,['n'],1.471526699999231,1.6320000000000001,908.949663600004,,,,,526,18,Woman,Left,
,,,,,,,,,,,,,,,,,526,18,Woman,Left,1,75,0.15,2,180,0,180,0.39726640000299085,['n'],0.7031451000075322,1.592,912.8655830999996,,,,,526,18,Woman,Left,
,,,,,,,,,,,,,,,,,526,18,Woman,Left,1,66,0.15,1,180,-,180,0.767637899989495,['n'],0.6876345000055153,1.63,916.6488974000022,,,,,526,18,Woman,Left,
,,,,,,,,,,,,,,,,,526,18,Woman,Left,1,15,0.4,2,180,0,0,0.922290200003772,['y'],1.1914336000045296,1.752,921.2655674999914,,,,,526,18,Woman,Left,
,,,,,,,,,,,,,,,,,526,18,Woman,Left,1,58,0.15,1,180,-,180,0.45929070000420325,['n'],1.3595037999912165,1.646,925.7495732000025,,,,,526,18,Woman,Left,
,,,,,,,,,,,,,,,,,526,18,Woman,Left,1,49,0.15,2,0,180,180,1.7398571999947308,['y'],0.5035474000032991,1.682,930.2663742999939,,,,,526,18,Woman,Left,
,,,,,,,,,,,,,,,,,526,18,Woman,Left,1,3,1,2,180,0,0,0.8043437000014819,['y'],0.8320505000010598,1.814,934.2495210999987,,,,,526,18,Woman,Left,
,,,,,,,,,,,,,,,,,526,18,Woman,Left,1,26,0.4,1,180,-,0,0.5718041000072844,['y'],0.8068009999988135,1.768,938.0822276000035,,,,,526,18,Woman,Left,
,,,,,,,,,,,,,,,,,526,18,Woman,Left,1,60,0.15,1,0,-,0,0.8537227000051644,['y'],0.4469130999932531,1.742,943.0656242000041,,,,,526,18,Woman,Left,
,,,,,,,,,,,,,,,,,526,18,Woman,Left,1,42,0.4,1,180,-,0,1.287584000005154,['y'],0.5279842999880202,1.69,947.2329124000025,,,,,526,18,Woman,Left,
,,,,,,,,,,,,,,,,,526,18,Woman,Left,1,59,0.15,2,180,0,0,1.415224299998954,['y'],1.1198449000075925,1.624,952.8665415999931,,,,,526,18,Woman,Left,
,,,,,,,,,,,,,,,,,526,18,Woman,Left,1,68,0.15,1,0,-,0,2.766624800002319,['y'],0.7514594999956898,1.6139999999999999,958.9489265999946,,,,,526,18,Woman,Left,
,,,,,,,,,,,,,,,,,526,18,Woman,Left,1,76,0.15,1,0,-,180,0.7333817999897292,['y'],0.4538412999972934,1.572,962.7333258999934,,,,,526,18,Woman,Left,
,,,,,,,,,,,,,,,,,526,18,Woman,Left,1,32,0.4,1,0,-,180,2.040170299995225,['y'],0.3598813999997219,1.33,968.3988177999927,,,,,526,18,Woman,Left,
,,,,,,,,,,,,,,,,,526,18,Woman,Left,1,55,0.15,2,180,0,180,0.6739192999957595,['n'],1.263641199999256,1.246,973.1828198999938,,,,,526,18,Woman,Left,
,,,,,,,,,,,,,,,,,526,18,Woman,Left,1,50,0.15,1,180,-,0,1.0254074999975273,['y'],1.111213600001065,1.334,978.1994924999963,,,,,526,18,Woman,Left,
,,,,,,,,,,,,,,,,,526,18,Woman,Left,1,52,0.15,1,0,-,0,1.305761399999028,['y'],1.2237192999891704,1.274,984.1328199999916,,,,,526,18,Woman,Left,
,,,,,,,,,,,,,,,,,526,18,Woman,Left,1,48,0.15,1,0,-,0,1.5983211999991909,['y'],1.1841212999861455,1.3319999999999999,989.8823129000011,,,,,526,18,Woman,Left,
,,,,,,,,,,,,,,,,,526,18,Woman,Left,1,35,0.4,2,180,0,0,2.285510499990778,['n'],1.0317345000075875,1.1480000000000001,995.8820846999952,,,,,526,18,Woman,Left,
,,,,,,,,,,,,,,,,,526,18,Woman,Left,1,67,0.15,2,180,0,180,1.224062799999956,['y'],1.3764744000072824,1.262,1000.9820785999982,,,,,526,18,Woman,Left,
,,,,,,,,,,,,,,,,,526,18,Woman,Left,1,33,0.4,2,0,180,180,1.3128770999901462,['y'],1.127901900006691,1.804,1005.9828465999963,,,,,526,18,Woman,Left,
,,,,,,,,,,,,,,,,,526,18,Woman,Left,1,20,0.4,1,0,-,180,0.6177238999953261,['y'],1.4154348000010941,1.6480000000000001,1010.332911700003,,,,,526,18,Woman,Left,
,,,,,,,,,,,,,,,,,526,18,Woman,Left,1,5,1,2,0,180,180,0.8496603999956278,['y'],0.8156914999999572,1.908,1015.1494854999983,,,,,526,18,Woman,Left,
,,,,,,,,,,,,,,,,,526,18,Woman,Left,1,74,0.15,1,180,-,180,1.2681892999971751,['y'],1.5036325999972178,1.362,1020.3499483999985,,,,,526,18,Woman,Left,
,,,,,,,,,,,,,,,,,526,18,Woman,Left,1,63,0.15,2,180,0,0,1.1488548000052106,['y'],1.1112228999991203,1.5939999999999999,1024.9164829000001,,,,,526,18,Woman,Left,
,,,,,,,,,,,,,,,,,526,18,Woman,Left,1,29,0.4,2,0,180,180,0.4057650000031572,['y'],0.7355439999955706,1.684,1028.4654539999974,,,,,526,18,Woman,Left,
,,,,,,,,,,,,,,,,,526,18,Woman,Left,1,11,0.4,2,180,0,0,0.5188555999920936,['y'],0.6315602999966359,1.826,1032.082083399997,,,,,526,18,Woman,Left,
,,,,,,,,,,,,,,,,,526,18,Woman,Left,1,56,0.15,1,0,-,0,1.5528997000074014,['y'],1.6398066999972798,1.33,1038.0987357999911,,,,,526,18,Woman,Left,
,,,,,,,,,,,,,,,,,526,18,Woman,Left,1,1,1,2,0,180,180,0.585283199994592,['y'],0.9195009999966715,1.68,1042.5154237000024,,,,,526,18,Woman,Left,
,,,,,,,,,,,,,,,,,526,18,Woman,Left,1,10,0.4,1,180,-,180,1.1852971999906003,['y'],0.7439119000046048,1.694,1047.2163213999956,,,,,526,18,Woman,Left,
,,,,,,,,,,,,,,,,,526,18,Woman,Left,1,77,0.15,2,0,180,180,0.8387275999994017,['n'],1.1359898999944562,1.3980000000000001,1052.699564100003,,,,,526,18,Woman,Left,
,,,,,,,,,,,,,,,,,526,18,Woman,Left,1,25,0.4,2,0,180,180,0.6231359999947017,['y'],0.9034437999944203,1.716,1056.66546869999,,,,,526,18,Woman,Left,
,,,,,,,,,,,,,,,,,526,18,Woman,Left,1,21,0.4,2,0,180,180,0.47294599999440834,['y'],0.9037633999978425,1.82,1060.4486375999913,,,,,526,18,Woman,Left,
,,,,,,,,,,,,,,,,,526,18,Woman,Left,1,54,0.15,1,180,-,180,1.2457025999901816,['n'],0.8953888999967603,1.31,1065.9822132999907,,,,,526,18,Woman,Left,
,,,,,,,,,,,,,,,,,526,18,Woman,Left,1,30,0.4,1,180,-,0,0.5535450999886962,['y'],0.7761733000079403,1.7,1070.3161672999922,,,,,526,18,Woman,Left,
,,,,,,,,,,,,,,,,,526,18,Woman,Left,1,4,1,1,0,-,0,1.664387800003169,['n'],0.7358679000026314,1.8439999999999999,1075.7994445000004,,,,,526,18,Woman,Left,
,,,,,,,,,,,,,,,,,526,18,Woman,Left,1,36,0.4,1,0,-,0,1.2914299000112806,['n'],0.8553829000011319,1.768,1080.1986073999942,,,,,526,18,Woman,Left,
,,,,,,,,,,,,,,,,,526,18,Woman,Left,1,6,1,1,180,-,180,0.4650210999971023,['n'],0.6554371000092942,1.74,1083.7494536999948,,,,,526,18,Woman,Left,
,,,,,,,,,,,,,,,,,526,18,Woman,Left,1,79,0.15,2,180,0,180,0.9804567999963183,['n'],0.7112661999999546,1.742,1087.783011799991,,,,,526,18,Woman,Left,
,,,,,,,,,,,,,,,,,526,18,Woman,Left,1,7,1,2,180,0,0,0.8110845000046538,['y'],0.592070300001069,1.776,1092.0328854999898,,,,,526,18,Woman,Left,
,,,,,,,,,,,,,,,,,526,18,Woman,Left,1,46,0.15,1,180,-,180,1.0087109000014607,['n'],0.6472613000078127,1.764,1096.2663303999943,,,,,526,18,Woman,Left,
,,,,,,,,,,,,,,,,,526,18,Woman,Left,1,16,0.4,1,0,-,0,0.801017400008277,['n'],0.7118253999942681,1.764,1100.7828777000032,,,,,526,18,Woman,Left,
,,,,,,,,,,,,,,,,,526,18,Woman,Left,1,24,0.4,1,0,-,0,2.3681887999991886,['n'],0.8636718000052497,1.758,1106.6153662999932,,,,,526,18,Woman,Left,
,,,,,,,,,,,,,,,,,526,18,Woman,Left,1,34,0.4,1,180,-,180,2.2332797999988543,['n'],1.216004600006272,1.6139999999999999,1112.4820063000006,,,,,526,18,Woman,Left,
,,,,,,,,,,,,,,,,,526,18,Woman,Left,1,12,0.4,1,0,-,0,2.233322300002328,['n'],0.711916599990218,1.738,1117.9490848999922,,,,,526,18,Woman,Left,
,,,,,,,,,,,,,,,,,526,18,Woman,Left,1,73,0.15,2,0,180,180,0.4159834000020055,['y'],1.0074909999966621,1.638,1122.3168012000024,,,,,526,18,Woman,Left,
,,,,,,,,,,,,,,,,,526,18,Woman,Left,1,23,0.4,2,180,0,0,0.6162880999909248,['y'],0.8150763000012375,1.672,1126.1326221999989,,,,,526,18,Woman,Left,
,,,,,,,,,,,,,,,,,526,18,Woman,Left,1,2,1,1,180,-,180,0.6582631999917794,['n'],0.527874100007466,1.666,1129.6653795999955,,,,,526,18,Woman,Left,
,,,,,,,,,,,,,,,,,526,18,Woman,Left,1,13,0.4,2,0,180,180,1.0234170999901835,['y'],0.8555376000003889,1.684,1133.8653273000018,,,,,526,18,Woman,Left,
,,,,,,,,,,,,,,,,,526,18,Woman,Left,1,8,0.4,1,0,-,0,1.6885657000093488,['n'],0.8236232999915956,1.678,1138.5653036999938,,,,,526,18,Woman,Left,
,,,,,,,,,,,,,,,,,526,18,Woman,Left,1,22,0.4,1,180,-,180,0.6000685000035446,['n'],0.8914801000064472,1.678,1142.2319674999962,,,,,526,18,Woman,Left,
,,,,,,,,,,,,,,,,,526,18,Woman,Left,1,64,0.15,1,0,-,0,1.9694095000013476,['n'],0.6251804000057746,1.678,1147.2164293000023,,,,,526,18,Woman,Left,
,,,,,,,,,,,,,,,,,526,18,Woman,Left,1,65,0.15,2,0,180,0,1.6372632999991765,['n'],0.6398311000084504,1.736,1151.615238099992,,,,,526,18,Woman,Left,
,,,,,,,,,,,,,,,,,526,18,Woman,Left,1,51,0.15,2,180,0,180,0.6529617999913171,['n'],0.6558075999928406,1.6680000000000001,1155.2987380999912,,,,,526,18,Woman,Left,
,,,,,,,,,,,,,,,,,526,18,Woman,Left,1,18,0.4,1,180,-,180,0.9156473999901209,['n'],0.6315502999932505,1.702,1159.082321300004,,,,,526,18,Woman,Left,
,,,,,,,,,,,,,,,,,526,18,Woman,Left,1,28,0.4,1,0,-,180,1.8748359000019263,['n'],0.41597440000623465,1.702,1163.749390399993,,,,,526,18,Woman,Left,
,,,,,,,,,,,,,,,,,526,18,Woman,Left,1,61,0.15,2,0,180,180,1.4089910999900894,['n'],0.2632787000038661,1.662,1167.9826688999965,,,,,526,18,Woman,Left,
,,,,,,,,,,,,,,,,,526,18,Woman,Left,1,9,0.4,2,0,180,180,1.288852699988638,['y'],0.9190863999974681,1.592,1173.5154593999978,,,,,526,18,Woman,Left,
,,,,,,,,,,,,,,,,,526,18,Woman,Left,2,16,0.4,1,0,-,0,0.8319693999947049,['n'],1.976017299995874,1.68,1190.4829744999952,75.0,62.5,65.0,,526,18,Woman,Left,
,,,,,,,,,,,,,,,,,526,18,Woman,Left,2,67,0.15,2,180,0,180,0.4145069000078365,['n'],0.9196594000095502,1.6440000000000001,1194.2154529000036,,,,,526,18,Woman,Left,
,,,,,,,,,,,,,,,,,526,18,Woman,Left,2,27,0.4,2,180,0,0,1.1061473000008846,['y'],0.7116744000086328,1.738,1198.5492124999946,,,,,526,18,Woman,Left,
,,,,,,,,,,,,,,,,,526,18,Woman,Left,2,60,0.15,1,0,-,0,2.3007623000012245,['n'],0.5940285999968182,1.698,1203.6991916000043,,,,,526,18,Woman,Left,
,,,,,,,,,,,,,,,,,526,18,Woman,Left,2,37,0.4,2,0,180,180,0.744015499993111,['y'],0.5277585000003455,1.794,1207.665220399991,,,,,526,18,Woman,Left,
,,,,,,,,,,,,,,,,,526,18,Woman,Left,2,63,0.15,2,180,0,0,0.8561828999954741,['n'],0.6323065999895334,1.732,1211.615212800003,,,,,526,18,Woman,Left,
,,,,,,,,,,,,,,,,,526,18,Woman,Left,2,43,0.4,2,180,0,0,0.8535048000048846,['y'],0.6158578000031412,1.774,1215.515433799992,,,,,526,18,Woman,Left,
,,,,,,,,,,,,,,,,,526,18,Woman,Left,2,58,0.15,1,180,-,180,0.7448358999972697,['n'],0.5675193999923067,1.744,1219.316144999997,,,,,526,18,Woman,Left,
,,,,,,,,,,,,,,,,,526,18,Woman,Left,2,8,0.4,1,0,-,0,0.672506799994153,['n'],0.44785029999911785,1.83,1222.665897699997,,,,,526,18,Woman,Left,
,,,,,,,,,,,,,,,,,526,18,Woman,Left,2,29,0.4,2,0,180,180,0.8714373999973759,['y'],0.5517843999987235,1.72,1226.3992392,,,,,526,18,Woman,Left,
,,,,,,,,,,,,,,,,,526,18,Woman,Left,2,57,0.15,2,0,180,0,0.8135957999911625,['n'],0.6717742999899201,1.78,1230.2491912000041,,,,,526,18,Woman,Left,
,,,,,,,,,,,,,,,,,526,18,Woman,Left,2,1,1,2,0,180,180,0.8350276999990456,['y'],0.8551714999921387,1.746,1234.3654660999964,,,,,526,18,Woman,Left,
,,,,,,,,,,,,,,,,,526,18,Woman,Left,2,25,0.4,2,0,180,180,1.9595753000030527,['y'],0.6958288000023458,1.782,1239.481789599995,,,,,526,18,Woman,Left,
,,,,,,,,,,,,,,,,,526,18,Woman,Left,2,11,0.4,2,180,0,0,1.373812399993767,['y'],0.9039625000004889,1.678,1244.116224599995,,,,,526,18,Woman,Left,
,,,,,,,,,,,,,,,,,526,18,Woman,Left,2,28,0.4,1,0,-,0,0.7404226999933599,['n'],0.5356031999981496,1.692,1247.7826086999921,,,,,526,18,Woman,Left,
,,,,,,,,,,,,,,,,,526,18,Woman,Left,2,50,0.15,1,180,-,180,0.963240199998836,['n'],1.6640608000016073,1.5859999999999999,1253.1984013999972,,,,,526,18,Woman,Left,
,,,,,,,,,,,,,,,,,526,18,Woman,Left,2,13,0.4,2,0,180,180,1.7785057000000961,['y'],1.5429592000000412,1.688,1258.7828272999977,,,,,526,18,Woman,Left,
,,,,,,,,,,,,,,,,,526,18,Woman,Left,2,75,0.15,2,180,0,180,0.9614856999978656,['n'],0.663092399991001,1.736,1262.6817814000024,,,,,526,18,Woman,Left,
,,,,,,,,,,,,,,,,,526,18,Woman,Left,2,23,0.4,2,180,0,0,0.7482626999990316,['y'],0.6802690000040457,1.816,1266.6984838999997,,,,,526,18,Woman,Left,
,,,,,,,,,,,,,,,,,526,18,Woman,Left,2,45,0.15,2,0,180,0,1.047317300006398,['y'],1.1278377999988152,1.62,1271.2485145000028,,,,,526,18,Woman,Left,
,,,,,,,,,,,,,,,,,526,18,Woman,Left,2,49,0.15,2,0,180,180,0.6108862999972189,['y'],0.7354632999922615,1.662,1274.783405599992,,,,,526,18,Woman,Left,
,,,,,,,,,,,,,,,,,526,18,Woman,Left,2,64,0.15,1,0,-,0,0.6299164000083692,['n'],0.43197189999045804,1.6480000000000001,1278.0323967999939,,,,,526,18,Woman,Left,
,,,,,,,,,,,,,,,,,526,18,Woman,Left,2,46,0.15,1,180,-,0,0.9439375000074506,['n'],0.39202100000693463,1.6480000000000001,1281.5651109999963,,,,,526,18,Woman,Left,
,,,,,,,,,,,,,,,,,526,18,Woman,Left,2,12,0.4,1,0,-,180,0.7605086999974446,['y'],0.7919399999955203,1.6219999999999999,1285.4651069000029,,,,,526,18,Woman,Left,
,,,,,,,,,,,,,,,,,526,18,Woman,Left,2,54,0.15,1,180,-,180,1.1938279999885708,['n'],0.8155264000088209,1.6680000000000001,1290.032464900003,,,,,526,18,Woman,Left,
,,,,,,,,,,,,,,,,,526,18,Woman,Left,2,53,0.15,2,0,180,0,2.671957600003225,['n'],0.702836299999035,1.384,1296.0818908,,,,,526,18,Woman,Left,
,,,,,,,,,,,,,,,,,526,18,Woman,Left,2,79,0.15,2,180,0,180,2.1132192999939434,['y'],0.7356575000012526,1.592,1301.2983793999956,,,,,526,18,Woman,Left,
,,,,,,,,,,,,,,,,,526,18,Woman,Left,2,61,0.15,2,0,180,180,1.76455549999082,['n'],1.1194607999932487,1.5859999999999999,1306.4484102999922,,,,,526,18,Woman,Left,
,,,,,,,,,,,,,,,,,526,18,Woman,Left,2,35,0.4,2,180,0,0,1.1474785000027623,['y'],0.5847828999976628,1.642,1310.548816699993,,,,,526,18,Woman,Left,
,,,,,,,,,,,,,,,,,526,18,Woman,Left,2,47,0.15,2,180,0,0,0.9697995000024093,['y'],0.5031604999967385,1.6440000000000001,1314.2150872999991,,,,,526,18,Woman,Left,
,,,,,,,,,,,,,,,,,526,18,Woman,Left,2,76,0.15,1,0,-,0,1.4878801000013482,['y'],0.7506876000115881,1.6680000000000001,1318.8984478999992,,,,,526,18,Woman,Left,
,,,,,,,,,,,,,,,,,526,18,Woman,Left,2,7,1,2,180,0,0,0.7354056000040146,['y'],0.48794410000846256,1.96,1322.5317079000015,,,,,526,18,Woman,Left,
,,,,,,,,,,,,,,,,,526,18,Woman,Left,2,5,1,2,0,180,180,0.46444330000667833,['y'],0.534914599993499,1.998,1326.099128199996,,,,,526,18,Woman,Left,
,,,,,,,,,,,,,,,,,526,18,Woman,Left,2,21,0.4,2,0,180,180,1.7288248999975622,['y'],0.5119371000037063,1.914,1330.7150667000024,,,,,526,18,Woman,Left,
,,,,,,,,,,,,,,,,,526,18,Woman,Left,2,14,0.4,1,180,-,0,1.4369339999975637,['n'],0.4231569999974454,1.178,1335.5817131000003,,,,,526,18,Woman,Left,
,,,,,,,,,,,,,,,,,526,18,Woman,Left,2,36,0.4,1,0,-,180,1.0415957999939565,['y'],1.5594102000031853,1.918,1341.3490794000027,,,,,526,18,Woman,Left,
,,,,,,,,,,,,,,,,,526,18,Woman,Left,2,41,0.4,2,0,180,180,0.880702399997972,['y'],0.4706751999910921,1.5979999999999999,1344.8493136999969,,,,,526,18,Woman,Left,
,,,,,,,,,,,,,,,,,526,18,Woman,Left,2,38,0.4,1,180,-,180,0.9183420999906957,['n'],0.8473761999921408,1.724,1348.9823585999911,,,,,526,18,Woman,Left,
,,,,,,,,,,,,,,,,,526,18,Woman,Left,2,69,0.15,2,0,180,180,1.4065643000067212,['y'],0.5674039000004996,1.634,1353.1651440999922,,,,,526,18,Woman,Left,
,,,,,,,,,,,,,,,,,526,18,Woman,Left,2,56,0.15,1,0,-,0,0.9897492000018246,['n'],0.5677924000046914,1.676,1356.9486244999935,,,,,526,18,Woman,Left,
,,,,,,,,,,,,,,,,,526,18,Woman,Left,2,74,0.15,1,180,-,0,0.8164512000075774,['n'],0.2879434999922523,1.67,1360.6161734999987,,,,,526,18,Woman,Left,
,,,,,,,,,,,,,,,,,526,18,Woman,Left,2,71,0.15,2,180,0,0,0.5174632000125712,['n'],0.4799780000030296,1.6600000000000001,1364.449238299996,,,,,526,18,Woman,Left,
,,,,,,,,,,,,,,,,,526,18,Woman,Left,2,77,0.15,2,0,180,180,1.11675619999005,['y'],0.5287651000107871,1.6600000000000001,1368.2991411999901,,,,,526,18,Woman,Left,
,,,,,,,,,,,,,,,,,526,18,Woman,Left,2,78,0.15,1,180,-,180,0.9318204000010155,['y'],1.1838973999983864,1.6059999999999999,1372.6316934999995,,,,,526,18,Woman,Left,
,,,,,,,,,,,,,,,,,526,18,Woman,Left,2,24,0.4,1,0,-,0,1.5437783999950625,['n'],0.44004270000732504,1.326,1377.7150290999925,,,,,526,18,Woman,Left,
,,,,,,,,,,,,,,,,,526,18,Woman,Left,2,34,0.4,1,180,-,180,1.7379761000047438,['n'],1.7114463000034448,1.616,1384.1324002999972,,,,,526,18,Woman,Left,
,,,,,,,,,,,,,,,,,526,18,Woman,Left,2,4,1,1,0,-,0,0.9723503999994136,['n'],0.5024515999975847,1.782,1388.0649951000014,,,,,526,18,Woman,Left,
,,,,,,,,,,,,,,,,,526,18,Woman,Left,2,2,1,1,180,-,180,1.305532200000016,['n'],0.5356082999933278,1.744,1392.1149544,,,,,526,18,Woman,Left,
,,,,,,,,,,,,,,,,,526,18,Woman,Left,2,59,0.15,2,180,0,180,1.7483111000037752,['n'],0.49574880000727717,1.718,1396.798324700001,,,,,526,18,Woman,Left,
,,,,,,,,,,,,,,,,,526,18,Woman,Left,2,19,0.4,2,180,0,0,1.0670128000056138,['y'],0.5441259999934118,1.704,1400.6151094000015,,,,,526,18,Woman,Left,
,,,,,,,,,,,,,,,,,526,18,Woman,Left,2,55,0.15,2,180,0,0,1.0578106999892043,['n'],0.6966124000027776,1.252,1405.4489603000038,,,,,526,18,Woman,Left,
,,,,,,,,,,,,,,,,,526,18,Woman,Left,2,48,0.15,1,0,-,0,1.2747404000110691,['n'],0.6158111999975517,1.784,1410.0315728999922,,,,,526,18,Woman,Left,
,,,,,,,,,,,,,,,,,526,18,Woman,Left,2,39,0.4,2,180,0,0,1.4746975000016391,['y'],0.7994636999937939,1.78,1414.8489534000037,,,,,526,18,Woman,Left,
,,,,,,,,,,,,,,,,,526,18,Woman,Left,2,52,0.15,1,0,-,0,1.437340000004042,['n'],0.9674689000094077,1.8,1419.5815883999967,,,,,526,18,Woman,Left,
,,,,,,,,,,,,,,,,,526,18,Woman,Left,2,22,0.4,1,180,-,180,1.121689299994614,['n'],0.7433474999997998,1.8860000000000001,1424.148970999995,,,,,526,18,Woman,Left,
,,,,,,,,,,,,,,,,,526,18,Woman,Left,2,40,0.4,1,0,-,0,1.4831186000083108,['y'],0.6397722999972757,1.024,1429.0492581999933,,,,,526,18,Woman,Left,
,,,,,,,,,,,,,,,,,526,18,Woman,Left,2,17,0.4,2,0,180,180,3.0347485000093,['y'],1.159697299997788,1.842,1436.8322829000026,,,,,526,18,Woman,Left,
,,,,,,,,,,,,,,,,,526,18,Woman,Left,2,73,0.15,2,0,180,0,1.5119879999983823,['n'],0.7839394000038737,1.916,1441.5659227999931,,,,,526,18,Woman,Left,
,,,,,,,,,,,,,,,,,526,18,Woman,Left,2,42,0.4,1,180,-,180,2.48930920001294,['n'],1.5195347999979276,1.696,1448.6483728999956,,,,,526,18,Woman,Left,
,,,,,,,,,,,,,,,,,526,18,Woman,Left,2,18,0.4,1,180,-,0,0.96258150000358,['n'],0.48817609999969136,1.788,1452.5149072999993,,,,,526,18,Woman,Left,
,,,,,,,,,,,,,,,,,526,18,Woman,Left,2,32,0.4,1,0,-,0,1.2604616000025999,['n'],0.7517344999941997,1.744,1457.11492249999,,,,,526,18,Woman,Left,
,,,,,,,,,,,,,,,,,526,18,Woman,Left,2,70,0.15,1,180,-,180,0.40841570000338834,['n'],0.9439087999926414,1.674,1461.5315106999988,,,,,526,18,Woman,Left,
,,,,,,,,,,,,,,,,,526,18,Woman,Left,2,10,0.4,1,180,-,180,1.5733121000084793,['n'],0.7360425000078976,1.724,1466.2649519999904,,,,,526,18,Woman,Left,
,,,,,,,,,,,,,,,,,526,18,Woman,Left,2,3,1,2,180,0,0,1.4527626000053715,['y'],1.3193202999973437,1.8479999999999999,1471.3151475999985,,,,,526,18,Woman,Left,
,,,,,,,,,,,,,,,,,526,18,Woman,Left,2,9,0.4,2,0,180,180,0.9589388000022154,['n'],0.6314887000044109,1.748,1475.2823801999984,,,,,526,18,Woman,Left,
,,,,,,,,,,,,,,,,,526,18,Woman,Left,2,62,0.15,1,180,-,180,1.1533165000000736,['n'],0.4625644000043394,1.814,1479.2482068000027,,,,,526,18,Woman,Left,
,,,,,,,,,,,,,,,,,526,18,Woman,Left,2,26,0.4,1,180,-,180,1.1189217000064673,['n'],0.4477908999979263,1.612,1483.4826251999984,,,,,526,18,Woman,Left,
,,,,,,,,,,,,,,,,,526,18,Woman,Left,2,0,1,1,0,-,0,0.8176002999971388,['y'],0.7075611999898683,1.004,1488.9322022999913,,,,,526,18,Woman,Left,
,,,,,,,,,,,,,,,,,526,18,Woman,Left,2,72,0.15,1,0,-,0,0.6013091000058921,['n'],0.6070219999965047,1.858,1492.5992241999993,,,,,526,18,Woman,Left,
,,,,,,,,,,,,,,,,,526,18,Woman,Left,2,66,0.15,1,180,-,180,0.6982386000017868,['n'],0.6478617999964627,1.7,1496.1321650999962,,,,,526,18,Woman,Left,
,,,,,,,,,,,,,,,,,526,18,Woman,Left,2,44,0.15,1,0,-,0,0.8580616999970516,['n'],0.4639591000013752,1.792,1499.7648315999904,,,,,526,18,Woman,Left,
,,,,,,,,,,,,,,,,,526,18,Woman,Left,2,30,0.4,1,180,-,180,1.8744086999940919,['n'],2.327049400002579,1.814,1506.5651396999965,,,,,526,18,Woman,Left,
,,,,,,,,,,,,,,,,,526,18,Woman,Left,2,31,0.4,2,180,0,0,1.0963006999954814,['y'],0.8713489000074333,1.816,1511.2151130999919,,,,,526,18,Woman,Left,
,,,,,,,,,,,,,,,,,526,18,Woman,Left,2,51,0.15,2,180,0,0,0.9175676000013482,['y'],0.5842243999941275,1.738,1515.031491499998,,,,,526,18,Woman,Left,
,,,,,,,,,,,,,,,,,526,18,Woman,Left,2,6,1,1,180,-,180,0.8965272000059485,['n'],0.5919675000041025,1.728,1518.7988373999906,,,,,526,18,Woman,Left,
,,,,,,,,,,,,,,,,,526,18,Woman,Left,2,65,0.15,2,0,180,0,1.330952599993907,['n'],0.6873298999998951,1.81,1523.0655748999925,,,,,526,18,Woman,Left,
,,,,,,,,,,,,,,,,,526,18,Woman,Left,2,33,0.4,2,0,180,180,0.8807373999879928,['y'],0.5274597999959951,1.826,1526.8482635999899,,,,,526,18,Woman,Left,
,,,,,,,,,,,,,,,,,526,18,Woman,Left,2,20,0.4,1,0,-,0,0.7502421999961371,['n'],0.9354443999909563,1.6099999999999999,1530.9817706999966,,,,,526,18,Woman,Left,
,,,,,,,,,,,,,,,,,526,18,Woman,Left,2,68,0.15,1,0,-,0,1.175222699996084,['n'],0.8563219999923604,1.964,1535.2648199000032,,,,,526,18,Woman,Left,
,,,,,,,,,,,,,,,,,526,18,Woman,Left,2,15,0.4,2,180,0,0,0.80812380000134,['y'],0.5195947999891359,1.81,1539.2822526000018,,,,,526,18,Woman,Left,
,,,,,,,,,,,,,,,,,526,18,Woman,Left,3,13,0.4,2,0,180,180,0.7590802000049734,['y'],0.47932179999770597,1.858,1552.8981268999996,81.25,85.0,70.0,,526,18,Woman,Left,
,,,,,,,,,,,,,,,,,526,18,Woman,Left,3,25,0.4,2,0,180,180,0.8085264999972424,['y'],0.407428800011985,1.918,1556.4647829999958,,,,,526,18,Woman,Left,
,,,,,,,,,,,,,,,,,526,18,Woman,Left,3,28,0.4,1,0,-,0,1.2054131000040798,['n'],0.6158132999989903,1.932,1560.532192199993,,,,,526,18,Woman,Left,
,,,,,,,,,,,,,,,,,526,18,Woman,Left,3,66,0.15,1,180,-,180,0.5673421999963466,['n'],0.4128340999886859,1.774,1563.6823705999923,,,,,526,18,Woman,Left,
,,,,,,,,,,,,,,,,,526,18,Woman,Left,3,72,0.15,1,0,-,0,0.5571233999944525,['n'],0.7280470000114292,1.764,1567.1649264999942,,,,,526,18,Woman,Left,
,,,,,,,,,,,,,,,,,526,18,Woman,Left,3,38,0.4,1,180,-,180,0.7466875000100117,['n'],0.44759360000898596,1.792,1570.5148324999973,,,,,526,18,Woman,Left,
,,,,,,,,,,,,,,,,,526,18,Woman,Left,3,12,0.4,1,0,-,0,1.028267000001506,['n'],0.46402559999842197,1.784,1574.2147755999977,,,,,526,18,Woman,Left,
,,,,,,,,,,,,,,,,,526,18,Woman,Left,3,21,0.4,2,0,180,180,0.8800053000013577,['y'],0.5522787000081735,1.76,1577.8990490999931,,,,,526,18,Woman,Left,
,,,,,,,,,,,,,,,,,526,18,Woman,Left,3,46,0.15,1,180,-,180,0.47793219999584835,['n'],0.5196466000052169,1.738,1581.2816727999962,,,,,526,18,Woman,Left,
,,,,,,,,,,,,,,,,,526,18,Woman,Left,3,39,0.4,2,180,0,0,0.6302627000113716,['y'],0.3594683000119403,1.768,1584.5313700999905,,,,,526,18,Woman,Left,
,,,,,,,,,,,,,,,,,526,18,Woman,Left,3,59,0.15,2,180,0,0,1.5441174000006868,['n'],0.4157643999933498,1.904,1588.79819709999,,,,,526,18,Woman,Left,
,,,,,,,,,,,,,,,,,526,18,Woman,Left,3,11,0.4,2,180,0,0,1.0724663000000874,['y'],1.2798647999879904,1.9020000000000001,1593.7490841999897,,,,,526,18,Woman,Left,
,,,,,,,,,,,,,,,,,526,18,Woman,Left,3,24,0.4,1,0,-,0,0.7805602000007639,['n'],0.7999107000068761,1.698,1597.5324185999998,,,,,526,18,Woman,Left,
,,,,,,,,,,,,,,,,,526,18,Woman,Left,3,2,1,1,180,-,180,0.7046875999949407,['y'],0.5828948999987915,1.244,1601.6822012999983,,,,,526,18,Woman,Left,
,,,,,,,,,,,,,,,,,526,18,Woman,Left,3,35,0.4,2,180,0,0,0.7782785000017611,['y'],0.6397750000032829,1.736,1605.2821059999915,,,,,526,18,Woman,Left,
,,,,,,,,,,,,,,,,,526,18,Woman,Left,3,70,0.15,1,180,-,180,1.2795036999887088,['n'],0.6231889000046067,1.6640000000000001,1609.497995299993,,,,,526,18,Woman,Left,
,,,,,,,,,,,,,,,,,526,18,Woman,Left,3,42,0.4,1,180,-,180,2.5128516999975545,['n'],0.6391839000134496,1.748,1614.8992504999987,,,,,526,18,Woman,Left,
,,,,,,,,,,,,,,,,,526,18,Woman,Left,3,56,0.15,1,0,-,0,1.0039983999886317,['n'],0.639040300011402,1.792,1618.7479978999982,,,,,526,18,Woman,Left,
,,,,,,,,,,,,,,,,,526,18,Woman,Left,3,15,0.4,2,180,0,0,1.3317414000048302,['y'],0.5754335000092397,1.93,1622.8483707999912,,,,,526,18,Woman,Left,
,,,,,,,,,,,,,,,,,526,18,Woman,Left,3,75,0.15,2,180,0,0,1.0626684000017121,['y'],0.9595852999918861,1.726,1627.0312996999928,,,,,526,18,Woman,Left,
,,,,,,,,,,,,,,,,,526,18,Woman,Left,3,19,0.4,2,180,0,0,0.8413947000080952,['y'],0.7998001999949338,1.676,1631.2147597999938,,,,,526,18,Woman,Left,
,,,,,,,,,,,,,,,,,526,18,Woman,Left,3,74,0.15,1,180,-,0,2.281982500004233,['y'],0.41590729999006726,1.6440000000000001,1636.2315766000029,,,,,526,18,Woman,Left,
,,,,,,,,,,,,,,,,,526,18,Woman,Left,3,79,0.15,2,180,0,0,1.8205372999946121,['n'],0.3920113000058336,1.412,1641.2151816000041,,,,,526,18,Woman,Left,
,,,,,,,,,,,,,,,,,526,18,Woman,Left,3,45,0.15,2,0,180,0,1.5233417999988887,['y'],1.447883599990746,1.326,1647.4147305000006,,,,,526,18,Woman,Left,
,,,,,,,,,,,,,,,,,526,18,Woman,Left,3,9,0.4,2,0,180,180,0.48808540000754874,['y'],0.8315875999978743,1.746,1651.4489967999907,,,,,526,18,Woman,Left,
,,,,,,,,,,,,,,,,,526,18,Woman,Left,3,69,0.15,2,0,180,0,1.6445974999951432,['y'],0.8320731999992859,1.6600000000000001,1656.465563999991,,,,,526,18,Woman,Left,
,,,,,,,,,,,,,,,,,526,18,Woman,Left,3,0,1,1,0,-,0,0.3434248999983538,['n'],0.8401965000084601,1.67,1659.9486665999939,,,,,526,18,Woman,Left,
,,,,,,,,,,,,,,,,,526,18,Woman,Left,3,61,0.15,2,0,180,180,1.505093500003568,['y'],1.6561846999975387,1.3,1666.3647113999978,,,,,526,18,Woman,Left,
,,,,,,,,,,,,,,,,,526,18,Woman,Left,3,57,0.15,2,0,180,180,1.2725461999943946,['y'],0.8309845999901881,1.3,1666.3647113999978,,,,,526,18,Woman,Left,
,,,,,,,,,,,,,,,,,526,18,Woman,Left,3,22,0.4,1,180,-,180,1.2232570000051055,['n'],0.47104099999705795,1.458,1675.797976199996,,,,,526,18,Woman,Left,
,,,,,,,,,,,,,,,,,526,18,Woman,Left,3,16,0.4,1,0,-,0,0.7692745000094874,['n'],0.7112594000063837,1.436,1680.331971300002,,,,,526,18,Woman,Left,
,,,,,,,,,,,,,,,,,526,18,Woman,Left,3,18,0.4,1,180,-,180,0.553358199991635,['y'],0.5989504999888595,1.758,1684.0978553999958,,,,,526,18,Woman,Left,
,,,,,,,,,,,,,,,,,526,18,Woman,Left,3,43,0.4,2,180,0,0,3.338436999998521,['n'],1.119491100005689,1.626,1690.9312797999955,,,,,526,18,Woman,Left,
,,,,,,,,,,,,,,,,,526,18,Woman,Left,3,47,0.15,2,180,0,0,1.0384506999980658,['y'],0.6476909999910276,1.5979999999999999,1695.1645765999929,,,,,526,18,Woman,Left,
,,,,,,,,,,,,,,,,,526,18,Woman,Left,3,5,1,2,0,180,180,0.8526552999974228,['y'],0.7443715999979759,1.8559999999999999,1699.8985514000015,,,,,526,18,Woman,Left,
,,,,,,,,,,,,,,,,,526,18,Woman,Left,3,31,0.4,2,180,0,0,1.2906335000006948,['y'],0.6799430999963079,1.854,1704.2311927999908,,,,,526,18,Woman,Left,
,,,,,,,,,,,,,,,,,526,18,Woman,Left,3,68,0.15,1,0,-,0,0.7918662000010954,['n'],0.6483415999973658,1.678,1707.9819075999912,,,,,526,18,Woman,Left,
,,,,,,,,,,,,,,,,,526,18,Woman,Left,3,44,0.15,1,0,-,0,0.9492775999970036,['n'],0.8955489999934798,1.698,1712.297945899998,,,,,526,18,Woman,Left,
,,,,,,,,,,,,,,,,,526,18,Woman,Left,3,7,1,2,180,0,0,0.7805103999999119,['y'],0.5523408000008203,1.93,1715.8646393000017,,,,,526,18,Woman,Left,
,,,,,,,,,,,,,,,,,526,18,Woman,Left,3,37,0.4,2,0,180,0,1.598497099999804,['n'],0.8795202000037534,1.55,1720.8488693000036,,,,,526,18,Woman,Left,
,,,,,,,,,,,,,,,,,526,18,Woman,Left,3,60,0.15,1,0,-,180,0.9702002999983961,['n'],0.9276148999924771,1.576,1725.2979764999982,,,,,526,18,Woman,Left,
,,,,,,,,,,,,,,,,,526,18,Woman,Left,3,78,0.15,1,180,-,0,1.6015218999964418,['n'],0.6795750000019325,1.6440000000000001,1729.781168900001,,,,,526,18,Woman,Left,
,,,,,,,,,,,,,,,,,526,18,Woman,Left,3,33,0.4,2,0,180,180,1.0782231999910437,['y'],0.6233829999982845,1.9020000000000001,1733.9318709,,,,,526,18,Woman,Left,
,,,,,,,,,,,,,,,,,526,18,Woman,Left,3,8,0.4,1,0,-,0,0.7505183000030229,['n'],0.27136989998689387,1.55,1737.314515500002,,,,,526,18,Woman,Left,
,,,,,,,,,,,,,,,,,526,18,Woman,Left,3,41,0.4,2,0,180,180,0.9738580999983242,['y'],0.6553618999896571,1.782,1741.1644659999947,,,,,526,18,Woman,Left,
,,,,,,,,,,,,,,,,,526,18,Woman,Left,3,10,0.4,1,180,-,180,2.912223500010441,['n'],1.511023600003682,1.6560000000000001,1748.731836999992,,,,,526,18,Woman,Left,
,,,,,,,,,,,,,,,,,526,18,Woman,Left,3,48,0.15,1,0,-,0,0.5494386999926064,['n'],0.3826192999986233,1.768,1751.898718999997,,,,,526,18,Woman,Left,
,,,,,,,,,,,,,,,,,526,18,Woman,Left,3,6,1,1,180,-,180,0.653988499994739,['n'],0.43155269999988377,1.71,1755.1814531999917,,,,,526,18,Woman,Left,
,,,,,,,,,,,,,,,,,526,18,Woman,Left,3,49,0.15,2,0,180,180,0.7618664000037825,['n'],0.5277798999886727,1.684,1758.7485318000035,,,,,526,18,Woman,Left,
,,,,,,,,,,,,,,,,,526,18,Woman,Left,3,71,0.15,2,180,0,180,1.6206008000008296,['y'],1.232149000003119,1.592,1764.1645535999924,,,,,526,18,Woman,Left,
,,,,,,,,,,,,,,,,,526,18,Woman,Left,3,58,0.15,1,180,-,180,0.5384852999995928,['n'],0.40688560000853613,1.328,1769.4820464000004,,,,,526,18,Woman,Left,
,,,,,,,,,,,,,,,,,526,18,Woman,Left,3,64,0.15,1,0,-,0,0.7195030000002589,['n'],0.799770699988585,1.284,1773.6485556999905,,,,,526,18,Woman,Left,
,,,,,,,,,,,,,,,,,526,18,Woman,Left,3,54,0.15,1,180,-,0,0.9124181999941356,['y'],0.7036136000097031,1.676,1778.4485153999922,,,,,526,18,Woman,Left,
,,,,,,,,,,,,,,,,,526,18,Woman,Left,3,29,0.4,2,0,180,180,1.3638576999946963,['y'],1.2558123000053456,1.228,1783.498503200004,,,,,526,18,Woman,Left,
,,,,,,,,,,,,,,,,,526,18,Woman,Left,3,26,0.4,1,180,-,180,0.6167508999933489,['n'],1.4548850999999559,1.654,1788.0311247999998,,,,,526,18,Woman,Left,
,,,,,,,,,,,,,,,,,526,18,Woman,Left,3,34,0.4,1,180,-,180,0.679582799988566,['n'],0.5597505000041565,1.6600000000000001,1791.6146243999901,,,,,526,18,Woman,Left,
,,,,,,,,,,,,,,,,,526,18,Woman,Left,3,67,0.15,2,180,0,0,0.9673875000007683,['y'],1.167980300000636,1.684,1796.0144798000038,,,,,526,18,Woman,Left,
,,,,,,,,,,,,,,,,,526,18,Woman,Left,3,3,1,2,180,0,0,0.8568774000013946,['n'],0.5595797999994829,1.004,1800.598489899996,,,,,526,18,Woman,Left,
,,,,,,,,,,,,,,,,,526,18,Woman,Left,3,27,0.4,2,180,0,0,0.5313490999978967,['y'],0.8397407000011299,1.918,1804.9644034000012,,,,,526,18,Woman,Left,
,,,,,,,,,,,,,,,,,526,18,Woman,Left,3,76,0.15,1,0,-,0,1.6637747999920975,['y'],0.8877784999931464,1.738,1810.1144620999912,,,,,526,18,Woman,Left,
,,,,,,,,,,,,,,,,,526,18,Woman,Left,3,17,0.4,2,0,180,180,1.46773979999125,['y'],0.6957604000053834,1.984,1814.715757799997,,,,,526,18,Woman,Left,
,,,,,,,,,,,,,,,,,526,18,Woman,Left,3,32,0.4,1,0,-,0,1.748908699999447,['n'],0.678984699989087,1.5979999999999999,1819.381946699992,,,,,526,18,Woman,Left,
,,,,,,,,,,,,,,,,,526,18,Woman,Left,3,1,1,2,0,180,180,0.6663498999987496,['y'],0.6078134999988833,1.9060000000000001,1823.1644592000011,,,,,526,18,Woman,Left,
,,,,,,,,,,,,,,,,,526,18,Woman,Left,3,77,0.15,2,0,180,180,3.43300150000141,['n'],0.6564141999988351,1.616,1830.2484476000027,,,,,526,18,Woman,Left,
,,,,,,,,,,,,,,,,,526,18,Woman,Left,3,63,0.15,2,180,0,0,0.8337372999958461,['y'],0.645620900002541,1.808,1833.9816749999954,,,,,526,18,Woman,Left,
,,,,,,,,,,,,,,,,,526,18,Woman,Left,3,53,0.15,2,0,180,0,1.306526100001065,['y'],0.671072400000412,1.808,1838.2484546999985,,,,,526,18,Woman,Left,
,,,,,,,,,,,,,,,,,526,18,Woman,Left,3,20,0.4,1,0,-,0,1.3214226999989478,['n'],0.6388524000067264,1.81,1842.4644200999974,,,,,526,18,Woman,Left,
,,,,,,,,,,,,,,,,,526,18,Woman,Left,3,4,1,1,0,-,0,1.090082299997448,['y'],0.7672453999985009,1.73,1846.6145761000007,,,,,526,18,Woman,Left,
,,,,,,,,,,,,,,,,,526,18,Woman,Left,3,65,0.15,2,0,180,180,1.7819161000079475,['n'],0.6160706999944523,1.804,1851.3477462999945,,,,,526,18,Woman,Left,
,,,,,,,,,,,,,,,,,526,18,Woman,Left,3,73,0.15,2,0,180,180,0.5134841999970376,['n'],0.6551367999927606,1.746,1854.7982701999936,,,,,526,18,Woman,Left,
,,,,,,,,,,,,,,,,,526,18,Woman,Left,3,62,0.15,1,180,-,180,2.6326053000084357,['n'],0.4307575000129873,1.74,1860.181029499996,,,,,526,18,Woman,Left,
,,,,,,,,,,,,,,,,,526,18,Woman,Left,3,23,0.4,2,180,0,0,0.7527277000044705,['y'],0.47917679999955,1.832,1863.6152629999924,,,,,526,18,Woman,Left,
,,,,,,,,,,,,,,,,,526,18,Woman,Left,3,36,0.4,1,0,-,0,1.6065510000044014,['n'],0.40706389999832027,1.724,1868.247957099993,,,,,526,18,Woman,Left,
,,,,,,,,,,,,,,,,,526,18,Woman,Left,3,52,0.15,1,0,-,0,3.480646700001671,['n'],1.0718025000096532,1.754,1875.1643306999977,,,,,526,18,Woman,Left,
,,,,,,,,,,,,,,,,,526,18,Woman,Left,3,50,0.15,1,180,-,180,1.7405238000064855,['y'],0.8152669999981299,1.15,1880.8643441999957,,,,,526,18,Woman,Left,
,,,,,,,,,,,,,,,,,526,18,Woman,Left,3,55,0.15,2,180,0,0,1.6331764999922598,['n'],1.0961871000035899,1.75,1886.1492887999993,,,,,526,18,Woman,Left,
,,,,,,,,,,,,,,,,,526,18,Woman,Left,3,14,0.4,1,180,-,180,1.195161100011319,['n'],2.6646905000088736,1.8639999999999999,1892.3143046999976,,,,,526,18,Woman,Left,
,,,,,,,,,,,,,,,,,526,18,Woman,Left,3,30,0.4,1,180,-,180,0.268078199995216,['n'],0.5434172999957809,1.694,1895.3476004999902,,,,,526,18,Woman,Left,
,,,,,,,,,,,,,,,,,526,18,Woman,Left,3,51,0.15,2,180,0,0,0.650812699997914,['y'],0.5349355999933323,1.826,1898.7818776999993,,,,,526,18,Woman,Left,
,,,,,,,,,,,,,,,,,526,18,Woman,Left,3,40,0.4,1,0,-,0,0.6203474999929313,['n'],0.60766729999159,1.744,1902.198195099998,,,,,526,18,Woman,Left,
,,,,,,,,,,,,,,,,,526,18,Woman,Left,4,50,0.15,1,180,-,180,1.6851336999970954,['y'],0.7046972999960417,1.342,1923.6143434000041,88.75,82.5,75.0,,526,18,Woman,Left,
,,,,,,,,,,,,,,,,,526,18,Woman,Left,4,7,1,2,180,0,0,0.6222124000050826,['y'],0.8951735000009649,1.944,1927.814293299998,,,,,526,18,Woman,Left,
,,,,,,,,,,,,,,,,,526,18,Woman,Left,4,44,0.15,1,0,-,0,2.4158696999948006,['y'],0.5919887999916682,1.842,1933.6817770999987,,,,,526,18,Woman,Left,
,,,,,,,,,,,,,,,,,526,18,Woman,Left,4,64,0.15,1,0,-,0,1.3408711999945808,['n'],0.2642399000033038,1.6520000000000001,1937.7144180999967,,,,,526,18,Woman,Left,
,,,,,,,,,,,,,,,,,526,18,Woman,Left,4,6,1,1,180,-,180,0.43792160000884905,['n'],1.062645899990457,1.566,1941.3977472999904,,,,,526,18,Woman,Left,
,,,,,,,,,,,,,,,,,526,18,Woman,Left,4,79,0.15,2,180,0,0,0.7060607999883359,['y'],0.5188644000008935,1.758,1944.8142041000028,,,,,526,18,Woman,Left,
,,,,,,,,,,,,,,,,,526,18,Woman,Left,4,52,0.15,1,0,-,0,0.8170370000007097,['n'],0.7275707999942824,1.272,1949.1817813000016,,,,,526,18,Woman,Left,
,,,,,,,,,,,,,,,,,526,18,Woman,Left,4,36,0.4,1,0,-,0,0.3591768000042066,['y'],0.8316256000107387,1.6219999999999999,1952.7142837999927,,,,,526,18,Woman,Left,
,,,,,,,,,,,,,,,,,526,18,Woman,Left,4,33,0.4,2,0,180,180,0.46905889999470674,['y'],2.296256599991466,1.846,1957.847537200003,,,,,526,18,Woman,Left,
,,,,,,,,,,,,,,,,,526,18,Woman,Left,4,17,0.4,2,0,180,180,1.3223285999993095,['y'],0.6957676000020001,1.924,1962.2642591999975,,,,,526,18,Woman,Left,
,,,,,,,,,,,,,,,,,526,18,Woman,Left,4,77,0.15,2,0,180,180,0.5440802000084659,['y'],0.4714567999908468,1.768,1965.5316687999948,,,,,526,18,Woman,Left,
,,,,,,,,,,,,,,,,,526,18,Woman,Left,4,10,0.4,1,180,-,180,1.2962598000012804,['y'],0.5595973000017693,1.76,1969.5485461999997,,,,,526,18,Woman,Left,
,,,,,,,,,,,,,,,,,526,18,Woman,Left,4,72,0.15,1,0,-,0,0.5767363000049954,['n'],0.6158284999983152,1.5739999999999998,1972.9142410999993,,,,,526,18,Woman,Left,
,,,,,,,,,,,,,,,,,526,18,Woman,Left,4,78,0.15,1,180,-,180,1.1755804999993416,['n'],0.7678759999980684,1.3900000000000001,1977.5644325999965,,,,,526,18,Woman,Left,
,,,,,,,,,,,,,,,,,526,18,Woman,Left,4,74,0.15,1,180,-,180,0.9771010000113165,['n'],1.814980299997842,1.212,1983.8316599000027,,,,,526,18,Woman,Left,
,,,,,,,,,,,,,,,,,526,18,Woman,Left,4,63,0.15,2,180,0,0,1.684104700005264,['y'],1.2591659000026993,1.178,1990.3810483999914,,,,,526,18,Woman,Left,
,,,,,,,,,,,,,,,,,526,18,Woman,Left,4,45,0.15,2,0,180,180,2.5955174999980954,['y'],0.7036451000021771,1.892,1996.5808625999998,,,,,526,18,Woman,Left,
,,,,,,,,,,,,,,,,,526,18,Woman,Left,4,38,0.4,1,180,-,180,1.1604635999974562,['y'],0.6873802999907639,1.006,2001.6142427999948,,,,,526,18,Woman,Left,
,,,,,,,,,,,,,,,,,526,18,Woman,Left,4,66,0.15,1,180,-,0,2.276926700011245,['n'],0.6788219000009121,1.884,2007.231506899996,,,,,526,18,Woman,Left,
,,,,,,,,,,,,,,,,,526,18,Woman,Left,4,20,0.4,1,0,-,0,0.830197200004477,['n'],0.3829132999962894,1.746,2011.081832399992,,,,,526,18,Woman,Left,
,,,,,,,,,,,,,,,,,526,18,Woman,Left,4,42,0.4,1,180,-,180,1.1645894000102999,['n'],2.351617099993746,1.874,2017.0142925999899,,,,,526,18,Woman,Left,
,,,,,,,,,,,,,,,,,526,18,Woman,Left,4,60,0.15,1,0,-,0,1.388479000001098,['n'],0.4953564000024926,1.71,2021.0642386000036,,,,,526,18,Woman,Left,
,,,,,,,,,,,,,,,,,526,18,Woman,Left,4,31,0.4,2,180,0,0,1.0834045999945374,['y'],0.3994711000123061,1.694,2024.6813216999944,,,,,526,18,Woman,Left,
,,,,,,,,,,,,,,,,,526,18,Woman,Left,4,53,0.15,2,0,180,180,0.4167989999987185,['n'],0.5043316999945091,1.854,2027.6814006999994,,,,,526,18,Woman,Left,
,,,,,,,,,,,,,,,,,526,18,Woman,Left,4,51,0.15,2,180,0,0,1.4401373000000603,['n'],0.3436438999924576,1.6219999999999999,2031.7141574999914,,,,,526,18,Woman,Left,
,,,,,,,,,,,,,,,,,526,18,Woman,Left,4,57,0.15,2,0,180,180,1.5521791000064695,['n'],2.704093300009845,1.616,2038.8308412999977,,,,,526,18,Woman,Left,
,,,,,,,,,,,,,,,,,526,18,Woman,Left,4,2,1,1,180,-,180,0.5108456000016304,['n'],0.9119429999991553,1.8639999999999999,2042.414149199998,,,,,526,18,Woman,Left,
,,,,,,,,,,,,,,,,,526,18,Woman,Left,4,35,0.4,2,180,0,0,0.6557884000067133,['y'],0.5442403000051854,1.766,2045.7808240999948,,,,,526,18,Woman,Left,
,,,,,,,,,,,,,,,,,526,18,Woman,Left,4,67,0.15,2,180,0,0,3.9118115000019316,['n'],1.7680989000073168,1.734,2053.9150583999945,,,,,526,18,Woman,Left,
,,,,,,,,,,,,,,,,,526,18,Woman,Left,4,39,0.4,2,180,0,0,1.3942569000064395,['y'],0.5915461999975378,1.97,2058.3141299999916,,,,,526,18,Woman,Left,
,,,,,,,,,,,,,,,,,526,18,Woman,Left,4,1,1,2,0,180,180,0.48584520000440534,['y'],0.679144300011103,1.866,2062.3810450999954,,,,,526,18,Woman,Left,
,,,,,,,,,,,,,,,,,526,18,Woman,Left,4,73,0.15,2,0,180,180,0.4917389999900479,['y'],0.3199894999997923,1.956,2065.7474021000016,,,,,526,18,Woman,Left,
,,,,,,,,,,,,,,,,,526,18,Woman,Left,4,5,1,2,0,180,180,0.338558399991598,['y'],0.5992173999984516,1.936,2068.9143907000034,,,,,526,18,Woman,Left,
,,,,,,,,,,,,,,,,,526,18,Woman,Left,4,49,0.15,2,0,180,180,0.9414279999909922,['y'],0.6553970999957528,1.874,2072.6820093999922,,,,,526,18,Woman,Left,
,,,,,,,,,,,,,,,,,526,18,Woman,Left,4,22,0.4,1,180,-,180,0.7626079000037862,['y'],0.2475064000027487,1.842,2075.8313974999983,,,,,526,18,Woman,Left,
,,,,,,,,,,,,,,,,,526,18,Woman,Left,4,32,0.4,1,0,-,0,0.39772150000499096,['y'],0.9595591999968747,1.832,2079.4974467999928,,,,,526,18,Woman,Left,
,,,,,,,,,,,,,,,,,526,18,Woman,Left,4,24,0.4,1,0,-,0,0.7585325999971246,['n'],0.4956621000019368,1.816,2083.3640853000034,,,,,526,18,Woman,Left,
,,,,,,,,,,,,,,,,,526,18,Woman,Left,4,55,0.15,2,180,0,0,1.535061799993855,['y'],0.6395970000012312,1.522,2087.814083199999,,,,,526,18,Woman,Left,
,,,,,,,,,,,,,,,,,526,18,Woman,Left,4,59,0.15,2,180,0,0,0.6521292999968864,['y'],0.7280700000119396,1.6179999999999999,2091.614389999995,,,,,526,18,Woman,Left,
,,,,,,,,,,,,,,,,,526,18,Woman,Left,4,25,0.4,2,0,180,0,1.7016737000085413,['y'],0.8799763999995776,1.6099999999999999,2096.3818041999984,,,,,526,18,Woman,Left,
,,,,,,,,,,,,,,,,,526,18,Woman,Left,4,18,0.4,1,180,-,0,1.247835899994243,['y'],0.5837715999950888,1.6520000000000001,2100.3307601999913,,,,,526,18,Woman,Left,
,,,,,,,,,,,,,,,,,526,18,Woman,Left,4,56,0.15,1,0,-,0,1.0569466000015382,['n'],0.40706260000297334,1.6179999999999999,2104.2141244000013,,,,,526,18,Woman,Left,
,,,,,,,,,,,,,,,,,526,18,Woman,Left,4,19,0.4,2,180,0,0,1.1239513000036823,['y'],0.5118080000102054,1.68,2108.081414799999,,,,,526,18,Woman,Left,
,,,,,,,,,,,,,,,,,526,18,Woman,Left,4,46,0.15,1,180,-,180,1.5659611000010045,['n'],0.6793556999909924,1.274,2112.997477299992,,,,,526,18,Woman,Left,
,,,,,,,,,,,,,,,,,526,18,Woman,Left,4,26,0.4,1,180,-,180,0.9655719000002136,['y'],0.7115588999877218,1.674,2116.9480022999996,,,,,526,18,Woman,Left,
,,,,,,,,,,,,,,,,,526,18,Woman,Left,4,27,0.4,2,180,0,0,1.6070022000058088,['y'],0.4636580999940634,1.766,2121.264042899995,,,,,526,18,Woman,Left,
,,,,,,,,,,,,,,,,,526,18,Woman,Left,4,47,0.15,2,180,0,0,1.148388999994495,['y'],0.39182099999743514,1.796,2125.1313430999944,,,,,526,18,Woman,Left,
,,,,,,,,,,,,,,,,,526,18,Woman,Left,4,11,0.4,2,180,0,0,0.7002319000021089,['y'],0.5356351000082213,1.832,2128.5815387999974,,,,,526,18,Woman,Left,
,,,,,,,,,,,,,,,,,526,18,Woman,Left,4,15,0.4,2,180,0,0,0.6843548000033479,['y'],0.2553543000103673,1.798,2131.647565200001,,,,,526,18,Woman,Left,
,,,,,,,,,,,,,,,,,526,18,Woman,Left,4,14,0.4,1,180,-,0,0.6226044000068214,['y'],0.2876557999989018,1.742,2134.9307288999917,,,,,526,18,Woman,Left,
,,,,,,,,,,,,,,,,,526,18,Woman,Left,4,37,0.4,2,0,180,180,0.5581035999930464,['y'],0.29543730001023505,1.724,2138.5978321999937,,,,,526,18,Woman,Left,
,,,,,,,,,,,,,,,,,526,18,Woman,Left,4,61,0.15,2,0,180,180,1.0197703000012552,['n'],0.5754906000074698,1.692,2142.381811799998,,,,,526,18,Woman,Left,
,,,,,,,,,,,,,,,,,526,18,Woman,Left,4,28,0.4,1,0,-,0,0.527281699993182,['y'],0.6792054999968968,1.788,2145.714088300003,,,,,526,18,Woman,Left,
,,,,,,,,,,,,,,,,,526,18,Woman,Left,4,4,1,1,0,-,0,1.251868999999715,['n'],0.431764299995848,1.798,2149.4308874999915,,,,,526,18,Woman,Left,
,,,,,,,,,,,,,,,,,526,18,Woman,Left,4,68,0.15,1,0,-,0,1.4029848000063794,['n'],0.45575569999346044,1.6560000000000001,2153.547747800003,,,,,526,18,Woman,Left,
,,,,,,,,,,,,,,,,,526,18,Woman,Left,4,29,0.4,2,0,180,180,0.7024282000056701,['y'],0.35984319999988656,1.826,2156.781508699998,,,,,526,18,Woman,Left,
,,,,,,,,,,,,,,,,,526,18,Woman,Left,4,3,1,2,180,0,0,0.48875410000619013,['y'],0.30415480000374373,1.784,2160.0974799000032,,,,,526,18,Woman,Left,
,,,,,,,,,,,,,,,,,526,18,Woman,Left,4,0,1,1,0,-,0,1.4189706999895861,['n'],0.5037318000104278,1.68,2164.213974099992,,,,,526,18,Woman,Left,
,,,,,,,,,,,,,,,,,526,18,Woman,Left,4,62,0.15,1,180,-,180,1.153541799998493,['n'],0.6637005999946268,1.682,2168.0639352999933,,,,,526,18,Woman,Left,
,,,,,,,,,,,,,,,,,526,18,Woman,Left,4,30,0.4,1,180,-,180,0.7195255000115139,['n'],0.29569999998784624,1.674,2171.13137119999,,,,,526,18,Woman,Left,
,,,,,,,,,,,,,,,,,526,18,Woman,Left,4,40,0.4,1,0,-,0,0.3546182999998564,['n'],0.4310549999936484,1.71,2174.197970999994,,,,,526,18,Woman,Left,
,,,,,,,,,,,,,,,,,526,18,Woman,Left,4,70,0.15,1,180,-,180,1.0677047000062885,['n'],1.4397074000007706,1.67,2178.748244299997,,,,,526,18,Woman,Left,
,,,,,,,,,,,,,,,,,526,18,Woman,Left,4,21,0.4,2,0,180,180,2.236724900008994,['y'],0.8310244000022067,1.918,2183.947191099993,,,,,526,18,Woman,Left,
,,,,,,,,,,,,,,,,,526,18,Woman,Left,4,71,0.15,2,180,0,0,0.7097157000098377,['y'],0.424066399995354,1.802,2187.1306157,,,,,526,18,Woman,Left,
,,,,,,,,,,,,,,,,,526,18,Woman,Left,4,12,0.4,1,0,-,0,0.774486899987096,['n'],0.4800624999916181,1.762,2190.4639110999924,,,,,526,18,Woman,Left,
,,,,,,,,,,,,,,,,,526,18,Woman,Left,4,9,0.4,2,0,180,180,1.168674699991243,['y'],0.39972869999473915,1.746,2195.01418369999,,,,,526,18,Woman,Left,
,,,,,,,,,,,,,,,,,526,18,Woman,Left,4,65,0.15,2,0,180,180,0.961018600006355,['y'],1.7594862999976613,1.736,2199.947342599997,,,,,526,18,Woman,Left,
,,,,,,,,,,,,,,,,,526,18,Woman,Left,4,34,0.4,1,180,-,180,0.6767534000100568,['n'],0.2631509000057122,1.714,2203.047207699994,,,,,526,18,Woman,Left,
,,,,,,,,,,,,,,,,,526,18,Woman,Left,4,76,0.15,1,0,-,0,0.5282604999956675,['n'],0.2638488999946276,1.792,2206.1139458000034,,,,,526,18,Woman,Left,
,,,,,,,,,,,,,,,,,526,18,Woman,Left,4,23,0.4,2,180,0,0,1.0353045000083512,['y'],0.4320122000062838,1.828,2209.763920599995,,,,,526,18,Woman,Left,
,,,,,,,,,,,,,,,,,526,18,Woman,Left,4,75,0.15,2,180,0,0,0.9594594000081997,['n'],0.35211220000928733,1.5939999999999999,2213.181206400004,,,,,526,18,Woman,Left,
,,,,,,,,,,,,,,,,,526,18,Woman,Left,4,13,0.4,2,0,180,180,1.4381180000054883,['y'],0.5994164000003366,1.8,2217.3139075,,,,,526,18,Woman,Left,
,,,,,,,,,,,,,,,,,526,18,Woman,Left,4,69,0.15,2,0,180,180,1.081807700000354,['y'],0.31955320000997745,1.69,2220.8472060999993,,,,,526,18,Woman,Left,
,,,,,,,,,,,,,,,,,526,18,Woman,Left,4,48,0.15,1,0,-,180,0.6837570000061532,['y'],0.44795410000369884,1.2,2225.4638825999937,,,,,526,18,Woman,Left,
,,,,,,,,,,,,,,,,,526,18,Woman,Left,4,41,0.4,2,0,180,180,0.6051980000047479,['y'],0.567996800004039,1.804,2228.9471585999927,,,,,526,18,Woman,Left,
,,,,,,,,,,,,,,,,,526,18,Woman,Left,4,16,0.4,1,0,-,180,0.5072385999956168,['n'],0.7436369999923045,1.264,2233.1138375999944,,,,,526,18,Woman,Left,
,,,,,,,,,,,,,,,,,526,18,Woman,Left,4,8,0.4,1,0,-,0,1.5809757000097306,['n'],1.9434783999895444,1.748,2238.813864699994,,,,,526,18,Woman,Left,
,,,,,,,,,,,,,,,,,526,18,Woman,Left,4,43,0.4,2,180,0,0,0.7219312999950489,['y'],0.32727590001013596,1.8599999999999999,2241.9648361999934,,,,,526,18,Woman,Left,
,,,,,,,,,,,,,,,,,526,18,Woman,Left,4,58,0.15,1,180,-,180,2.1399373000022024,['n'],0.7514173000090523,1.3599999999999999,2247.1973392,,,,,526,18,Woman,Left,
,,,,,,,,,,,,,,,,,526,18,Woman,Left,4,54,0.15,1,180,-,180,1.0083612000016728,['n'],0.607615100001567,1.208,2251.4814057999974,,,,,526,18,Woman,Left,
,,,,,,,,,,,,,,,,,526,18,Woman,Left,5,79,0.15,2,180,0,0,0.8995221999939531,['y'],0.9362738999916473,1.808,2272.9473755,92.5,70.0,85.0,,526,18,Woman,Left,
,,,,,,,,,,,,,,,,,526,18,Woman,Left,5,17,0.4,2,0,180,180,0.7509367000020575,['y'],0.5116389000031631,1.812,2276.3639006999947,,,,,526,18,Woman,Left,
,,,,,,,,,,,,,,,,,526,18,Woman,Left,5,5,1,2,0,180,180,0.3669249999948079,['y'],0.4638364999991609,1.96,2279.4138082999925,,,,,526,18,Woman,Left,
,,,,,,,,,,,,,,,,,526,18,Woman,Left,5,62,0.15,1,180,-,180,0.8238491999945836,['n'],0.7028833000076702,1.666,2282.9972144999992,,,,,526,18,Woman,Left,
,,,,,,,,,,,,,,,,,526,18,Woman,Left,5,35,0.4,2,180,0,0,0.415168999999878,['y'],0.32793800000217743,1.924,2285.930444199992,,,,,526,18,Woman,Left,
,,,,,,,,,,,,,,,,,526,18,Woman,Left,5,12,0.4,1,0,-,0,0.7650934999983292,['n'],0.7352265000081388,1.706,2289.5977676999973,,,,,526,18,Woman,Left,
,,,,,,,,,,,,,,,,,526,18,Woman,Left,5,26,0.4,1,180,-,180,0.8813131999922916,['y'],0.3604059000062989,1.712,2292.932023900001,,,,,526,18,Woman,Left,
,,,,,,,,,,,,,,,,,526,18,Woman,Left,5,23,0.4,2,180,0,0,0.9566257000115002,['y'],0.47899210000468884,1.904,2296.4474436999953,,,,,526,18,Woman,Left,
,,,,,,,,,,,,,,,,,526,18,Woman,Left,5,65,0.15,2,0,180,180,2.4642075000010664,['y'],0.9275677000114229,1.712,2301.99735659999,,,,,526,18,Woman,Left,
,,,,,,,,,,,,,,,,,526,18,Woman,Left,5,56,0.15,1,0,-,0,1.1629736999893794,['n'],0.3357436000078451,1.784,2305.6311286999917,,,,,526,18,Woman,Left,
,,,,,,,,,,,,,,,,,526,18,Woman,Left,5,44,0.15,1,0,-,0,0.7545489999902202,['y'],0.6796482000063406,1.728,2309.213853999994,,,,,526,18,Woman,Left,
,,,,,,,,,,,,,,,,,526,18,Woman,Left,5,21,0.4,2,0,180,180,0.6013958000112325,['y'],1.2330147000029683,1.728,2309.213853999994,,,,,526,18,Woman,Left,
,,,,,,,,,,,,,,,,,526,18,Woman,Left,5,22,0.4,1,180,-,0,2.2437265000044135,['n'],1.9442013000079896,1.072,2320.047088799991,,,,,526,18,Woman,Left,
,,,,,,,,,,,,,,,,,526,18,Woman,Left,5,66,0.15,1,180,-,0,0.7220244999916758,['n'],1.000020499996026,1.186,2324.1471603000027,,,,,526,18,Woman,Left,
,,,,,,,,,,,,,,,,,526,18,Woman,Left,5,69,0.15,2,0,180,0,1.0452258000004804,['n'],0.40704079999704845,1.2,2328.047139299997,,,,,526,18,Woman,Left,
,,,,,,,,,,,,,,,,,526,18,Woman,Left,5,76,0.15,1,0,-,180,0.5422248999966541,['n'],0.9278912000008859,1.096,2332.180428899992,,,,,526,18,Woman,Left,
,,,,,,,,,,,,,,,,,526,18,Woman,Left,5,10,0.4,1,180,-,180,0.6436376999918139,['y'],0.9436148999957368,1.0,2336.797705099998,,,,,526,18,Woman,Left,
,,,,,,,,,,,,,,,,,526,18,Woman,Left,5,48,0.15,1,0,-,0,0.3813446999993175,['n'],0.6394956000003731,1.7,2340.280456699991,,,,,526,18,Woman,Left,
,,,,,,,,,,,,,,,,,526,18,Woman,Left,5,41,0.4,2,0,180,180,0.6948821999976644,['y'],0.5831043000071077,1.91,2343.830387599992,,,,,526,18,Woman,Left,
,,,,,,,,,,,,,,,,,526,18,Woman,Left,5,61,0.15,2,0,180,180,0.7373473000043305,['y'],0.2068693000037456,1.706,2346.9804296,,,,,526,18,Woman,Left,
,,,,,,,,,,,,,,,,,526,18,Woman,Left,5,45,0.15,2,0,180,180,1.1360554999992019,['y'],0.3759571999980835,1.71,2350.664294800001,,,,,526,18,Woman,Left,
,,,,,,,,,,,,,,,,,526,18,Woman,Left,5,39,0.4,2,180,0,0,0.3706134999956703,['y'],0.4633395999990171,1.738,2353.6815847000034,,,,,526,18,Woman,Left,
,,,,,,,,,,,,,,,,,526,18,Woman,Left,5,75,0.15,2,180,0,0,3.45640419999836,['n'],1.0472282999980962,1.6560000000000001,2360.231147599996,,,,,526,18,Woman,Left,
,,,,,,,,,,,,,,,,,526,18,Woman,Left,5,1,1,2,0,180,180,0.5940142999897944,['y'],0.49540119999437593,1.908,2363.4138648000007,,,,,526,18,Woman,Left,
,,,,,,,,,,,,,,,,,526,18,Woman,Left,5,3,1,2,180,0,0,0.3680115999886766,['y'],0.6159673999936786,1.946,2366.547192799997,,,,,526,18,Woman,Left,
,,,,,,,,,,,,,,,,,526,18,Woman,Left,5,57,0.15,2,0,180,180,1.7638712000043597,['n'],1.4245474999916041,1.6099999999999999,2372.3313591999977,,,,,526,18,Woman,Left,
,,,,,,,,,,,,,,,,,526,18,Woman,Left,5,7,1,2,180,0,0,0.4713276999973459,['y'],0.6073682999995071,2.0,2375.781148300004,,,,,526,18,Woman,Left,
,,,,,,,,,,,,,,,,,526,18,Woman,Left,5,55,0.15,2,180,0,180,1.8546735999989323,['n'],0.7837353999930201,1.342,2381.2137760999976,,,,,526,18,Woman,Left,
,,,,,,,,,,,,,,,,,526,18,Woman,Left,5,46,0.15,1,180,-,180,1.2642055999895092,['n'],0.4710470999998506,1.69,2385.3477862999935,,,,,526,18,Woman,Left,
,,,,,,,,,,,,,,,,,526,18,Woman,Left,5,54,0.15,1,180,-,180,0.5034853000106523,['n'],0.6476467999891611,1.65,2388.513672299996,,,,,526,18,Woman,Left,
,,,,,,,,,,,,,,,,,526,18,Woman,Left,5,40,0.4,1,0,-,0,0.5018567999941297,['n'],0.5040733000059845,1.676,2391.6970731999972,,,,,526,18,Woman,Left,
,,,,,,,,,,,,,,,,,526,18,Woman,Left,5,68,0.15,1,0,-,0,0.9370264000026509,['n'],0.33589190000202507,1.706,2395.131022499998,,,,,526,18,Woman,Left,
,,,,,,,,,,,,,,,,,526,18,Woman,Left,5,27,0.4,2,180,0,0,1.113292800000636,['y'],0.6554941000067629,1.792,2398.9810069000014,,,,,526,18,Woman,Left,
,,,,,,,,,,,,,,,,,526,18,Woman,Left,5,59,0.15,2,180,0,180,0.7200509000103921,['n'],0.6233042999956524,1.548,2402.5136035999967,,,,,526,18,Woman,Left,
,,,,,,,,,,,,,,,,,526,18,Woman,Left,5,52,0.15,1,0,-,0,0.607998099992983,['n'],0.8234996999963187,1.6680000000000001,2406.0637105999995,,,,,526,18,Woman,Left,
,,,,,,,,,,,,,,,,,526,18,Woman,Left,5,58,0.15,1,180,-,180,0.6335725999961141,['n'],0.4983466999983648,1.6099999999999999,2409.297699499999,,,,,526,18,Woman,Left,
,,,,,,,,,,,,,,,,,526,18,Woman,Left,5,31,0.4,2,180,0,0,0.6273129000037443,['y'],0.48740270000416785,1.8519999999999999,2412.530808100004,,,,,526,18,Woman,Left,
,,,,,,,,,,,,,,,,,526,18,Woman,Left,5,36,0.4,1,0,-,0,0.8289780000050087,['n'],0.35911740000301506,1.666,2415.7310203000015,,,,,526,18,Woman,Left,
,,,,,,,,,,,,,,,,,526,18,Woman,Left,5,49,0.15,2,0,180,0,2.0269281000073534,['n'],0.27980409999145195,1.6400000000000001,2420.147744099995,,,,,526,18,Woman,Left,
,,,,,,,,,,,,,,,,,526,18,Woman,Left,5,20,0.4,1,0,-,0,0.6387586999917403,['n'],0.2395659999892814,1.612,2423.2138497999913,,,,,526,18,Woman,Left,
,,,,,,,,,,,,,,,,,526,18,Woman,Left,5,43,0.4,2,180,0,0,0.7158397000021068,['y'],0.33580760000040755,1.792,2426.480958699998,,,,,526,18,Woman,Left,
,,,,,,,,,,,,,,,,,526,18,Woman,Left,5,19,0.4,2,180,0,0,0.6772428999975091,['y'],0.4321463000087533,1.742,2429.880398599991,,,,,526,18,Woman,Left,
,,,,,,,,,,,,,,,,,526,18,Woman,Left,5,30,0.4,1,180,-,180,0.36679269999149255,['n'],0.8539826999913203,1.6440000000000001,2433.2307213999957,,,,,526,18,Woman,Left,
,,,,,,,,,,,,,,,,,526,18,Woman,Left,5,15,0.4,2,180,0,0,0.5226956000115024,['y'],0.4799098000075901,1.8780000000000001,2436.3303969999906,,,,,526,18,Woman,Left,
,,,,,,,,,,,,,,,,,526,18,Woman,Left,5,42,0.4,1,180,-,180,0.6942826000013156,['n'],0.5188597000087611,1.552,2439.7139368999997,,,,,526,18,Woman,Left,
,,,,,,,,,,,,,,,,,526,18,Woman,Left,5,18,0.4,1,180,-,180,0.8892073000024538,['n'],0.9749473999982001,1.716,2443.680298500003,,,,,526,18,Woman,Left,
,,,,,,,,,,,,,,,,,526,18,Woman,Left,5,51,0.15,2,180,0,180,2.0332077000057325,['n'],0.775726299994858,1.37,2448.863521500003,,,,,526,18,Woman,Left,
,,,,,,,,,,,,,,,,,526,18,Woman,Left,5,9,0.4,2,0,180,180,0.7851472000038484,['y'],0.5923424000066007,1.806,2452.4640688,,,,,526,18,Woman,Left,
,,,,,,,,,,,,,,,,,526,18,Woman,Left,5,71,0.15,2,180,0,0,0.5375134000059916,['y'],0.391675299993949,1.838,2455.5135684999914,,,,,526,18,Woman,Left,
,,,,,,,,,,,,,,,,,526,18,Woman,Left,5,2,1,1,180,-,180,1.1010875000065425,['n'],0.5357151999924099,1.3860000000000001,2459.630956899993,,,,,526,18,Woman,Left,
,,,,,,,,,,,,,,,,,526,18,Woman,Left,5,67,0.15,2,180,0,180,0.8928974000009475,['n'],0.6073094000021229,1.03,2463.8635828999904,,,,,526,18,Woman,Left,
,,,,,,,,,,,,,,,,,526,18,Woman,Left,5,60,0.15,1,0,-,0,0.6784102000092389,['n'],0.5838825000100769,1.5939999999999999,2468.530375800001,,,,,526,18,Woman,Left,
,,,,,,,,,,,,,,,,,526,18,Woman,Left,5,6,1,1,180,-,180,0.5471198000013828,['n'],0.45576019999862183,1.5739999999999998,2471.6310065999933,,,,,526,18,Woman,Left,
,,,,,,,,,,,,,,,,,526,18,Woman,Left,5,0,1,1,0,-,0,0.36334809999971185,['n'],0.3673904000024777,1.8679999999999999,2475.1479832999976,,,,,526,18,Woman,Left,
,,,,,,,,,,,,,,,,,526,18,Woman,Left,5,63,0.15,2,180,0,180,1.7118421000050148,['n'],0.7085454999905778,1.764,2480.080871899998,,,,,526,18,Woman,Left,
,,,,,,,,,,,,,,,,,526,18,Woman,Left,5,50,0.15,1,180,-,180,1.005031799999415,['n'],0.8396007999981521,1.684,2484.064063299993,,,,,526,18,Woman,Left,
,,,,,,,,,,,,,,,,,526,18,Woman,Left,5,16,0.4,1,0,-,0,0.3932719000003999,['n'],0.38392960000783205,1.942,2487.113879299992,,,,,526,18,Woman,Left,
,,,,,,,,,,,,,,,,,526,18,Woman,Left,5,78,0.15,1,180,-,180,0.9779067000054056,['n'],0.4076850999990711,1.946,2490.6645542999977,,,,,526,18,Woman,Left,
,,,,,,,,,,,,,,,,,526,18,Woman,Left,5,38,0.4,1,180,-,180,0.5829472000041278,['n'],0.3358596000034595,1.832,2493.730763599997,,,,,526,18,Woman,Left,
,,,,,,,,,,,,,,,,,526,18,Woman,Left,5,37,0.4,2,0,180,180,1.2909396000031848,['y'],0.36760889999277424,1.914,2497.5304388000004,,,,,526,18,Woman,Left,
,,,,,,,,,,,,,,,,,526,18,Woman,Left,5,70,0.15,1,180,-,180,0.8757903000077931,['n'],0.23951129999477416,1.812,2500.8141354000036,,,,,526,18,Woman,Left,
,,,,,,,,,,,,,,,,,526,18,Woman,Left,5,28,0.4,1,0,-,0,0.4009613999951398,['n'],0.2636581999977352,1.8439999999999999,2503.6307080999904,,,,,526,18,Woman,Left,
,,,,,,,,,,,,,,,,,526,18,Woman,Left,5,32,0.4,1,0,-,0,1.1274669999984326,['y'],0.9037049999897135,1.3399999999999999,2508.1636534999925,,,,,526,18,Woman,Left,
,,,,,,,,,,,,,,,,,526,18,Woman,Left,5,29,0.4,2,0,180,180,0.87676189999911,['y'],0.6395177999947919,1.9060000000000001,2512.0303082999962,,,,,526,18,Woman,Left,
,,,,,,,,,,,,,,,,,526,18,Woman,Left,5,34,0.4,1,180,-,180,1.165252299993881,['n'],0.5276523999928031,1.5979999999999999,2516.4468211999992,,,,,526,18,Woman,Left,
,,,,,,,,,,,,,,,,,526,18,Woman,Left,5,77,0.15,2,0,180,180,1.0598071999993408,['y'],0.6159102999954484,1.874,2520.2303703,,,,,526,18,Woman,Left,
,,,,,,,,,,,,,,,,,526,18,Woman,Left,5,24,0.4,1,0,-,0,0.40140010000322945,['y'],0.6716730999905849,1.206,2524.0135210999943,,,,,526,18,Woman,Left,
,,,,,,,,,,,,,,,,,526,18,Woman,Left,5,8,0.4,1,0,-,0,1.2264878999994835,['n'],0.5512765000021318,1.68,2528.0136167999954,,,,,526,18,Woman,Left,
,,,,,,,,,,,,,,,,,526,18,Woman,Left,5,47,0.15,2,180,0,0,0.5510943999979645,['y'],0.47226640000008047,1.884,2531.0801334999924,,,,,526,18,Woman,Left,
,,,,,,,,,,,,,,,,,526,18,Woman,Left,5,64,0.15,1,0,-,0,1.0250106999883428,['n'],0.39186899999913294,1.71,2534.663508299993,,,,,526,18,Woman,Left,
,,,,,,,,,,,,,,,,,526,18,Woman,Left,5,4,1,1,0,-,0,0.758709200003068,['n'],0.43922070000553504,1.9020000000000001,2537.9635270999934,,,,,526,18,Woman,Left,
,,,,,,,,,,,,,,,,,526,18,Woman,Left,5,14,0.4,1,180,-,180,0.9843627999944147,['n'],0.559748400002718,1.922,2541.6812142999916,,,,,526,18,Woman,Left,
,,,,,,,,,,,,,,,,,526,18,Woman,Left,5,74,0.15,1,180,-,180,0.9876696999999695,['n'],0.4471851999987848,1.838,2545.3310009999914,,,,,526,18,Woman,Left,
,,,,,,,,,,,,,,,,,526,18,Woman,Left,5,72,0.15,1,0,-,180,0.6997924000024796,['n'],0.35144369999761693,1.918,2548.5635274000015,,,,,526,18,Woman,Left,
,,,,,,,,,,,,,,,,,526,18,Woman,Left,5,73,0.15,2,0,180,180,0.740798899991205,['n'],0.26359360000060406,1.938,2552.114274899992,,,,,526,18,Woman,Left,
,,,,,,,,,,,,,,,,,526,18,Woman,Left,5,25,0.4,2,0,180,180,1.4515259999898262,['y'],0.44749249999586027,1.8559999999999999,2556.1305839999914,,,,,526,18,Woman,Left,
,,,,,,,,,,,,,,,,,526,18,Woman,Left,5,11,0.4,2,180,0,0,0.7233883000008063,['y'],0.6316278000012971,1.854,2560.080227599996,,,,,526,18,Woman,Left,
,,,,,,,,,,,,,,,,,526,18,Woman,Left,5,33,0.4,2,0,180,180,0.8522467000002507,['y'],0.5516768999950727,1.974,2563.697839399996,,,,,526,18,Woman,Left,
,,,,,,,,,,,,,,,,,526,18,Woman,Left,5,53,0.15,2,0,180,180,0.8090934000065317,['y'],0.38272029999643564,1.91,2566.930856500003,,,,,526,18,Woman,Left,
,,,,,,,,,,,,,,,,,526,18,Woman,Left,5,13,0.4,2,0,180,180,0.30432890000520274,['y'],0.5273702000122285,1.874,2569.7968021999914,,,,,526,18,Woman,Left,
,,,,,,,,,,,,,,,,,,,,,,,,,,,,,,,,,86.25,87.5,75.0,2210.6910717000064,,,,,
