p_block,p_section,p_coherence,p_direction1,p_direction2,p_direction_response,p_direction_RT,p_change_response,p_change_RT,p_confidence,p_full_correct,p_without5_correct,p_full_total,p_without5_total,p_full_avg,p_witout5_avg,p_total_time,sub,age,sex,handedness,loop,trial randomization,coherence,condition,direction1,direction2,direction_response,direction_RT,change_response,change_RT,change_confidence,change_confidence_RT,block_direction_avg,block_stable_avg,block_change_avg,total_time,sub,age,sex,handedness,
1,1,1.0,0,-,0,0.9415873000000374,-,-,-,,,,,,,,564,18,Woman,Right,,,,,,,,,,,,,,,,,564,18,Woman,Right,
1,1,1.0,180,-,180,0.016581299999984367,-,-,-,,,,,,,,564,18,Woman,Right,,,,,,,,,,,,,,,,,564,18,Woman,Right,
1,1,1.0,180,-,180,0.016737500000090222,-,-,-,,,,,,,,564,18,Woman,Right,,,,,,,,,,,,,,,,,564,18,Woman,Right,
1,1,1.0,180,-,180,2.1816100999999435,-,-,-,,,,,,,,564,18,Woman,Right,,,,,,,,,,,,,,,,,564,18,Woman,Right,
1,1,1.0,0,-,0,0.05630729999995765,-,-,-,,,,,,,,564,18,Woman,Right,,,,,,,,,,,,,,,,,564,18,Woman,Right,
1,1,1.0,0,-,0,0.017188900000064677,-,-,-,,,,,,,,564,18,Woman,Right,,,,,,,,,,,,,,,,,564,18,Woman,Right,
1,1,1.0,180,-,180,0.016635199999996075,-,-,-,,,,,,,,564,18,Woman,Right,,,,,,,,,,,,,,,,,564,18,Woman,Right,
1,1,1.0,180,-,180,1.115481599999839,-,-,-,,,,,,,,564,18,Woman,Right,,,,,,,,,,,,,,,,,564,18,Woman,Right,
1,1,1.0,0,-,0,0.4010112000000845,-,-,-,,,,,,,,564,18,Woman,Right,,,,,,,,,,,,,,,,,564,18,Woman,Right,
1,1,1.0,180,-,180,0.7387737999999899,-,-,-,10,10,10,10,1.0,1.0,,564,18,Woman,Right,,,,,,,,,,,,,,,,,564,18,Woman,Right,
2,1,0.4,0,-,0,0.10290970000005473,-,-,-,,,,,,,,564,18,Woman,Right,,,,,,,,,,,,,,,,,564,18,Woman,Right,
2,1,0.4,0,-,0,0.1096857,-,-,-,,,,,,,,564,18,Woman,Right,,,,,,,,,,,,,,,,,564,18,Woman,Right,
2,1,0.15,0,-,0,0.05966239999997924,-,-,-,,,,,,,,564,18,Woman,Right,,,,,,,,,,,,,,,,,564,18,Woman,Right,
2,1,0.15,180,-,0,0.5162559999998848,-,-,-,,,,,,,,564,18,Woman,Right,,,,,,,,,,,,,,,,,564,18,Woman,Right,
2,1,0.4,0,-,0,0.12171019999982491,-,-,-,,,,,,,,564,18,Woman,Right,,,,,,,,,,,,,,,,,564,18,Woman,Right,
2,1,0.4,0,-,0,0.016756799999939176,-,-,-,,,,,,,,564,18,Woman,Right,,,,,,,,,,,,,,,,,564,18,Woman,Right,
2,1,0.15,180,-,0,0.8722026999998889,-,-,-,,,,,,,,564,18,Woman,Right,,,,,,,,,,,,,,,,,564,18,Woman,Right,
2,1,0.15,0,-,0,0.09575939999990624,-,-,-,,,,,,,,564,18,Woman,Right,,,,,,,,,,,,,,,,,564,18,Woman,Right,
2,1,0.15,180,-,180,0.03830539999989924,-,-,-,,,,,,,,564,18,Woman,Right,,,,,,,,,,,,,,,,,564,18,Woman,Right,
2,1,0.15,0,-,0,0.016761200000019016,-,-,-,8,4,10,4,0.8,1.0,,564,18,Woman,Right,,,,,,,,,,,,,,,,,564,18,Woman,Right,
3,2,1.0,0,180,0,0.6478025000001253,['y'],7.3291730999999345,1.992,,,,,,,,564,18,Woman,Right,,,,,,,,,,,,,,,,,564,18,Woman,Right,
3,2,1.0,0,180,180,1.7633309000000281,['y'],2.4902603000000454,1.99,,,,,,,,564,18,Woman,Right,,,,,,,,,,,,,,,,,564,18,Woman,Right,
3,2,1.0,180,0,0,2.6830201000000216,['y'],3.4059652999999344,1.992,,,,,,,,564,18,Woman,Right,,,,,,,,,,,,,,,,,564,18,Woman,Right,
3,2,1.0,180,0,0,1.35046669999997,['y'],1.3685542000000623,1.996,,,,,,,,564,18,Woman,Right,,,,,,,,,,,,,,,,,564,18,Woman,Right,
3,2,1.0,0,180,180,0.7726486999999906,['y'],0.5036677000000509,1.992,,,,,,,,564,18,Woman,Right,,,,,,,,,,,,,,,,,564,18,Woman,Right,
3,2,1.0,180,0,0,0.5920014999999239,['y'],0.5880745999997998,1.998,,,,,,,,564,18,Woman,Right,,,,,,,,,,,,,,,,,564,18,Woman,Right,
3,2,1.0,0,180,180,2.7562365999999656,['y'],1.4814245000000028,2.0,,,,,,,,564,18,Woman,Right,,,,,,,,,,,,,,,,,564,18,Woman,Right,
3,2,1.0,0,180,180,0.6162977999999839,['y'],0.524224600000025,1.994,,,,,,,,564,18,Woman,Right,,,,,,,,,,,,,,,,,564,18,Woman,Right,
3,2,1.0,180,0,0,1.3168282999999974,['y'],0.3202767000000222,1.994,,,,,,,,564,18,Woman,Right,,,,,,,,,,,,,,,,,564,18,Woman,Right,
3,2,1.0,180,0,0,1.7418158000000403,['y'],1.4250257000001056,1.994,9,9,10,10,0.9,0.9,,564,18,Woman,Right,,,,,,,,,,,,,,,,,564,18,Woman,Right,
4,2,0.4,180,0,0,0.9567580000000362,['y'],2.536332399999992,1.994,,,,,,,,564,18,Woman,Right,,,,,,,,,,,,,,,,,564,18,Woman,Right,
4,2,0.4,180,0,0,0.6899690000000192,['y'],0.9708762000000206,1.994,,,,,,,,564,18,Woman,Right,,,,,,,,,,,,,,,,,564,18,Woman,Right,
4,2,0.15,180,0,0,3.292498300000034,['n'],1.0765544000000773,1.0,,,,,,,,564,18,Woman,Right,,,,,,,,,,,,,,,,,564,18,Woman,Right,
4,2,0.4,180,0,0,0.9003611000000546,['y'],0.886547500000006,1.982,,,,,,,,564,18,Woman,Right,,,,,,,,,,,,,,,,,564,18,Woman,Right,
4,2,0.15,0,180,180,0.5943727999999737,['y'],0.5849762000000283,1.968,,,,,,,,564,18,Woman,Right,,,,,,,,,,,,,,,,,564,18,Woman,Right,
4,2,0.4,180,0,180,1.0885572999998203,['y'],1.5324255999998968,1.998,,,,,,,,564,18,Woman,Right,,,,,,,,,,,,,,,,,564,18,Woman,Right,
4,2,0.15,180,0,180,0.66587770000001,['y'],1.7839162000000215,1.972,,,,,,,,564,18,Woman,Right,,,,,,,,,,,,,,,,,564,18,Woman,Right,
4,2,0.15,180,0,0,0.4987935000001471,['y'],0.2645255999998426,1.98,,,,,,,,564,18,Woman,Right,,,,,,,,,,,,,,,,,564,18,Woman,Right,
4,2,0.4,0,180,180,0.3548697000001084,['y'],0.23117819999993117,1.98,,,,,,,,564,18,Woman,Right,,,,,,,,,,,,,,,,,564,18,Woman,Right,
4,2,0.15,0,180,180,1.1992115999998987,['y'],0.6184729999999945,1.982,8,4,10,5,0.8,0.8,,564,18,Woman,Right,,,,,,,,,,,,,,,,,564,18,Woman,Right,
5,3,0.15,0,180,180,3.760509700000057,['y'],1.3077442000001156,2.0,,,,,,,,564,18,Woman,Right,,,,,,,,,,,,,,,,,564,18,Woman,Right,
5,3,0.15,0,180,180,0.78306160000011,['y'],0.2824663999999757,1.992,,,,,,,,564,18,Woman,Right,,,,,,,,,,,,,,,,,564,18,Woman,Right,
5,3,1.0,180,0,0,0.85423650000007,['n'],1.1597242000000278,1.002,,,,,,,,564,18,Woman,Right,,,,,,,,,,,,,,,,,564,18,Woman,Right,
5,3,0.15,0,-,0,1.3464481000000887,['y'],1.8976184000000558,1.0,,,,,,,,564,18,Woman,Right,,,,,,,,,,,,,,,,,564,18,Woman,Right,
5,3,0.4,180,0,0,0.7132769999998345,['y'],3.1239987000001292,2.0,,,,,,,,564,18,Woman,Right,,,,,,,,,,,,,,,,,564,18,Woman,Right,
5,3,0.15,0,180,180,1.3243316999999024,['y'],1.5202129000001605,2.0,,,,,,,,564,18,Woman,Right,,,,,,,,,,,,,,,,,564,18,Woman,Right,
5,3,0.4,180,-,0,0.7280839000000014,['y'],4.00373320000017,1.026,,,,,,,,564,18,Woman,Right,,,,,,,,,,,,,,,,,564,18,Woman,Right,
5,3,0.15,0,180,180,7.833312199999909,['y'],1.0764429999999265,1.996,,,,,,,,564,18,Woman,Right,,,,,,,,,,,,,,,,,564,18,Woman,Right,
5,3,0.4,180,-,0,0.9010642000000644,['n'],0.8862500000000182,2.0,,,,,,,,564,18,Woman,Right,,,,,,,,,,,,,,,,,564,18,Woman,Right,
5,3,0.15,0,-,0,0.820720700000038,['y'],0.6902548000000479,1.0,,,,,,,,564,18,Woman,Right,,,,,,,,,,,,,,,,,564,18,Woman,Right,
5,3,0.15,0,180,0,1.3703785000000153,['n'],0.43507580000004964,1.0,,,,,,,,564,18,Woman,Right,,,,,,,,,,,,,,,,,564,18,Woman,Right,
5,3,0.15,0,180,180,0.6294702000000143,['y'],0.7338807999999517,2.0,,,,,,,,564,18,Woman,Right,,,,,,,,,,,,,,,,,564,18,Woman,Right,
5,3,0.4,180,0,0,0.5035166000000117,['y'],0.7566905999999562,2.0,,,,,,,,564,18,Woman,Right,,,,,,,,,,,,,,,,,564,18,Woman,Right,
5,3,0.4,180,-,180,0.9191316999999799,['y'],0.9963314999999966,1.002,,,,,,,,564,18,Woman,Right,,,,,,,,,,,,,,,,,564,18,Woman,Right,
5,3,0.15,180,-,180,0.979873600000019,['y'],1.7772580000000744,1.0,,,,,,,,564,18,Woman,Right,,,,,,,,,,,,,,,,,564,18,Woman,Right,
5,3,0.15,0,180,0,0.6646343999998408,['y'],1.3779082000000926,1.966,,,,,,,,564,18,Woman,Right,,,,,,,,,,,,,,,,,564,18,Woman,Right,
5,3,1.0,0,-,0,0.716587299999901,['n'],1.5590577999998914,2.0,,,,,,,,564,18,Woman,Right,,,,,,,,,,,,,,,,,564,18,Woman,Right,
5,3,1.0,180,0,0,0.8332786999999371,['y'],0.5189455999998245,2.0,,,,,,,,564,18,Woman,Right,,,,,,,,,,,,,,,,,564,18,Woman,Right,
5,3,0.4,180,0,0,0.7071177000000262,['y'],0.2713350999999875,2.0,,,,,,,,564,18,Woman,Right,,,,,,,,,,,,,,,,,564,18,Woman,Right,
5,3,0.4,0,-,180,0.9790536999998949,['n'],0.9489467000000786,2.0,7,5,10,6,0.7,0.8333333333333334,,564,18,Woman,Right,,,,,,,,,,,,,,,,,564,18,Woman,Right,
,,,,,,,,,,,,,,,,4.200000148557592e-06,564,18,Woman,Right,,,,,,,,,,,,,,,,,564,18,Woman,Right,
,,,,,,,,,,,,,,,,,564,18,Woman,Right,0,47,0.15,2,180,0,180,0.8667011999998522,['y'],4.763788799999929,1.482,479.79936040000007,,,,,564,18,Woman,Right,
,,,,,,,,,,,,,,,,,564,18,Woman,Right,0,62,0.15,1,180,-,0,2.738538999999946,['y'],5.164519200000086,1.976,491.9326496000001,,,,,564,18,Woman,Right,
,,,,,,,,,,,,,,,,,564,18,Woman,Right,0,33,0.4,2,0,180,180,0.4296431999998731,['y'],1.933171499999844,2.0,500.0659174,,,,,564,18,Woman,Right,
,,,,,,,,,,,,,,,,,564,18,Woman,Right,0,61,0.15,2,0,180,180,0.5726435999999921,['y'],1.7422933000000285,2.0,509.0993040999999,,,,,564,18,Woman,Right,
,,,,,,,,,,,,,,,,,564,18,Woman,Right,0,54,0.15,1,180,-,180,0.5950263000001996,['n'],2.9912367000001723,1.8599999999999999,517.632601,,,,,564,18,Woman,Right,
,,,,,,,,,,,,,,,,,564,18,Woman,Right,0,58,0.15,1,180,-,180,0.5288766999999552,['n'],2.8723626999999397,1.884,525.265942,,,,,564,18,Woman,Right,
,,,,,,,,,,,,,,,,,564,18,Woman,Right,0,45,0.15,2,0,180,180,0.7582615000001169,['n'],2.185438000000204,1.174,534.5992943000001,,,,,564,18,Woman,Right,
,,,,,,,,,,,,,,,,,564,18,Woman,Right,0,38,0.4,1,180,-,0,0.5730651000001217,['y'],1.6586630000001605,1.13,540.7994312999999,,,,,564,18,Woman,Right,
,,,,,,,,,,,,,,,,,564,18,Woman,Right,0,74,0.15,1,180,-,0,0.6559580999999071,['y'],1.8032141999999567,1.266,547.5658919,,,,,564,18,Woman,Right,
,,,,,,,,,,,,,,,,,564,18,Woman,Right,0,1,1,2,0,180,180,0.6608711000001222,['y'],1.547922299999982,1.984,554.3991633,,,,,564,18,Woman,Right,
,,,,,,,,,,,,,,,,,564,18,Woman,Right,0,75,0.15,2,180,0,0,1.1629679000000124,['y'],1.2047585000000254,2.0,561.1325378000001,,,,,564,18,Woman,Right,
,,,,,,,,,,,,,,,,,564,18,Woman,Right,0,46,0.15,1,180,-,180,1.1504798000000847,['y'],1.3142189000000144,1.058,567.7825471000001,,,,,564,18,Woman,Right,
,,,,,,,,,,,,,,,,,564,18,Woman,Right,0,31,0.4,2,180,0,0,0.64227249999999,['y'],1.125804300000027,2.0,574.5991193,,,,,564,18,Woman,Right,
,,,,,,,,,,,,,,,,,564,18,Woman,Right,0,21,0.4,2,0,180,180,0.9930495000000974,['y'],0.9832900999999765,2.0,581.065807,,,,,564,18,Woman,Right,
,,,,,,,,,,,,,,,,,564,18,Woman,Right,0,70,0.15,1,180,-,180,0.9939875000000029,['n'],2.800768000000062,1.224,589.3491609,,,,,564,18,Woman,Right,
,,,,,,,,,,,,,,,,,564,18,Woman,Right,0,44,0.15,1,0,-,0,1.2349730999999338,['n'],1.5933506000001216,1.62,596.4657670000001,,,,,564,18,Woman,Right,
,,,,,,,,,,,,,,,,,564,18,Woman,Right,0,79,0.15,2,180,0,0,0.8500956000000315,['y'],3.3462985000001026,1.246,604.8323720999999,,,,,564,18,Woman,Right,
,,,,,,,,,,,,,,,,,564,18,Woman,Right,0,49,0.15,2,0,180,180,0.9058919999999944,['y'],1.394894900000054,1.996,611.0991211,,,,,564,18,Woman,Right,
,,,,,,,,,,,,,,,,,564,18,Woman,Right,0,42,0.4,1,180,-,0,1.0858596000000489,['y'],1.4677748999999949,1.32,617.8990756000001,,,,,564,18,Woman,Right,
,,,,,,,,,,,,,,,,,564,18,Woman,Right,0,26,0.4,1,180,-,180,2.565240899999935,['n'],2.044869800000015,1.268,626.5659261000001,,,,,564,18,Woman,Right,
,,,,,,,,,,,,,,,,,564,18,Woman,Right,0,78,0.15,1,180,-,0,0.6559442000000217,['n'],1.133519700000079,1.862,633.0823645,,,,,564,18,Woman,Right,
,,,,,,,,,,,,,,,,,564,18,Woman,Right,0,16,0.4,1,0,-,0,1.436719900000071,['n'],1.4867216000000099,1.318,640.3993845,,,,,564,18,Woman,Right,
,,,,,,,,,,,,,,,,,564,18,Woman,Right,0,72,0.15,1,0,-,180,1.2691363000001274,['y'],1.215510600000016,1.126,647.0657129000001,,,,,564,18,Woman,Right,
,,,,,,,,,,,,,,,,,564,18,Woman,Right,0,13,0.4,2,0,180,180,0.6545751999999538,['y'],1.2881048999997802,2.0,653.7822367000001,,,,,564,18,Woman,Right,
,,,,,,,,,,,,,,,,,564,18,Woman,Right,0,5,1,2,0,180,180,0.844481500000029,['y'],1.2491507000002002,2.0,660.7989743,,,,,564,18,Woman,Right,
,,,,,,,,,,,,,,,,,564,18,Woman,Right,0,6,1,1,180,-,0,1.26870410000015,['y'],1.5858195000000705,1.138,668.5489987000001,,,,,564,18,Woman,Right,
,,,,,,,,,,,,,,,,,564,18,Woman,Right,0,2,1,1,180,-,180,1.5686554000001252,['n'],1.3068903999999293,1.952,676.1489450000001,,,,,564,18,Woman,Right,
,,,,,,,,,,,,,,,,,564,18,Woman,Right,0,71,0.15,2,180,0,180,4.283979099999897,['y'],1.5081290999999055,1.3719999999999999,686.1489505,,,,,564,18,Woman,Right,
,,,,,,,,,,,,,,,,,564,18,Woman,Right,0,29,0.4,2,0,180,180,1.5679964999999356,['y'],1.2290534000001117,1.8860000000000001,692.7156327,,,,,564,18,Woman,Right,
,,,,,,,,,,,,,,,,,564,18,Woman,Right,0,11,0.4,2,180,0,0,0.7857538000000659,['y'],1.2458570999999665,1.972,699.1488938,,,,,564,18,Woman,Right,
,,,,,,,,,,,,,,,,,564,18,Woman,Right,0,22,0.4,1,180,-,180,1.2825775999999678,['n'],1.1027394999998705,1.93,705.7324699999999,,,,,564,18,Woman,Right,
,,,,,,,,,,,,,,,,,564,18,Woman,Right,0,41,0.4,2,0,180,180,0.5764517000000069,['y'],1.1117466000000604,1.874,711.1822049,,,,,564,18,Woman,Right,
,,,,,,,,,,,,,,,,,564,18,Woman,Right,0,55,0.15,2,180,0,0,1.7225671999999577,['y'],1.1122439999999187,1.1139999999999999,717.8821724,,,,,564,18,Woman,Right,
,,,,,,,,,,,,,,,,,564,18,Woman,Right,0,66,0.15,1,180,-,180,0.7606034999998883,['y'],1.1848478999997951,1.696,723.4321398,,,,,564,18,Woman,Right,
,,,,,,,,,,,,,,,,,564,18,Woman,Right,0,39,0.4,2,180,0,0,0.5531320000000051,['y'],1.0976144999999633,2.0,729.3155392000001,,,,,564,18,Woman,Right,
,,,,,,,,,,,,,,,,,564,18,Woman,Right,0,53,0.15,2,0,180,180,0.8398799999999937,['n'],0.9703503999999157,1.5779999999999998,734.9155683000001,,,,,564,18,Woman,Right,
,,,,,,,,,,,,,,,,,564,18,Woman,Right,0,57,0.15,2,0,180,0,1.5514074000000164,['n'],1.2033248000000185,1.72,741.3821842,,,,,564,18,Woman,Right,
,,,,,,,,,,,,,,,,,564,18,Woman,Right,0,40,0.4,1,0,-,180,1.0172636999998304,['y'],1.0132645000001048,1.362,747.6655088,,,,,564,18,Woman,Right,
,,,,,,,,,,,,,,,,,564,18,Woman,Right,0,4,1,1,0,-,0,0.6848134000001664,['n'],0.8843151000000944,1.744,752.9487869,,,,,564,18,Woman,Right,
,,,,,,,,,,,,,,,,,564,18,Woman,Right,0,17,0.4,2,0,180,180,0.45005910000008953,['y'],1.0211769999998523,2.0,758.7987903999999,,,,,564,18,Woman,Right,
,,,,,,,,,,,,,,,,,564,18,Woman,Right,0,73,0.15,2,0,180,180,0.9476152999998249,['n'],1.429683999999952,1.6560000000000001,765.8321100000001,,,,,564,18,Woman,Right,
,,,,,,,,,,,,,,,,,564,18,Woman,Right,0,32,0.4,1,0,-,0,1.053190400000176,['n'],1.8550728999998682,1.5779999999999998,772.5821207000001,,,,,564,18,Woman,Right,
,,,,,,,,,,,,,,,,,564,18,Woman,Right,0,3,1,2,180,0,0,0.5503298000000996,['y'],1.7365939000001163,2.0,778.8319529,,,,,564,18,Woman,Right,
,,,,,,,,,,,,,,,,,564,18,Woman,Right,0,36,0.4,1,0,-,0,0.9834931999998844,['y'],1.298185500000045,1.334,785.6319627,,,,,564,18,Woman,Right,
,,,,,,,,,,,,,,,,,564,18,Woman,Right,0,0,1,1,0,-,0,1.1990140000000338,['n'],0.8411031000000548,1.8900000000000001,791.9987158000001,,,,,564,18,Woman,Right,
,,,,,,,,,,,,,,,,,564,18,Woman,Right,0,14,0.4,1,180,-,180,0.8301948000000721,['n'],1.6819642000000385,1.932,798.4153907,,,,,564,18,Woman,Right,
,,,,,,,,,,,,,,,,,564,18,Woman,Right,0,15,0.4,2,180,0,180,1.5266962999999123,['n'],1.2670246000000134,1.718,804.8819993,,,,,564,18,Woman,Right,
,,,,,,,,,,,,,,,,,564,18,Woman,Right,0,68,0.15,1,0,-,0,0.6008919000000787,['n'],1.0434393000000455,1.892,809.8152936000001,,,,,564,18,Woman,Right,
,,,,,,,,,,,,,,,,,564,18,Woman,Right,0,51,0.15,2,180,0,0,2.0812392000000273,['n'],0.8043559000000187,1.83,816.0986702,,,,,564,18,Woman,Right,
,,,,,,,,,,,,,,,,,564,18,Woman,Right,0,19,0.4,2,180,0,0,0.47756090000007134,['y'],1.5247087999998712,1.962,821.2820077000001,,,,,564,18,Woman,Right,
,,,,,,,,,,,,,,,,,564,18,Woman,Right,0,59,0.15,2,180,0,180,1.1922429999999622,['n'],1.1974405000000843,1.3820000000000001,827.1152843,,,,,564,18,Woman,Right,
,,,,,,,,,,,,,,,,,564,18,Woman,Right,0,69,0.15,2,0,180,0,0.6051271000001179,['n'],0.9898450999999113,1.874,831.6485479,,,,,564,18,Woman,Right,
,,,,,,,,,,,,,,,,,564,18,Woman,Right,0,18,0.4,1,180,-,180,0.6633824999998978,['n'],0.9909393999998883,1.662,836.6152242000001,,,,,564,18,Woman,Right,
,,,,,,,,,,,,,,,,,564,18,Woman,Right,0,9,0.4,2,0,180,0,0.423397100000102,['n'],1.247477900000149,1.96,840.9319640000001,,,,,564,18,Woman,Right,
,,,,,,,,,,,,,,,,,564,18,Woman,Right,0,64,0.15,1,0,-,0,2.139397299999928,['n'],1.592281499999899,1.172,847.3986119000001,,,,,564,18,Woman,Right,
,,,,,,,,,,,,,,,,,564,18,Woman,Right,0,76,0.15,1,0,-,0,2.414763300000004,['n'],1.6573146999999153,1.282,854.1986069,,,,,564,18,Woman,Right,
,,,,,,,,,,,,,,,,,564,18,Woman,Right,0,20,0.4,1,0,-,0,0.8813059000001431,['y'],1.5860116999999718,1.3,859.6152124,,,,,564,18,Woman,Right,
,,,,,,,,,,,,,,,,,564,18,Woman,Right,0,50,0.15,1,180,-,0,1.3341304000000491,['y'],1.2503730999999334,1.6440000000000001,865.0819243000001,,,,,564,18,Woman,Right,
,,,,,,,,,,,,,,,,,564,18,Woman,Right,0,8,0.4,1,0,-,180,0.6279098999998496,['n'],2.123028599999998,1.058,870.7485588,,,,,564,18,Woman,Right,
,,,,,,,,,,,,,,,,,564,18,Woman,Right,0,27,0.4,2,180,0,0,0.478070500000058,['y'],0.9636917999998786,1.77,875.0319214000001,,,,,564,18,Woman,Right,
,,,,,,,,,,,,,,,,,564,18,Woman,Right,0,48,0.15,1,0,-,180,0.7608609999997498,['y'],1.3241699999998673,1.5979999999999999,880.6651823000002,,,,,564,18,Woman,Right,
,,,,,,,,,,,,,,,,,564,18,Woman,Right,0,35,0.4,2,180,0,0,1.093090299999858,['y'],0.9567194000001109,1.98,886.1650967999999,,,,,564,18,Woman,Right,
,,,,,,,,,,,,,,,,,564,18,Woman,Right,0,60,0.15,1,0,-,0,2.7148785999997926,['y'],0.5095608000001448,1.922,892.8484844999998,,,,,564,18,Woman,Right,
,,,,,,,,,,,,,,,,,564,18,Woman,Right,0,52,0.15,1,0,-,180,0.3557762000000366,['n'],1.4701807000001281,1.874,897.8651648999999,,,,,564,18,Woman,Right,
,,,,,,,,,,,,,,,,,564,18,Woman,Right,0,30,0.4,1,180,-,180,1.7209757000000536,['n'],1.1749956999997266,1.956,904.1983752000001,,,,,564,18,Woman,Right,
,,,,,,,,,,,,,,,,,564,18,Woman,Right,0,34,0.4,1,180,-,180,0.49624439999979586,['y'],1.0877049000000625,1.8639999999999999,908.6483582000001,,,,,564,18,Woman,Right,
,,,,,,,,,,,,,,,,,564,18,Woman,Right,0,28,0.4,1,0,-,0,0.44436510000014096,['n'],0.864138500000081,1.8719999999999999,913.4818266000002,,,,,564,18,Woman,Right,
,,,,,,,,,,,,,,,,,564,18,Woman,Right,0,56,0.15,1,0,-,0,0.4513950999998997,['n'],1.1528810999998313,1.5939999999999999,918.3984243,,,,,564,18,Woman,Right,
,,,,,,,,,,,,,,,,,564,18,Woman,Right,0,67,0.15,2,180,0,0,0.5667680999999902,['n'],0.9213291000000936,1.788,923.3317832000002,,,,,564,18,Woman,Right,
,,,,,,,,,,,,,,,,,564,18,Woman,Right,0,77,0.15,2,0,180,180,0.40566679999983535,['n'],0.8179627000004075,1.728,927.1317571999998,,,,,564,18,Woman,Right,
,,,,,,,,,,,,,,,,,564,18,Woman,Right,0,63,0.15,2,180,0,180,0.5477144000001317,['n'],1.7704733000000488,1.876,932.848293,,,,,564,18,Woman,Right,
,,,,,,,,,,,,,,,,,564,18,Woman,Right,0,10,0.4,1,180,-,180,0.5886270999999397,['y'],1.090940099999898,1.826,937.4650805000001,,,,,564,18,Woman,Right,
,,,,,,,,,,,,,,,,,564,18,Woman,Right,0,24,0.4,1,0,-,180,0.4891370000000279,['y'],1.2596588999999767,1.832,942.1150874,,,,,564,18,Woman,Right,
,,,,,,,,,,,,,,,,,564,18,Woman,Right,0,25,0.4,2,0,180,0,1.0848203999998987,['n'],1.259891499999867,1.828,947.1483581000002,,,,,564,18,Woman,Right,
,,,,,,,,,,,,,,,,,564,18,Woman,Right,0,43,0.4,2,180,0,0,0.9709680000000844,['y'],1.1164252000003216,2.0,952.1483501000002,,,,,564,18,Woman,Right,
,,,,,,,,,,,,,,,,,564,18,Woman,Right,0,12,0.4,1,0,-,0,0.9265657999999348,['n'],1.029601300000195,1.584,958.0650194999998,,,,,564,18,Woman,Right,
,,,,,,,,,,,,,,,,,564,18,Woman,Right,0,23,0.4,2,180,0,0,0.8605840000000171,['y'],0.9180150000001959,2.0,962.7984004,,,,,564,18,Woman,Right,
,,,,,,,,,,,,,,,,,564,18,Woman,Right,0,65,0.15,2,0,180,180,1.324286999999913,['y'],1.0710622000001422,1.572,968.1316609999999,,,,,564,18,Woman,Right,
,,,,,,,,,,,,,,,,,564,18,Woman,Right,0,7,1,2,180,0,0,0.6723666999996567,['y'],1.0875958000001447,2.0,972.7816652000001,,,,,564,18,Woman,Right,
,,,,,,,,,,,,,,,,,564,18,Woman,Right,0,37,0.4,2,0,180,180,0.39366789999985485,['y'],1.040076499999941,1.8639999999999999,978.1316253,,,,,564,18,Woman,Right,
,,,,,,,,,,,,,,,,,564,18,Woman,Right,1,33,0.4,2,0,180,0,1.3334611000000223,['n'],1.8704382999999325,1.704,1015.0982841,72.5,57.5,67.5,,564,18,Woman,Right,
,,,,,,,,,,,,,,,,,564,18,Woman,Right,1,4,1,1,0,-,0,0.43753979999974035,['n'],1.1413708000000042,1.98,1020.4982528999999,,,,,564,18,Woman,Right,
,,,,,,,,,,,,,,,,,564,18,Woman,Right,1,55,0.15,2,180,0,0,0.8671580000000176,['y'],0.8187299000001076,1.784,1025.3648942,,,,,564,18,Woman,Right,
,,,,,,,,,,,,,,,,,564,18,Woman,Right,1,36,0.4,1,0,-,0,0.24522269999988566,['n'],1.1344233999998323,1.8940000000000001,1029.6148729000001,,,,,564,18,Woman,Right,
,,,,,,,,,,,,,,,,,564,18,Woman,Right,1,48,0.15,1,0,-,180,0.40088490000016463,['y'],0.7506160000002637,1.93,1033.3649231,,,,,564,18,Woman,Right,
,,,,,,,,,,,,,,,,,564,18,Woman,Right,1,54,0.15,1,180,-,180,0.5438223000001017,['n'],1.0552852000000712,1.788,1037.7149218,,,,,564,18,Woman,Right,
,,,,,,,,,,,,,,,,,564,18,Woman,Right,1,61,0.15,2,0,180,0,0.5981808000001365,['n'],2.543978100000004,1.564,1044.0148248,,,,,564,18,Woman,Right,
,,,,,,,,,,,,,,,,,564,18,Woman,Right,1,5,1,2,0,180,180,0.34024989999988975,['y'],0.7522158000001582,2.0,1048.8648064,,,,,564,18,Woman,Right,
,,,,,,,,,,,,,,,,,564,18,Woman,Right,1,30,0.4,1,180,-,180,0.5262067999997271,['n'],2.360946899999817,2.0,1054.6314353000002,,,,,564,18,Woman,Right,
,,,,,,,,,,,,,,,,,564,18,Woman,Right,1,22,0.4,1,180,-,0,3.553066200000103,['y'],0.961995300000126,1.37,1061.981472,,,,,564,18,Woman,Right,
,,,,,,,,,,,,,,,,,564,18,Woman,Right,1,69,0.15,2,0,180,180,0.583477799999855,['y'],1.066816900000049,1.6,1066.3814305,,,,,564,18,Woman,Right,
,,,,,,,,,,,,,,,,,564,18,Woman,Right,1,52,0.15,1,0,-,0,0.6432936000001064,['n'],1.0995825999998488,1.6,1070.6481614,,,,,564,18,Woman,Right,
,,,,,,,,,,,,,,,,,564,18,Woman,Right,1,39,0.4,2,180,0,180,0.3448751999999331,['n'],1.2678521000002547,1.35,1075.0814404000002,,,,,564,18,Woman,Right,
,,,,,,,,,,,,,,,,,564,18,Woman,Right,1,62,0.15,1,180,-,0,2.3119030000002567,['y'],0.7248579000001882,1.82,1081.0314116,,,,,564,18,Woman,Right,
,,,,,,,,,,,,,,,,,564,18,Woman,Right,1,49,0.15,2,0,180,0,0.6065760999999839,['y'],0.8698894999997719,1.802,1085.2981374,,,,,564,18,Woman,Right,
,,,,,,,,,,,,,,,,,564,18,Woman,Right,1,67,0.15,2,180,0,0,0.6888171999999031,['y'],0.7576076999998804,1.806,1089.8646631000001,,,,,564,18,Woman,Right,
,,,,,,,,,,,,,,,,,564,18,Woman,Right,1,6,1,1,180,-,180,0.38311509999994087,['n'],1.4459348999998838,1.728,1094.4981128,,,,,564,18,Woman,Right,
,,,,,,,,,,,,,,,,,564,18,Woman,Right,1,45,0.15,2,0,180,0,0.3832465000000411,['n'],0.9827712999999676,1.6680000000000001,1098.4646309999998,,,,,564,18,Woman,Right,
,,,,,,,,,,,,,,,,,564,18,Woman,Right,1,12,0.4,1,0,-,180,0.5555930999998964,['y'],1.1432214000001295,1.572,1103.0980527000002,,,,,564,18,Woman,Right,
,,,,,,,,,,,,,,,,,564,18,Woman,Right,1,57,0.15,2,0,180,0,0.5021068999999443,['n'],0.9198943999999756,1.5779999999999998,1107.1313764000001,,,,,564,18,Woman,Right,
,,,,,,,,,,,,,,,,,564,18,Woman,Right,1,56,0.15,1,0,-,0,1.871494900000016,['y'],0.7525226000002476,1.078,1114.1480218000002,,,,,564,18,Woman,Right,
,,,,,,,,,,,,,,,,,564,18,Woman,Right,1,65,0.15,2,0,180,0,0.4225666000002093,['n'],2.0176532999998926,1.3780000000000001,1119.7813741999998,,,,,564,18,Woman,Right,
,,,,,,,,,,,,,,,,,564,18,Woman,Right,1,76,0.15,1,0,-,0,0.7565750999997363,['y'],1.6583310999999412,1.3780000000000001,1124.6146580999998,,,,,564,18,Woman,Right,
,,,,,,,,,,,,,,,,,564,18,Woman,Right,1,32,0.4,1,0,-,0,0.6705425000000105,['n'],2.4348981999996795,1.686,1130.5312678999999,,,,,564,18,Woman,Right,
,,,,,,,,,,,,,,,,,564,18,Woman,Right,1,17,0.4,2,0,180,0,0.5994344999999157,['y'],0.9953422000003229,1.634,1134.6313381,,,,,564,18,Woman,Right,
,,,,,,,,,,,,,,,,,564,18,Woman,Right,1,35,0.4,2,180,0,0,1.4823904999998376,['y'],0.5477860000000874,1.62,1141.2312674,,,,,564,18,Woman,Right,
,,,,,,,,,,,,,,,,,564,18,Woman,Right,1,2,1,1,180,-,180,0.35616680000021006,['n'],0.7803367999999864,1.836,1145.1145861999998,,,,,564,18,Woman,Right,
,,,,,,,,,,,,,,,,,564,18,Woman,Right,1,34,0.4,1,180,-,0,0.5395275000000765,['y'],0.9651085000000421,1.666,1149.5646772,,,,,564,18,Woman,Right,
,,,,,,,,,,,,,,,,,564,18,Woman,Right,1,66,0.15,1,180,-,180,0.36637070000006133,['n'],1.1254963999999745,1.624,1154.0812989,,,,,564,18,Woman,Right,
,,,,,,,,,,,,,,,,,564,18,Woman,Right,1,13,0.4,2,0,180,0,0.5646963999997752,['y'],0.630147500000021,1.302,1157.9646174999998,,,,,564,18,Woman,Right,
,,,,,,,,,,,,,,,,,564,18,Woman,Right,1,50,0.15,1,180,-,180,0.3721583000001374,['n'],0.6230639000000338,1.624,1161.5145499999999,,,,,564,18,Woman,Right,
,,,,,,,,,,,,,,,,,564,18,Woman,Right,1,42,0.4,1,180,-,0,1.2799709999999322,['y'],1.1513198000002376,1.3780000000000001,1166.3312508,,,,,564,18,Woman,Right,
,,,,,,,,,,,,,,,,,564,18,Woman,Right,1,77,0.15,2,0,180,0,0.6610372000000098,['n'],0.9917500999999902,1.6219999999999999,1171.1645376000001,,,,,564,18,Woman,Right,
,,,,,,,,,,,,,,,,,564,18,Woman,Right,1,75,0.15,2,180,0,0,0.5585711000003357,['y'],2.769050800000059,1.282,1177.3812275999999,,,,,564,18,Woman,Right,
,,,,,,,,,,,,,,,,,564,18,Woman,Right,1,58,0.15,1,180,-,180,1.5995294999997896,['y'],2.393430399999943,1.33,1184.2144592999998,,,,,564,18,Woman,Right,
,,,,,,,,,,,,,,,,,564,18,Woman,Right,1,24,0.4,1,0,-,0,0.3650729000000865,['n'],1.0817811000001711,1.784,1188.8811894,,,,,564,18,Woman,Right,
,,,,,,,,,,,,,,,,,564,18,Woman,Right,1,31,0.4,2,180,0,0,0.4676697999998396,['y'],0.8423703999997088,1.884,1193.5144509000002,,,,,564,18,Woman,Right,
,,,,,,,,,,,,,,,,,564,18,Woman,Right,1,26,0.4,1,180,-,180,0.37836120000019946,['n'],0.9309681999998247,1.734,1198.1978491999998,,,,,564,18,Woman,Right,
,,,,,,,,,,,,,,,,,564,18,Woman,Right,1,21,0.4,2,0,180,180,0.5227475000001505,['y'],1.3716835000000174,1.984,1202.7811895999998,,,,,564,18,Woman,Right,
,,,,,,,,,,,,,,,,,564,18,Woman,Right,1,53,0.15,2,0,180,180,0.6294724999997925,['n'],0.860383499999898,1.93,1207.0312036999999,,,,,564,18,Woman,Right,
,,,,,,,,,,,,,,,,,564,18,Woman,Right,1,37,0.4,2,0,180,180,0.3677926000000298,['y'],0.9884865000003629,2.0,1211.1644741,,,,,564,18,Woman,Right,
,,,,,,,,,,,,,,,,,564,18,Woman,Right,1,20,0.4,1,0,-,180,0.7198275999999169,['y'],1.0299878000000717,1.6520000000000001,1216.3311229,,,,,564,18,Woman,Right,
,,,,,,,,,,,,,,,,,564,18,Woman,Right,1,44,0.15,1,0,-,0,3.657988799999657,['n'],1.6144565999998122,1.3820000000000001,1225.5310387999998,,,,,564,18,Woman,Right,
,,,,,,,,,,,,,,,,,564,18,Woman,Right,1,46,0.15,1,180,-,0,0.7056167000000642,['n'],1.3594536000000517,1.096,1230.464434,,,,,564,18,Woman,Right,
,,,,,,,,,,,,,,,,,564,18,Woman,Right,1,43,0.4,2,180,0,0,0.5314180999998825,['y'],0.9037579000000733,2.0,1234.9144671,,,,,564,18,Woman,Right,
,,,,,,,,,,,,,,,,,564,18,Woman,Right,1,0,1,1,0,-,0,0.5034814999999071,['n'],1.088406599999871,1.996,1239.8977549,,,,,564,18,Woman,Right,
,,,,,,,,,,,,,,,,,564,18,Woman,Right,1,9,0.4,2,0,180,180,0.27343599999994694,['y'],1.288626000000022,1.666,1244.9810759000002,,,,,564,18,Woman,Right,
,,,,,,,,,,,,,,,,,564,18,Woman,Right,1,7,1,2,180,0,0,0.4196838000002572,['y'],1.6894924999996874,1.98,1250.5147006000002,,,,,564,18,Woman,Right,
,,,,,,,,,,,,,,,,,564,18,Woman,Right,1,74,0.15,1,180,-,180,0.5763223000003563,['n'],0.9620758999999452,1.928,1255.7643558,,,,,564,18,Woman,Right,
,,,,,,,,,,,,,,,,,564,18,Woman,Right,1,3,1,2,180,0,0,0.33187739999993937,['y'],1.5467352999999093,1.984,1261.3977287000002,,,,,564,18,Woman,Right,
,,,,,,,,,,,,,,,,,564,18,Woman,Right,1,1,1,2,0,180,180,0.2254456000000573,['y'],0.8429777000001195,2.0,1266.0977454,,,,,564,18,Woman,Right,
,,,,,,,,,,,,,,,,,564,18,Woman,Right,1,47,0.15,2,180,0,0,0.5261021000001165,['y'],0.9245381999999154,2.0,1270.6479386,,,,,564,18,Woman,Right,
,,,,,,,,,,,,,,,,,564,18,Woman,Right,1,11,0.4,2,180,0,0,0.4155980999998974,['y'],0.996730700000171,2.0,1276.1977029999998,,,,,564,18,Woman,Right,
,,,,,,,,,,,,,,,,,564,18,Woman,Right,1,78,0.15,1,180,-,180,0.4919503999999506,['n'],1.8452360000001136,2.0,1282.0976554,,,,,564,18,Woman,Right,
,,,,,,,,,,,,,,,,,564,18,Woman,Right,1,29,0.4,2,0,180,180,1.1501643000001422,['y'],0.908983199999966,2.0,1287.3142283000002,,,,,564,18,Woman,Right,
,,,,,,,,,,,,,,,,,564,18,Woman,Right,1,72,0.15,1,0,-,0,1.2263143000000127,['n'],0.9188140999999632,1.566,1293.0476250000002,,,,,564,18,Woman,Right,
,,,,,,,,,,,,,,,,,564,18,Woman,Right,1,18,0.4,1,180,-,180,0.5283518999999615,['n'],0.8235334000000876,1.566,1297.6476295000002,,,,,564,18,Woman,Right,
,,,,,,,,,,,,,,,,,564,18,Woman,Right,1,10,0.4,1,180,-,180,0.8021534999998039,['n'],0.8720330999999533,1.808,1303.014319,,,,,564,18,Woman,Right,
,,,,,,,,,,,,,,,,,564,18,Woman,Right,1,70,0.15,1,180,-,180,1.2542896999998447,['n'],1.7927542000002177,1.828,1309.9975857,,,,,564,18,Woman,Right,
,,,,,,,,,,,,,,,,,564,18,Woman,Right,1,73,0.15,2,0,180,180,1.1031872000003204,['n'],1.1774535000004107,1.758,1316.0141973999998,,,,,564,18,Woman,Right,
,,,,,,,,,,,,,,,,,564,18,Woman,Right,1,63,0.15,2,180,0,0,1.6724291000000449,['y'],0.8104259000001548,1.918,1322.1309282000002,,,,,564,18,Woman,Right,
,,,,,,,,,,,,,,,,,564,18,Woman,Right,1,41,0.4,2,0,180,180,0.30042699999967226,['y'],1.3610308000002078,1.938,1327.0642593000002,,,,,564,18,Woman,Right,
,,,,,,,,,,,,,,,,,564,18,Woman,Right,1,8,0.4,1,0,-,0,1.3038688000001457,['y'],0.9073786999997537,1.756,1333.0642195,,,,,564,18,Woman,Right,
,,,,,,,,,,,,,,,,,564,18,Woman,Right,1,64,0.15,1,0,-,180,1.9943261999997048,['y'],0.8833059000003232,1.666,1340.2312117000001,,,,,564,18,Woman,Right,
,,,,,,,,,,,,,,,,,564,18,Woman,Right,1,38,0.4,1,180,-,0,0.8501814999999624,['n'],2.12549510000008,1.666,1346.3808606000002,,,,,564,18,Woman,Right,
,,,,,,,,,,,,,,,,,564,18,Woman,Right,1,14,0.4,1,180,-,180,0.6040775999999823,['n'],0.9977647999999135,1.6600000000000001,1351.6641788000002,,,,,564,18,Woman,Right,
,,,,,,,,,,,,,,,,,564,18,Woman,Right,1,27,0.4,2,180,0,0,0.8090476000002127,['y'],1.0945729999998548,1.924,1356.8641481999998,,,,,564,18,Woman,Right,
,,,,,,,,,,,,,,,,,564,18,Woman,Right,1,59,0.15,2,180,0,0,1.233172199999899,['y'],0.7272453999999016,2.0,1362.7974751000002,,,,,564,18,Woman,Right,
,,,,,,,,,,,,,,,,,564,18,Woman,Right,1,40,0.4,1,0,-,0,0.7726372000001902,['n'],1.0480437999999594,1.626,1368.4141739000002,,,,,564,18,Woman,Right,
,,,,,,,,,,,,,,,,,564,18,Woman,Right,1,28,0.4,1,0,-,0,0.3926178000001528,['n'],0.9124671000004128,1.666,1373.1808067000002,,,,,564,18,Woman,Right,
,,,,,,,,,,,,,,,,,564,18,Woman,Right,1,68,0.15,1,0,-,0,0.3997354000002815,['n'],0.8334786999998869,1.642,1378.0808633000001,,,,,564,18,Woman,Right,
,,,,,,,,,,,,,,,,,564,18,Woman,Right,1,23,0.4,2,180,0,0,0.8366642999999385,['y'],1.041762800000015,1.888,1383.7474782,,,,,564,18,Woman,Right,
,,,,,,,,,,,,,,,,,564,18,Woman,Right,1,51,0.15,2,180,0,180,0.7925730999995722,['y'],1.5384214000000611,1.164,1390.2806455999998,,,,,564,18,Woman,Right,
,,,,,,,,,,,,,,,,,564,18,Woman,Right,1,71,0.15,2,180,0,0,0.42046950000030847,['n'],0.9234484999997221,1.6219999999999999,1395.6473541,,,,,564,18,Woman,Right,
,,,,,,,,,,,,,,,,,564,18,Woman,Right,1,19,0.4,2,180,0,0,0.6072189999999864,['y'],0.7479788000000553,2.0,1401.2307460000002,,,,,564,18,Woman,Right,
,,,,,,,,,,,,,,,,,564,18,Woman,Right,1,60,0.15,1,0,-,0,1.1503684000003886,['n'],0.7769546999998056,1.26,1407.0807387,,,,,564,18,Woman,Right,
,,,,,,,,,,,,,,,,,564,18,Woman,Right,1,25,0.4,2,0,180,180,1.9761161999999786,['y'],1.085708899999645,1.974,1414.0473825,,,,,564,18,Woman,Right,
,,,,,,,,,,,,,,,,,564,18,Woman,Right,1,79,0.15,2,180,0,180,0.9328851000000213,['y'],1.2622060999997302,1.772,1420.0307785,,,,,564,18,Woman,Right,
,,,,,,,,,,,,,,,,,564,18,Woman,Right,1,16,0.4,1,0,-,180,0.9695319999996173,['n'],1.150823699999819,1.638,1426.1808096,,,,,564,18,Woman,Right,
,,,,,,,,,,,,,,,,,564,18,Woman,Right,1,15,0.4,2,180,0,0,0.545505100000355,['y'],1.0715193000000909,2.0,1431.5306464999999,,,,,564,18,Woman,Right,
,,,,,,,,,,,,,,,,,564,18,Woman,Right,2,46,0.15,1,180,-,0,7.866500000000087,['n'],1.245719200000167,1.068,1448.1139816999998,71.25,70.0,75.0,,564,18,Woman,Right,
,,,,,,,,,,,,,,,,,564,18,Woman,Right,2,65,0.15,2,0,180,180,1.1308705000001282,['n'],1.842421099999683,1.5819999999999999,1454.680624,,,,,564,18,Woman,Right,
,,,,,,,,,,,,,,,,,564,18,Woman,Right,2,5,1,2,0,180,180,0.43641470000011395,['y'],0.7871705000002294,2.0,1459.8639223,,,,,564,18,Woman,Right,
,,,,,,,,,,,,,,,,,564,18,Woman,Right,2,29,0.4,2,0,180,180,0.7437549000001127,['y'],0.7074821999999585,1.716,1465.5806093,,,,,564,18,Woman,Right,
,,,,,,,,,,,,,,,,,564,18,Woman,Right,2,43,0.4,2,180,0,0,0.3552380000000994,['y'],0.9487463000000389,2.0,1471.4473128999998,,,,,564,18,Woman,Right,
,,,,,,,,,,,,,,,,,564,18,Woman,Right,2,25,0.4,2,0,180,180,0.4909562999996524,['n'],0.9653094000000237,1.42,1476.4472735,,,,,564,18,Woman,Right,
,,,,,,,,,,,,,,,,,564,18,Woman,Right,2,45,0.15,2,0,180,0,0.6875076999999692,['y'],1.0058257999999114,1.71,1481.5639434999998,,,,,564,18,Woman,Right,
,,,,,,,,,,,,,,,,,564,18,Woman,Right,2,28,0.4,1,0,-,0,0.6693456000002698,['n'],0.7505928000000495,1.726,1485.9139182,,,,,564,18,Woman,Right,
,,,,,,,,,,,,,,,,,564,18,Woman,Right,2,72,0.15,1,0,-,0,0.5113381000001027,['n'],1.2552672000001621,1.412,1491.7639955,,,,,564,18,Woman,Right,
,,,,,,,,,,,,,,,,,564,18,Woman,Right,2,51,0.15,2,180,0,180,0.784056899999996,['n'],1.1118515000002844,1.812,1497.2303961000002,,,,,564,18,Woman,Right,
,,,,,,,,,,,,,,,,,564,18,Woman,Right,2,57,0.15,2,0,180,180,0.40191649999997026,['n'],1.0804023999999117,1.784,1502.8471852000002,,,,,564,18,Woman,Right,
,,,,,,,,,,,,,,,,,564,18,Woman,Right,2,9,0.4,2,0,180,180,1.4026434999996127,['y'],1.5695540000001529,1.924,1509.3971977,,,,,564,18,Woman,Right,
,,,,,,,,,,,,,,,,,564,18,Woman,Right,2,55,0.15,2,180,0,180,0.6454008000000613,['n'],0.8899962999998934,1.96,1513.8471157,,,,,564,18,Woman,Right,
,,,,,,,,,,,,,,,,,564,18,Woman,Right,2,0,1,1,0,-,0,0.46516090000022814,['n'],0.7465526000000864,1.97,1518.6639389000002,,,,,564,18,Woman,Right,
,,,,,,,,,,,,,,,,,564,18,Woman,Right,2,16,0.4,1,0,-,0,0.750516399999924,['n'],0.8111518000000615,1.97,1523.8803936,,,,,564,18,Woman,Right,
,,,,,,,,,,,,,,,,,564,18,Woman,Right,2,33,0.4,2,0,180,180,0.5327735999999277,['y'],0.7663342999999259,1.97,1528.1637529,,,,,564,18,Woman,Right,
,,,,,,,,,,,,,,,,,564,18,Woman,Right,2,79,0.15,2,180,0,180,0.5198846000002959,['n'],0.9322607999997672,1.97,1532.4137823,,,,,564,18,Woman,Right,
,,,,,,,,,,,,,,,,,564,18,Woman,Right,2,2,1,1,180,-,180,1.1220186000000467,['n'],0.7329062000003432,1.978,1537.2638236000003,,,,,564,18,Woman,Right,
,,,,,,,,,,,,,,,,,564,18,Woman,Right,2,34,0.4,1,180,-,0,1.2468321999999716,['y'],1.1094779000000017,1.266,1543.8470948,,,,,564,18,Woman,Right,
,,,,,,,,,,,,,,,,,564,18,Woman,Right,2,75,0.15,2,180,0,180,2.4862622000000556,['n'],2.1425719000003483,1.366,1552.3137562000002,,,,,564,18,Woman,Right,
,,,,,,,,,,,,,,,,,564,18,Woman,Right,2,59,0.15,2,180,0,180,2.2383019999997487,['y'],0.743377799999962,1.76,1558.7471087,,,,,564,18,Woman,Right,
,,,,,,,,,,,,,,,,,564,18,Woman,Right,2,8,0.4,1,0,-,0,0.6922295999997914,['n'],0.9440372999997635,1.688,1564.1471660000002,,,,,564,18,Woman,Right,
,,,,,,,,,,,,,,,,,564,18,Woman,Right,2,58,0.15,1,180,-,180,0.5839773999996396,['y'],0.6788126999999804,1.688,1568.3470581000001,,,,,564,18,Woman,Right,
,,,,,,,,,,,,,,,,,564,18,Woman,Right,2,67,0.15,2,180,0,0,1.4254595999996127,['n'],0.8332651999999143,1.688,1573.6303910000001,,,,,564,18,Woman,Right,
,,,,,,,,,,,,,,,,,564,18,Woman,Right,2,15,0.4,2,180,0,0,0.9314135999998143,['y'],0.7537817000002178,2.0,1578.7137374,,,,,564,18,Woman,Right,
,,,,,,,,,,,,,,,,,564,18,Woman,Right,2,42,0.4,1,180,-,180,0.3810187999997652,['y'],1.458403399999952,2.0,1584.4137212,,,,,564,18,Woman,Right,
,,,,,,,,,,,,,,,,,564,18,Woman,Right,2,3,1,2,180,0,0,0.35355600000002596,['y'],0.9071939000000384,2.0,1589.8470063999998,,,,,564,18,Woman,Right,
,,,,,,,,,,,,,,,,,564,18,Woman,Right,2,44,0.15,1,0,-,180,0.846869400000287,['y'],1.0761708999998518,1.43,1595.5137289,,,,,564,18,Woman,Right,
,,,,,,,,,,,,,,,,,564,18,Woman,Right,2,77,0.15,2,0,180,180,0.4550894999997581,['y'],0.9321553999998287,1.948,1600.5803569999998,,,,,564,18,Woman,Right,
,,,,,,,,,,,,,,,,,564,18,Woman,Right,2,18,0.4,1,180,-,180,1.2435739999996258,['n'],1.461267399999997,1.426,1607.0138613,,,,,564,18,Woman,Right,
,,,,,,,,,,,,,,,,,564,18,Woman,Right,2,6,1,1,180,-,180,0.5237524999997731,['n'],0.8059023999999226,1.732,1611.9136600000002,,,,,564,18,Woman,Right,
,,,,,,,,,,,,,,,,,564,18,Woman,Right,2,36,0.4,1,0,-,0,0.5257936000002701,['y'],0.7822885000000497,1.3679999999999999,1616.8802142,,,,,564,18,Woman,Right,
,,,,,,,,,,,,,,,,,564,18,Woman,Right,2,56,0.15,1,0,-,0,1.086911500000042,['n'],0.7192377000001215,1.698,1622.1303713000002,,,,,564,18,Woman,Right,
,,,,,,,,,,,,,,,,,564,18,Woman,Right,2,64,0.15,1,0,-,180,0.307652699999835,['n'],1.1356996999998046,1.704,1628.1302308,,,,,564,18,Woman,Right,
,,,,,,,,,,,,,,,,,564,18,Woman,Right,2,53,0.15,2,0,180,180,0.35010390000024927,['n'],0.8482718999998724,1.67,1632.8469691,,,,,564,18,Woman,Right,
,,,,,,,,,,,,,,,,,564,18,Woman,Right,2,50,0.15,1,180,-,0,0.4147609999999986,['y'],0.7771093999999721,1.3479999999999999,1637.8469246,,,,,564,18,Woman,Right,
,,,,,,,,,,,,,,,,,564,18,Woman,Right,2,61,0.15,2,0,180,0,0.356154499999775,['y'],0.7771026999998867,1.09,1643.6136191,,,,,564,18,Woman,Right,
,,,,,,,,,,,,,,,,,564,18,Woman,Right,2,35,0.4,2,180,0,0,0.783462899999904,['y'],0.802505999999994,1.99,1649.8636270000002,,,,,564,18,Woman,Right,
,,,,,,,,,,,,,,,,,564,18,Woman,Right,2,12,0.4,1,0,-,0,0.6492729000001418,['n'],0.7309692999997424,1.566,1654.9969148999999,,,,,564,18,Woman,Right,
,,,,,,,,,,,,,,,,,564,18,Woman,Right,2,60,0.15,1,0,-,180,1.1237862000002679,['y'],1.155823699999928,1.214,1660.7968306000002,,,,,564,18,Woman,Right,
,,,,,,,,,,,,,,,,,564,18,Woman,Right,2,41,0.4,2,0,180,180,0.5216718000001492,['y'],2.084627300000193,2.0,1667.9302011,,,,,564,18,Woman,Right,
,,,,,,,,,,,,,,,,,564,18,Woman,Right,2,22,0.4,1,180,-,180,0.42335830000001806,['n'],2.5814930999999888,1.862,1675.5968010000001,,,,,564,18,Woman,Right,
,,,,,,,,,,,,,,,,,564,18,Woman,Right,2,23,0.4,2,180,0,0,0.47703150000006644,['y'],0.7822116000002097,1.956,1679.5968569000001,,,,,564,18,Woman,Right,
,,,,,,,,,,,,,,,,,564,18,Woman,Right,2,74,0.15,1,180,-,180,0.3256032999997842,['n'],0.9267667999997684,1.8,1683.7634751,,,,,564,18,Woman,Right,
,,,,,,,,,,,,,,,,,564,18,Woman,Right,2,14,0.4,1,180,-,180,0.3836887000002207,['n'],0.8487884000001031,1.98,1687.7468675999999,,,,,564,18,Woman,Right,
,,,,,,,,,,,,,,,,,564,18,Woman,Right,2,38,0.4,1,180,-,180,0.20111439999982395,['n'],0.8314896000001681,1.994,1691.5801538,,,,,564,18,Woman,Right,
,,,,,,,,,,,,,,,,,564,18,Woman,Right,2,54,0.15,1,180,-,0,0.5469686999999794,['n'],0.7923427000000629,1.996,1695.1967925,,,,,564,18,Woman,Right,
,,,,,,,,,,,,,,,,,564,18,Woman,Right,2,4,1,1,0,-,0,0.6543935999998212,['n'],0.8248364999999467,1.99,1699.4301636999999,,,,,564,18,Woman,Right,
,,,,,,,,,,,,,,,,,564,18,Woman,Right,2,47,0.15,2,180,0,0,0.9711863000002268,['y'],1.0250239000001784,1.6139999999999999,1704.3301422999998,,,,,564,18,Woman,Right,
,,,,,,,,,,,,,,,,,564,18,Woman,Right,2,20,0.4,1,0,-,0,0.5951288000001114,['n'],0.9215711000001647,1.8820000000000001,1708.3634178000002,,,,,564,18,Woman,Right,
,,,,,,,,,,,,,,,,,564,18,Woman,Right,2,21,0.4,2,0,180,180,0.6264329999999063,['y'],0.8023892999999589,1.97,1712.4469401000001,,,,,564,18,Woman,Right,
,,,,,,,,,,,,,,,,,564,18,Woman,Right,2,48,0.15,1,0,-,0,0.32380239999974947,['n'],1.5228664999999637,1.8900000000000001,1717.046855,,,,,564,18,Woman,Right,
,,,,,,,,,,,,,,,,,564,18,Woman,Right,2,10,0.4,1,180,-,180,0.26615499999979875,['n'],1.6672131000000263,1.892,1721.9300084000001,,,,,564,18,Woman,Right,
,,,,,,,,,,,,,,,,,564,18,Woman,Right,2,30,0.4,1,180,-,180,0.22686780000003637,['n'],1.5001344999996036,1.884,1726.6800849,,,,,564,18,Woman,Right,
,,,,,,,,,,,,,,,,,564,18,Woman,Right,2,71,0.15,2,180,0,180,2.0325285000003532,['n'],1.9808208999997987,1.29,1733.6633696,,,,,564,18,Woman,Right,
,,,,,,,,,,,,,,,,,564,18,Woman,Right,2,27,0.4,2,180,0,0,0.5795361999998931,['n'],0.7094164000000092,1.8479999999999999,1737.8966361000003,,,,,564,18,Woman,Right,
,,,,,,,,,,,,,,,,,564,18,Woman,Right,2,66,0.15,1,180,-,180,0.32400159999997413,['y'],3.277947900000072,1.612,1744.6134293999999,,,,,564,18,Woman,Right,
,,,,,,,,,,,,,,,,,564,18,Woman,Right,2,11,0.4,2,180,0,0,0.36871419999988575,['y'],0.7185483000002932,2.0,1748.3966876,,,,,564,18,Woman,Right,
,,,,,,,,,,,,,,,,,564,18,Woman,Right,2,63,0.15,2,180,0,180,0.36004289999982575,['n'],0.7190249000000222,1.308,1752.0967191999998,,,,,564,18,Woman,Right,
,,,,,,,,,,,,,,,,,564,18,Woman,Right,2,40,0.4,1,0,-,180,0.7666834999999992,['y'],1.4398479999999836,1.816,1756.8466883,,,,,564,18,Woman,Right,
,,,,,,,,,,,,,,,,,564,18,Woman,Right,2,26,0.4,1,180,-,0,0.920574900000247,['y'],0.7683596000001671,1.816,1761.0966036,,,,,564,18,Woman,Right,
,,,,,,,,,,,,,,,,,564,18,Woman,Right,2,32,0.4,1,0,-,0,0.5108847000001333,['y'],0.9285341999998309,1.31,1765.4299689,,,,,564,18,Woman,Right,
,,,,,,,,,,,,,,,,,564,18,Woman,Right,2,52,0.15,1,0,-,180,0.8020149000003585,['y'],0.7772135000000162,1.192,1769.7633153000002,,,,,564,18,Woman,Right,
,,,,,,,,,,,,,,,,,564,18,Woman,Right,2,31,0.4,2,180,0,0,0.4582055999999284,['y'],1.0900109999997767,1.798,1774.5632945000002,,,,,564,18,Woman,Right,
,,,,,,,,,,,,,,,,,564,18,Woman,Right,2,39,0.4,2,180,0,0,0.6850607999999738,['y'],0.54601300000013,1.9,1779.5637013,,,,,564,18,Woman,Right,
,,,,,,,,,,,,,,,,,564,18,Woman,Right,2,62,0.15,1,180,-,0,0.487190499999997,['n'],0.6191325999998298,1.376,1783.7799501,,,,,564,18,Woman,Right,
,,,,,,,,,,,,,,,,,564,18,Woman,Right,2,78,0.15,1,180,-,180,0.5447871000001214,['y'],0.587363600000117,1.74,1787.4965869000002,,,,,564,18,Woman,Right,
,,,,,,,,,,,,,,,,,564,18,Woman,Right,2,19,0.4,2,180,0,0,0.35267000000021653,['y'],0.507632399999693,1.918,1790.9633155000001,,,,,564,18,Woman,Right,
,,,,,,,,,,,,,,,,,564,18,Woman,Right,2,73,0.15,2,0,180,180,0.7943785000002208,['n'],0.6684924999999566,1.52,1795.1633606999999,,,,,564,18,Woman,Right,
,,,,,,,,,,,,,,,,,564,18,Woman,Right,2,37,0.4,2,0,180,0,1.0284924999996292,['y'],0.7009452000002057,1.8519999999999999,1799.6798595999999,,,,,564,18,Woman,Right,
,,,,,,,,,,,,,,,,,564,18,Woman,Right,2,13,0.4,2,0,180,180,0.43261800000027506,['y'],1.1335758999998689,1.986,1804.0132589999998,,,,,564,18,Woman,Right,
,,,,,,,,,,,,,,,,,564,18,Woman,Right,2,76,0.15,1,0,-,0,5.058766500000274,['n'],0.4701519999998709,1.178,1812.9465530000002,,,,,564,18,Woman,Right,
,,,,,,,,,,,,,,,,,564,18,Woman,Right,2,24,0.4,1,0,-,180,0.4164872999999716,['y'],1.1191828000000896,1.626,1817.3633333000002,,,,,564,18,Woman,Right,
,,,,,,,,,,,,,,,,,564,18,Woman,Right,2,1,1,2,0,180,180,0.41025820000004387,['y'],0.7914937000000464,1.962,1821.4465369999998,,,,,564,18,Woman,Right,
,,,,,,,,,,,,,,,,,564,18,Woman,Right,2,17,0.4,2,0,180,180,0.3354906999998093,['y'],1.1999667000000045,1.994,1825.5799127999999,,,,,564,18,Woman,Right,
,,,,,,,,,,,,,,,,,564,18,Woman,Right,2,68,0.15,1,0,-,0,0.6870853999998872,['n'],0.9127902000000176,1.5819999999999999,1829.7799774999999,,,,,564,18,Woman,Right,
,,,,,,,,,,,,,,,,,564,18,Woman,Right,2,70,0.15,1,180,-,180,0.7167405000000144,['n'],1.3930903000000399,1.608,1834.5632181,,,,,564,18,Woman,Right,
,,,,,,,,,,,,,,,,,564,18,Woman,Right,2,69,0.15,2,0,180,0,2.3026042999999845,['y'],1.1381431999998313,1.6320000000000001,1840.4131731000002,,,,,564,18,Woman,Right,
,,,,,,,,,,,,,,,,,564,18,Woman,Right,2,49,0.15,2,0,180,0,2.5607724999999846,['n'],0.8906680000000051,1.592,1846.4464736,,,,,564,18,Woman,Right,
,,,,,,,,,,,,,,,,,564,18,Woman,Right,2,7,1,2,180,0,0,1.027697999999873,['y'],0.9787756999999147,2.0,1851.1465362,,,,,564,18,Woman,Right,
,,,,,,,,,,,,,,,,,564,18,Woman,Right,3,0,1,1,0,-,0,1.289097800000036,['n'],0.5963598000003003,1.994,1859.3964762,70.0,65.0,65.0,,564,18,Woman,Right,
,,,,,,,,,,,,,,,,,564,18,Woman,Right,3,21,0.4,2,0,180,180,0.43555800000012823,['y'],0.788673000000017,2.0,1863.2798094,,,,,564,18,Woman,Right,
,,,,,,,,,,,,,,,,,564,18,Woman,Right,3,13,0.4,2,0,180,180,0.24875610000026427,['y'],1.3491737000003923,2.0,1867.1797329,,,,,564,18,Woman,Right,
,,,,,,,,,,,,,,,,,564,18,Woman,Right,3,4,1,1,0,-,0,0.34141600000020844,['n'],2.606454400000075,2.0,1872.4133238,,,,,564,18,Woman,Right,
,,,,,,,,,,,,,,,,,564,18,Woman,Right,3,2,1,1,180,-,180,0.31545760000017253,['n'],1.2626882000004116,2.0,1876.4297984999998,,,,,564,18,Woman,Right,
,,,,,,,,,,,,,,,,,564,18,Woman,Right,3,29,0.4,2,0,180,180,1.0741094999998495,['y'],0.32679879999977857,2.0,1880.1630632000001,,,,,564,18,Woman,Right,
,,,,,,,,,,,,,,,,,564,18,Woman,Right,3,36,0.4,1,0,-,180,0.902286500000173,['n'],0.5592853000002833,2.0,1883.8797676,,,,,564,18,Woman,Right,
,,,,,,,,,,,,,,,,,564,18,Woman,Right,3,9,0.4,2,0,180,180,2.3332774000000427,['n'],2.8547967999998036,1.3319999999999999,1891.7464152000002,,,,,564,18,Woman,Right,
,,,,,,,,,,,,,,,,,564,18,Woman,Right,3,11,0.4,2,180,0,0,2.0569697000000815,['y'],0.48077599999987797,2.0,1897.0130841,,,,,564,18,Woman,Right,
,,,,,,,,,,,,,,,,,564,18,Woman,Right,3,39,0.4,2,180,0,0,1.2016184000003705,['y'],0.5613522000003286,2.0,1901.7797555000002,,,,,564,18,Woman,Right,
,,,,,,,,,,,,,,,,,564,18,Woman,Right,3,63,0.15,2,180,0,0,0.2751223000000209,['n'],0.6176956999997856,1.6480000000000001,1905.9630633000002,,,,,564,18,Woman,Right,
,,,,,,,,,,,,,,,,,564,18,Woman,Right,3,33,0.4,2,0,180,180,0.3800529000000097,['y'],0.6345843999997669,1.688,1909.4796950999998,,,,,564,18,Woman,Right,
,,,,,,,,,,,,,,,,,564,18,Woman,Right,3,67,0.15,2,180,0,180,0.6247299000001476,['n'],0.6668580999998994,1.384,1913.7963177000001,,,,,564,18,Woman,Right,
,,,,,,,,,,,,,,,,,564,18,Woman,Right,3,24,0.4,1,0,-,0,0.27710560000014084,['n'],0.5795727999998235,2.0,1917.0796759999998,,,,,564,18,Woman,Right,
,,,,,,,,,,,,,,,,,564,18,Woman,Right,3,62,0.15,1,180,-,0,1.2687412000000222,['n'],0.7800791999998182,1.8679999999999999,1921.8463351,,,,,564,18,Woman,Right,
,,,,,,,,,,,,,,,,,564,18,Woman,Right,3,65,0.15,2,0,180,0,0.8759721999999783,['n'],1.2446097000001828,1.936,1927.0631280000002,,,,,564,18,Woman,Right,
,,,,,,,,,,,,,,,,,564,18,Woman,Right,3,56,0.15,1,0,-,180,0.4575947000002998,['y'],0.6371042000000671,1.85,1930.7130723999999,,,,,564,18,Woman,Right,
,,,,,,,,,,,,,,,,,564,18,Woman,Right,3,48,0.15,1,0,-,0,0.5342273000001114,['n'],0.3495321000000331,1.858,1934.5297578999998,,,,,564,18,Woman,Right,
,,,,,,,,,,,,,,,,,564,18,Woman,Right,3,28,0.4,1,0,-,0,1.7105738000000201,['n'],0.23774139999977706,1.564,1939.246212,,,,,564,18,Woman,Right,
,,,,,,,,,,,,,,,,,564,18,Woman,Right,3,49,0.15,2,0,180,0,2.378441500000008,['n'],0.9267405999999028,1.558,1945.1796176000003,,,,,564,18,Woman,Right,
,,,,,,,,,,,,,,,,,564,18,Woman,Right,3,37,0.4,2,0,180,180,0.4002700000000914,['y'],1.1753394000002118,2.0,1949.5796011000002,,,,,564,18,Woman,Right,
,,,,,,,,,,,,,,,,,564,18,Woman,Right,3,58,0.15,1,180,-,0,1.2874606999998832,['n'],0.6799671999997372,1.612,1954.2130108000001,,,,,564,18,Woman,Right,
,,,,,,,,,,,,,,,,,564,18,Woman,Right,3,69,0.15,2,0,180,180,0.4698644999998578,['n'],1.1204298999996354,1.276,1958.3795727000002,,,,,564,18,Woman,Right,
,,,,,,,,,,,,,,,,,564,18,Woman,Right,3,18,0.4,1,180,-,180,0.1896121999998286,['n'],0.7607388999999785,1.966,1961.9629052999999,,,,,564,18,Woman,Right,
,,,,,,,,,,,,,,,,,564,18,Woman,Right,3,14,0.4,1,180,-,180,0.45222249999960695,['y'],2.5776458000000275,1.412,1967.9796167999998,,,,,564,18,Woman,Right,
,,,,,,,,,,,,,,,,,564,18,Woman,Right,3,15,0.4,2,180,0,0,0.5262630000001991,['y'],0.7540011999999479,2.0,1971.6796814,,,,,564,18,Woman,Right,
,,,,,,,,,,,,,,,,,564,18,Woman,Right,3,27,0.4,2,180,0,180,0.09567060000017591,['y'],1.2510662999998203,1.996,1975.4795665000001,,,,,564,18,Woman,Right,
,,,,,,,,,,,,,,,,,564,18,Woman,Right,3,78,0.15,1,180,-,180,2.633544900000288,['n'],0.33065860000033354,1.346,1981.7129656000002,,,,,564,18,Woman,Right,
,,,,,,,,,,,,,,,,,564,18,Woman,Right,3,20,0.4,1,0,-,180,1.7247612999999546,['y'],0.5076374000000214,1.6480000000000001,1987.1795689,,,,,564,18,Woman,Right,
,,,,,,,,,,,,,,,,,564,18,Woman,Right,3,10,0.4,1,180,-,180,0.18720499999972162,['n'],0.6522562000000107,1.724,1990.7295083,,,,,564,18,Woman,Right,
,,,,,,,,,,,,,,,,,564,18,Woman,Right,3,53,0.15,2,0,180,0,0.2169223000000784,['n'],1.2771842000001925,1.816,1994.4961266999999,,,,,564,18,Woman,Right,
,,,,,,,,,,,,,,,,,564,18,Woman,Right,3,8,0.4,1,0,-,0,1.0825331000000915,['y'],0.3015483999997741,1.798,1998.2795258,,,,,564,18,Woman,Right,
,,,,,,,,,,,,,,,,,564,18,Woman,Right,3,43,0.4,2,180,0,0,0.8005864000001566,['y'],0.2215621000000283,1.798,2001.6294257,,,,,564,18,Woman,Right,
,,,,,,,,,,,,,,,,,564,18,Woman,Right,3,17,0.4,2,0,180,180,0.9166093999997429,['n'],0.8070769999999357,1.798,2005.3461697000002,,,,,564,18,Woman,Right,
,,,,,,,,,,,,,,,,,564,18,Woman,Right,3,34,0.4,1,180,-,180,0.6409179000002041,['n'],1.1670027999998638,1.896,2009.6294898,,,,,564,18,Woman,Right,
,,,,,,,,,,,,,,,,,564,18,Woman,Right,3,5,1,2,0,180,180,1.7802448000002187,['y'],0.25503530000014507,1.986,2014.1961297000003,,,,,564,18,Woman,Right,
,,,,,,,,,,,,,,,,,564,18,Woman,Right,3,71,0.15,2,180,0,0,0.6670810000000529,['y'],0.6077166000000034,1.238,2018.0628573,,,,,564,18,Woman,Right,
,,,,,,,,,,,,,,,,,564,18,Woman,Right,3,75,0.15,2,180,0,0,2.5107505000000856,['n'],1.0006077000002733,1.318,2024.3961393999998,,,,,564,18,Woman,Right,
,,,,,,,,,,,,,,,,,564,18,Woman,Right,3,31,0.4,2,180,0,0,1.2824391000003743,['y'],0.2969868000000133,1.974,2028.8127977,,,,,564,18,Woman,Right,
,,,,,,,,,,,,,,,,,564,18,Woman,Right,3,64,0.15,1,0,-,0,0.3706603999999061,['n'],0.7613372999999228,1.588,2032.412792,,,,,564,18,Woman,Right,
,,,,,,,,,,,,,,,,,564,18,Woman,Right,3,51,0.15,2,180,0,180,1.835931999999957,['y'],1.018076999999721,1.716,2038.1127027000002,,,,,564,18,Woman,Right,
,,,,,,,,,,,,,,,,,564,18,Woman,Right,3,38,0.4,1,180,-,180,0.29585720000022775,['n'],0.634613900000204,1.972,2041.6293965999998,,,,,564,18,Woman,Right,
,,,,,,,,,,,,,,,,,564,18,Woman,Right,3,55,0.15,2,180,0,0,0.8021303000000444,['n'],1.939493400000174,1.75,2047.1294512,,,,,564,18,Woman,Right,
,,,,,,,,,,,,,,,,,564,18,Woman,Right,3,57,0.15,2,0,180,180,0.43273539999972854,['n'],1.531573099999605,1.72,2051.4127245,,,,,564,18,Woman,Right,
,,,,,,,,,,,,,,,,,564,18,Woman,Right,3,35,0.4,2,180,0,0,2.0066123999999945,['y'],0.23633450000033918,2.0,2056.1461122,,,,,564,18,Woman,Right,
,,,,,,,,,,,,,,,,,564,18,Woman,Right,3,40,0.4,1,0,-,0,0.39561830000002374,['n'],0.7169457999998485,1.926,2059.7127442,,,,,564,18,Woman,Right,
,,,,,,,,,,,,,,,,,564,18,Woman,Right,3,22,0.4,1,180,-,180,0.45589010000003327,['n'],1.0454736000001503,1.912,2063.7126487,,,,,564,18,Woman,Right,
,,,,,,,,,,,,,,,,,564,18,Woman,Right,3,50,0.15,1,180,-,180,1.8501713000000564,['n'],0.3251100000002225,1.912,2068.1294161,,,,,564,18,Woman,Right,
,,,,,,,,,,,,,,,,,564,18,Woman,Right,3,52,0.15,1,0,-,0,0.5008175999996638,['y'],0.8224471000003177,1.3599999999999999,2072.2459933,,,,,564,18,Woman,Right,
,,,,,,,,,,,,,,,,,564,18,Woman,Right,3,79,0.15,2,180,0,0,2.209651899999699,['n'],2.119540999999572,1.396,2078.8626768,,,,,564,18,Woman,Right,
,,,,,,,,,,,,,,,,,564,18,Woman,Right,3,12,0.4,1,0,-,0,0.4003091999998105,['n'],0.6480203999999503,2.0,2082.3793637,,,,,564,18,Woman,Right,
,,,,,,,,,,,,,,,,,564,18,Woman,Right,3,32,0.4,1,0,-,0,0.42078799999990224,['n'],0.5761477999999443,1.816,2085.8126915000003,,,,,564,18,Woman,Right,
,,,,,,,,,,,,,,,,,564,18,Woman,Right,3,7,1,2,180,0,0,1.5086488000001737,['y'],0.28852420000021084,1.982,2090.1125422,,,,,564,18,Woman,Right,
,,,,,,,,,,,,,,,,,564,18,Woman,Right,3,73,0.15,2,0,180,0,0.30322849999993196,['n'],0.5934440999999424,1.6,2093.4459799,,,,,564,18,Woman,Right,
,,,,,,,,,,,,,,,,,564,18,Woman,Right,3,44,0.15,1,0,-,180,0.4744792999999845,['n'],0.5375669000000016,1.5939999999999999,2096.9626561,,,,,564,18,Woman,Right,
,,,,,,,,,,,,,,,,,564,18,Woman,Right,3,30,0.4,1,180,-,0,0.7733017000000473,['n'],0.6978291000000354,1.758,2100.8459777,,,,,564,18,Woman,Right,
,,,,,,,,,,,,,,,,,564,18,Woman,Right,3,74,0.15,1,180,-,180,0.5305991999998696,['n'],0.690420400000221,1.22,2104.6959483,,,,,564,18,Woman,Right,
,,,,,,,,,,,,,,,,,564,18,Woman,Right,3,76,0.15,1,0,-,0,0.6972413999997116,['n'],0.818920000000162,1.726,2108.429283,,,,,564,18,Woman,Right,
,,,,,,,,,,,,,,,,,564,18,Woman,Right,3,6,1,1,180,-,0,0.6765973000001395,['n'],1.4274295000000166,1.782,2112.8792482,,,,,564,18,Woman,Right,
,,,,,,,,,,,,,,,,,564,18,Woman,Right,3,25,0.4,2,0,180,180,0.5451978999999483,['y'],0.8198677000000316,2.0,2116.7792945,,,,,564,18,Woman,Right,
,,,,,,,,,,,,,,,,,564,18,Woman,Right,3,72,0.15,1,0,-,0,0.4128360999998222,['n'],0.9965508999998747,1.828,2120.4959233,,,,,564,18,Woman,Right,
,,,,,,,,,,,,,,,,,564,18,Woman,Right,3,42,0.4,1,180,-,180,0.6505445999996482,['n'],1.5970275999998194,1.164,2125.5124817,,,,,564,18,Woman,Right,
,,,,,,,,,,,,,,,,,564,18,Woman,Right,3,66,0.15,1,180,-,0,0.5412031999999272,['n'],0.5174428000000262,1.604,2129.0792167,,,,,564,18,Woman,Right,
,,,,,,,,,,,,,,,,,564,18,Woman,Right,3,1,1,2,0,180,180,1.4566780999998628,['y'],0.2698037000000113,2.0,2133.2459146,,,,,564,18,Woman,Right,
,,,,,,,,,,,,,,,,,564,18,Woman,Right,3,41,0.4,2,0,180,180,1.131287500000326,['y'],0.2544014000000061,1.986,2137.1458118,,,,,564,18,Woman,Right,
,,,,,,,,,,,,,,,,,564,18,Woman,Right,3,77,0.15,2,0,180,180,1.5892796000002818,['y'],1.2630827000002682,1.506,2142.7125313,,,,,564,18,Woman,Right,
,,,,,,,,,,,,,,,,,564,18,Woman,Right,3,59,0.15,2,180,0,0,0.46926269999994474,['n'],0.6082359000001816,1.842,2146.6291949,,,,,564,18,Woman,Right,
,,,,,,,,,,,,,,,,,564,18,Woman,Right,3,54,0.15,1,180,-,0,0.20384240000021236,['n'],3.296362600000066,1.6680000000000001,2152.3959334,,,,,564,18,Woman,Right,
,,,,,,,,,,,,,,,,,564,18,Woman,Right,3,47,0.15,2,180,0,0,1.5646787000000586,['y'],0.18470669999987877,1.982,2156.5125044,,,,,564,18,Woman,Right,
,,,,,,,,,,,,,,,,,564,18,Woman,Right,3,60,0.15,1,0,-,0,0.17997950000017227,['n'],0.44078099999978804,1.996,2161.3124947,,,,,564,18,Woman,Right,
,,,,,,,,,,,,,,,,,564,18,Woman,Right,3,26,0.4,1,180,-,180,0.541950899999847,['n'],1.0666042000002562,1.946,2165.4291759000002,,,,,564,18,Woman,Right,
,,,,,,,,,,,,,,,,,564,18,Woman,Right,3,45,0.15,2,0,180,180,1.9170371999998679,['y'],0.6480734000001576,1.822,2170.5290714000002,,,,,564,18,Woman,Right,
,,,,,,,,,,,,,,,,,564,18,Woman,Right,3,23,0.4,2,180,0,0,0.5747314999998707,['y'],0.7389760999999453,2.0,2174.7124801,,,,,564,18,Woman,Right,
,,,,,,,,,,,,,,,,,564,18,Woman,Right,3,61,0.15,2,0,180,0,0.9493781000001036,['n'],1.1716450000003533,1.5899999999999999,2180.1291526,,,,,564,18,Woman,Right,
,,,,,,,,,,,,,,,,,564,18,Woman,Right,3,68,0.15,1,0,-,0,0.22520840000015596,['n'],1.8037398999999823,1.99,2184.6458108,,,,,564,18,Woman,Right,
,,,,,,,,,,,,,,,,,564,18,Woman,Right,3,16,0.4,1,0,-,180,0.5219149999998081,['n'],0.7728532999999516,1.964,2188.412519,,,,,564,18,Woman,Right,
,,,,,,,,,,,,,,,,,564,18,Woman,Right,3,19,0.4,2,180,0,0,1.6018689000002269,['y'],0.28525760000002265,1.99,2192.879063,,,,,564,18,Woman,Right,
,,,,,,,,,,,,,,,,,564,18,Woman,Right,3,70,0.15,1,180,-,180,0.35159109999995053,['n'],0.5576006999999663,1.766,2197.1124872,,,,,564,18,Woman,Right,
,,,,,,,,,,,,,,,,,564,18,Woman,Right,3,46,0.15,1,180,-,180,0.5000538999997843,['n'],1.0062118000000737,1.832,2200.8957731,,,,,564,18,Woman,Right,
,,,,,,,,,,,,,,,,,564,18,Woman,Right,3,3,1,2,180,0,0,0.6390211000002637,['y'],0.5184139000002688,2.0,2204.9624541,,,,,564,18,Woman,Right,
,,,,,,,,,,,,,,,,,564,18,Woman,Right,4,61,0.15,2,0,180,0,1.0664738999998917,['n'],1.4399498999996467,1.35,2215.0790202,76.25,87.5,62.5,,564,18,Woman,Right,
,,,,,,,,,,,,,,,,,564,18,Woman,Right,4,21,0.4,2,0,180,180,0.39887469999985115,['y'],1.8884330000000773,1.704,2220.1123820000003,,,,,564,18,Woman,Right,
,,,,,,,,,,,,,,,,,564,18,Woman,Right,4,33,0.4,2,0,180,180,0.5529080999999678,['y'],0.4168589000000793,2.0,2223.6790524,,,,,564,18,Woman,Right,
,,,,,,,,,,,,,,,,,564,18,Woman,Right,4,2,1,1,180,-,180,0.5368195000000924,['n'],0.657441999999719,1.3399999999999999,2227.6456838,,,,,564,18,Woman,Right,
,,,,,,,,,,,,,,,,,564,18,Woman,Right,4,51,0.15,2,180,0,0,0.8393479999999727,['n'],1.0902031999999053,1.6360000000000001,2232.0790251,,,,,564,18,Woman,Right,
,,,,,,,,,,,,,,,,,564,18,Woman,Right,4,13,0.4,2,0,180,180,1.0420622000001458,['y'],1.6988117999999304,1.862,2237.6290155,,,,,564,18,Woman,Right,
,,,,,,,,,,,,,,,,,564,18,Woman,Right,4,34,0.4,1,180,-,180,0.2616120000002411,['n'],0.9089254000000437,1.758,2259.0122661,,,,,564,18,Woman,Right,
,,,,,,,,,,,,,,,,,564,18,Woman,Right,4,67,0.15,2,180,0,0,0.14503250000007029,['n'],1.0376845999999205,1.838,2263.5789064,,,,,564,18,Woman,Right,
,,,,,,,,,,,,,,,,,564,18,Woman,Right,4,3,1,2,180,0,0,0.3047677000004114,['y'],0.7341888000000836,1.984,2268.1122052,,,,,564,18,Woman,Right,
,,,,,,,,,,,,,,,,,564,18,Woman,Right,4,9,0.4,2,0,180,180,0.5209982999999738,['y'],0.9348331999999573,2.0,2272.5289695,,,,,564,18,Woman,Right,
,,,,,,,,,,,,,,,,,564,18,Woman,Right,4,20,0.4,1,0,-,0,0.24480789999961416,['n'],0.49555430000009437,1.988,2275.5456194,,,,,564,18,Woman,Right,
,,,,,,,,,,,,,,,,,564,18,Woman,Right,4,63,0.15,2,180,0,0,0.6607286000003114,['y'],1.1034003999998276,1.6400000000000001,2279.645582,,,,,564,18,Woman,Right,
,,,,,,,,,,,,,,,,,564,18,Woman,Right,4,23,0.4,2,180,0,0,0.42551430000003165,['y'],0.3841015000002699,1.746,2283.0956337000002,,,,,564,18,Woman,Right,
,,,,,,,,,,,,,,,,,564,18,Woman,Right,4,52,0.15,1,0,-,0,0.6092470000003232,['n'],0.31271060000017314,1.734,2286.1622298,,,,,564,18,Woman,Right,
,,,,,,,,,,,,,,,,,564,18,Woman,Right,4,45,0.15,2,0,180,180,0.6049653000000035,['y'],0.6812138000000232,1.716,2289.9455006,,,,,564,18,Woman,Right,
,,,,,,,,,,,,,,,,,564,18,Woman,Right,4,69,0.15,2,0,180,180,0.6325053999999,['n'],1.2335186999998768,1.3559999999999999,2295.4122027,,,,,564,18,Woman,Right,
,,,,,,,,,,,,,,,,,564,18,Woman,Right,4,54,0.15,1,180,-,0,0.7307897999999113,['n'],0.21829329999991387,1.72,2298.7289077,,,,,564,18,Woman,Right,
,,,,,,,,,,,,,,,,,564,18,Woman,Right,4,76,0.15,1,0,-,180,0.3795387000000119,['y'],0.5946501000003082,1.738,2301.7121789000003,,,,,564,18,Woman,Right,
,,,,,,,,,,,,,,,,,564,18,Woman,Right,4,37,0.4,2,0,180,180,0.3839140000000043,['y'],1.0907091999997647,2.0,2306.1455531,,,,,564,18,Woman,Right,
,,,,,,,,,,,,,,,,,564,18,Woman,Right,4,79,0.15,2,180,0,0,0.38957250000021304,['n'],0.7956490999999914,1.392,2309.8955333,,,,,564,18,Woman,Right,
,,,,,,,,,,,,,,,,,564,18,Woman,Right,4,10,0.4,1,180,-,180,0.5331326000000445,['y'],1.339983299999858,1.862,2314.2121888,,,,,564,18,Woman,Right,
,,,,,,,,,,,,,,,,,564,18,Woman,Right,4,66,0.15,1,180,-,0,0.5235567999998239,['n'],1.3004245000001902,1.638,2318.5121927,,,,,564,18,Woman,Right,
,,,,,,,,,,,,,,,,,564,18,Woman,Right,4,19,0.4,2,180,0,0,0.48932209999975385,['y'],0.6292149000000791,1.974,2322.1121979,,,,,564,18,Woman,Right,
,,,,,,,,,,,,,,,,,564,18,Woman,Right,4,8,0.4,1,0,-,180,0.4866909000002124,['y'],0.8297000000002299,1.38,2325.9120648,,,,,564,18,Woman,Right,
,,,,,,,,,,,,,,,,,564,18,Woman,Right,4,12,0.4,1,0,-,180,2.6055922000000464,['y'],0.25403800000003685,1.976,2331.4787445,,,,,564,18,Woman,Right,
,,,,,,,,,,,,,,,,,564,18,Woman,Right,4,41,0.4,2,0,180,180,0.36292349999985163,['y'],0.8225827999999638,1.996,2335.0955367,,,,,564,18,Woman,Right,
,,,,,,,,,,,,,,,,,564,18,Woman,Right,4,48,0.15,1,0,-,0,0.5208701000001383,['n'],0.7036322000003565,1.4100000000000001,2339.3621573,,,,,564,18,Woman,Right,
,,,,,,,,,,,,,,,,,564,18,Woman,Right,4,59,0.15,2,180,0,180,0.6542316000000028,['y'],1.2558821000002354,1.57,2343.8621398,,,,,564,18,Woman,Right,
,,,,,,,,,,,,,,,,,564,18,Woman,Right,4,27,0.4,2,180,0,0,0.3699556000001394,['y'],0.47190820000014355,2.0,2347.5288011000002,,,,,564,18,Woman,Right,
,,,,,,,,,,,,,,,,,564,18,Woman,Right,4,58,0.15,1,180,-,0,0.4624920999999631,['y'],1.1046472999996695,1.436,2351.7120584,,,,,564,18,Woman,Right,
,,,,,,,,,,,,,,,,,564,18,Woman,Right,4,73,0.15,2,0,180,180,1.4477742999997645,['y'],0.7292422000000442,1.634,2356.5788228,,,,,564,18,Woman,Right,
,,,,,,,,,,,,,,,,,564,18,Woman,Right,4,47,0.15,2,180,0,180,0.6845503999998073,['n'],1.0496721999998044,1.37,2361.3954386,,,,,564,18,Woman,Right,
,,,,,,,,,,,,,,,,,564,18,Woman,Right,4,18,0.4,1,180,-,180,0.42175360000010187,['n'],0.6181255999999848,1.734,2365.0454489,,,,,564,18,Woman,Right,
,,,,,,,,,,,,,,,,,564,18,Woman,Right,4,25,0.4,2,0,180,180,0.24211789999981193,['y'],0.6268193000000792,1.738,2368.3787434,,,,,564,18,Woman,Right,
,,,,,,,,,,,,,,,,,564,18,Woman,Right,4,75,0.15,2,180,0,180,1.4159201000002213,['y'],0.3155994000003375,1.646,2373.0120618,,,,,564,18,Woman,Right,
,,,,,,,,,,,,,,,,,564,18,Woman,Right,4,24,0.4,1,0,-,0,0.19502929999998742,['n'],0.48380219999990004,1.722,2376.7787303,,,,,564,18,Woman,Right,
,,,,,,,,,,,,,,,,,564,18,Woman,Right,4,42,0.4,1,180,-,180,0.35158769999998185,['n'],0.8681698000000324,1.802,2380.6954428,,,,,564,18,Woman,Right,
,,,,,,,,,,,,,,,,,564,18,Woman,Right,4,70,0.15,1,180,-,0,0.506148899999971,['n'],0.8684011999998802,1.248,2385.8120772,,,,,564,18,Woman,Right,
,,,,,,,,,,,,,,,,,564,18,Woman,Right,4,53,0.15,2,0,180,0,0.2099597999999787,['n'],0.7171717999999601,1.974,2389.4120706,,,,,564,18,Woman,Right,
,,,,,,,,,,,,,,,,,564,18,Woman,Right,4,22,0.4,1,180,-,180,0.05793919999996433,['n'],0.6695879999997487,1.926,2392.4786924,,,,,564,18,Woman,Right,
,,,,,,,,,,,,,,,,,564,18,Woman,Right,4,43,0.4,2,180,0,180,0.016709800000171526,['y'],1.0392565000001923,1.926,2395.9287059,,,,,564,18,Woman,Right,
,,,,,,,,,,,,,,,,,564,18,Woman,Right,4,56,0.15,1,0,-,180,0.6547147000001132,['n'],1.9589983999999276,1.926,2400.7291021,,,,,564,18,Woman,Right,
,,,,,,,,,,,,,,,,,564,18,Woman,Right,4,78,0.15,1,180,-,180,1.0297022999998262,['n'],1.1993836999999985,1.744,2405.1953705,,,,,564,18,Woman,Right,
,,,,,,,,,,,,,,,,,564,18,Woman,Right,4,74,0.15,1,180,-,180,1.7878908999996383,['n'],1.031875200000286,1.8559999999999999,2410.5619501,,,,,564,18,Woman,Right,
,,,,,,,,,,,,,,,,,564,18,Woman,Right,4,35,0.4,2,180,0,0,0.9977783999997882,['y'],0.9045244999997522,1.884,2414.9952864,,,,,564,18,Woman,Right,
,,,,,,,,,,,,,,,,,564,18,Woman,Right,4,7,1,2,180,0,0,0.5278762999996616,['y'],1.120732500000031,2.0,2419.2119717,,,,,564,18,Woman,Right,
,,,,,,,,,,,,,,,,,564,18,Woman,Right,4,62,0.15,1,180,-,180,0.21330810000017664,['y'],0.6332174999997733,1.798,2422.8286466,,,,,564,18,Woman,Right,
,,,,,,,,,,,,,,,,,564,18,Woman,Right,4,31,0.4,2,180,0,0,0.7171456999999464,['y'],0.8666158999999425,1.98,2426.8785947,,,,,564,18,Woman,Right,
,,,,,,,,,,,,,,,,,564,18,Woman,Right,4,60,0.15,1,0,-,180,0.4271073999998407,['n'],0.7783962000003157,1.616,2430.7786445,,,,,564,18,Woman,Right,
,,,,,,,,,,,,,,,,,564,18,Woman,Right,4,26,0.4,1,180,-,180,1.95748870000034,['y'],0.9788367000001017,1.834,2436.2119545,,,,,564,18,Woman,Right,
,,,,,,,,,,,,,,,,,564,18,Woman,Right,4,36,0.4,1,0,-,0,0.8747604000000138,['n'],0.5233883000000787,1.334,2440.311944,,,,,564,18,Woman,Right,
,,,,,,,,,,,,,,,,,564,18,Woman,Right,4,5,1,2,0,180,180,0.8057140999999319,['y'],0.644079199999851,1.998,2444.428587,,,,,564,18,Woman,Right,
,,,,,,,,,,,,,,,,,564,18,Woman,Right,4,44,0.15,1,0,-,180,0.7657990000002428,['y'],2.756221900000128,1.6179999999999999,2450.4285761,,,,,564,18,Woman,Right,
,,,,,,,,,,,,,,,,,564,18,Woman,Right,4,49,0.15,2,0,180,180,0.2694158999997853,['y'],0.8371428000000378,1.686,2454.0119479,,,,,564,18,Woman,Right,
,,,,,,,,,,,,,,,,,564,18,Woman,Right,4,77,0.15,2,0,180,0,0.49320369999986724,['n'],0.7577272000003177,1.678,2457.4287146,,,,,564,18,Woman,Right,
,,,,,,,,,,,,,,,,,564,18,Woman,Right,4,16,0.4,1,0,-,0,0.4692565000000286,['n'],1.0942113999999492,1.678,2461.5785872,,,,,564,18,Woman,Right,
,,,,,,,,,,,,,,,,,564,18,Woman,Right,4,38,0.4,1,180,-,180,0.9818215000000237,['n'],0.3426825999999892,1.948,2466.195187,,,,,564,18,Woman,Right,
,,,,,,,,,,,,,,,,,564,18,Woman,Right,4,15,0.4,2,180,0,0,0.3707402000000002,['y'],0.8710756999998921,1.794,2469.9452076000002,,,,,564,18,Woman,Right,
,,,,,,,,,,,,,,,,,564,18,Woman,Right,4,40,0.4,1,0,-,0,1.6209792999998172,['n'],0.31978680000020177,1.3439999999999999,2475.1118781,,,,,564,18,Woman,Right,
,,,,,,,,,,,,,,,,,564,18,Woman,Right,4,71,0.15,2,180,0,180,0.2792090999996617,['n'],0.8401189999999588,1.786,2478.7784927000002,,,,,564,18,Woman,Right,
,,,,,,,,,,,,,,,,,564,18,Woman,Right,4,46,0.15,1,180,-,0,2.0137439000000086,['n'],1.009178900000279,1.782,2483.9285897,,,,,564,18,Woman,Right,
,,,,,,,,,,,,,,,,,564,18,Woman,Right,4,11,0.4,2,180,0,0,2.9502973000003294,['y'],0.2933118999999351,1.446,2490.1619592,,,,,564,18,Woman,Right,
,,,,,,,,,,,,,,,,,564,18,Woman,Right,4,6,1,1,180,-,180,0.45329739999988305,['n'],0.8342413999998826,1.782,2494.6117583,,,,,564,18,Woman,Right,
,,,,,,,,,,,,,,,,,564,18,Woman,Right,4,39,0.4,2,180,0,0,1.6331590999998298,['y'],0.1946563999999853,1.782,2498.6951068,,,,,564,18,Woman,Right,
,,,,,,,,,,,,,,,,,564,18,Woman,Right,4,68,0.15,1,0,-,0,0.747284099999888,['y'],0.987417600000299,1.16,2503.9951788,,,,,564,18,Woman,Right,
,,,,,,,,,,,,,,,,,564,18,Woman,Right,4,65,0.15,2,0,180,0,1.3779586999999083,['y'],1.3080893000001197,1.1400000000000001,2509.0284872,,,,,564,18,Woman,Right,
,,,,,,,,,,,,,,,,,564,18,Woman,Right,4,30,0.4,1,180,-,180,0.898052000000007,['n'],1.2525203000000147,1.362,2513.8451094,,,,,564,18,Woman,Right,
,,,,,,,,,,,,,,,,,564,18,Woman,Right,4,29,0.4,2,0,180,0,1.449234499999875,['y'],0.21321809999972174,1.958,2518.1950997,,,,,564,18,Woman,Right,
,,,,,,,,,,,,,,,,,564,18,Woman,Right,4,32,0.4,1,0,-,0,0.7914473999999245,['y'],1.1175967000003766,1.558,2522.5950702,,,,,564,18,Woman,Right,
,,,,,,,,,,,,,,,,,564,18,Woman,Right,4,55,0.15,2,180,0,180,0.19795159999966927,['n'],0.9983083000001898,1.756,2526.1951042,,,,,564,18,Woman,Right,
,,,,,,,,,,,,,,,,,564,18,Woman,Right,4,57,0.15,2,0,180,0,0.052013699999861274,['y'],1.030638799999906,1.1560000000000001,2530.5283927,,,,,564,18,Woman,Right,
,,,,,,,,,,,,,,,,,564,18,Woman,Right,4,4,1,1,0,-,0,0.4744133999997757,['n'],0.5351174999996147,1.994,2534.5783745,,,,,564,18,Woman,Right,
,,,,,,,,,,,,,,,,,564,18,Woman,Right,4,17,0.4,2,0,180,180,0.3443704000001162,['n'],0.8641459000000395,1.988,2538.445097,,,,,564,18,Woman,Right,
,,,,,,,,,,,,,,,,,564,18,Woman,Right,4,50,0.15,1,180,-,0,0.5721693999998934,['y'],0.7919410999998036,1.8439999999999999,2542.0284479,,,,,564,18,Woman,Right,
,,,,,,,,,,,,,,,,,564,18,Woman,Right,4,14,0.4,1,180,-,180,2.594651700000213,['y'],0.29679780000014944,1.988,2547.6617153,,,,,564,18,Woman,Right,
,,,,,,,,,,,,,,,,,564,18,Woman,Right,4,28,0.4,1,0,-,180,1.6800308000001678,['y'],1.1694271999999728,1.988,2553.4117141,,,,,564,18,Woman,Right,
,,,,,,,,,,,,,,,,,564,18,Woman,Right,4,72,0.15,1,0,-,0,1.2299833000001854,['n'],1.3470821000000797,1.226,2559.1115951,,,,,564,18,Woman,Right,
,,,,,,,,,,,,,,,,,564,18,Woman,Right,4,64,0.15,1,0,-,0,1.7346659999998337,['n'],1.3389727999997376,1.548,2564.8950042,,,,,564,18,Woman,Right,
,,,,,,,,,,,,,,,,,564,18,Woman,Right,4,0,1,1,0,-,0,0.2665643000000273,['n'],0.9874641000001247,2.0,2568.6950268,,,,,564,18,Woman,Right,
,,,,,,,,,,,,,,,,,564,18,Woman,Right,4,1,1,2,0,180,180,0.5481425999996645,['y'],0.9878383000000213,2.0,2573.0283184,,,,,564,18,Woman,Right,
,,,,,,,,,,,,,,,,,564,18,Woman,Right,5,25,0.4,2,0,180,180,0.3005303999998432,['y'],0.9716760999999678,1.996,2580.528283,68.75,67.5,72.5,,564,18,Woman,Right,
,,,,,,,,,,,,,,,,,564,18,Woman,Right,5,43,0.4,2,180,0,0,0.31205050000016854,['y'],0.6533494000000246,1.99,2584.1449463,,,,,564,18,Woman,Right,
,,,,,,,,,,,,,,,,,564,18,Woman,Right,5,34,0.4,1,180,-,180,0.10215949999974328,['n'],0.6614686999996593,1.996,2587.3282792,,,,,564,18,Woman,Right,
,,,,,,,,,,,,,,,,,564,18,Woman,Right,5,13,0.4,2,0,180,180,0.9690035000003263,['y'],0.22972440000012284,1.994,2590.6449528,,,,,564,18,Woman,Right,
,,,,,,,,,,,,,,,,,564,18,Woman,Right,5,72,0.15,1,0,-,180,1.1852788999999575,['n'],1.0147084999998697,1.3900000000000001,2595.5782572,,,,,564,18,Woman,Right,
,,,,,,,,,,,,,,,,,564,18,Woman,Right,5,26,0.4,1,180,-,180,0.14420960000006744,['n'],1.0231175999997504,1.9020000000000001,2598.9448574,,,,,564,18,Woman,Right,
,,,,,,,,,,,,,,,,,564,18,Woman,Right,5,24,0.4,1,0,-,0,0.24907779999966806,['n'],0.5435876999999891,1.948,2602.4615787000002,,,,,564,18,Woman,Right,
,,,,,,,,,,,,,,,,,564,18,Woman,Right,5,27,0.4,2,180,0,0,0.7782317000001058,['y'],0.23185030000013285,2.0,2606.1282562,,,,,564,18,Woman,Right,
,,,,,,,,,,,,,,,,,564,18,Woman,Right,5,77,0.15,2,0,180,0,1.504218999999921,['n'],0.3203662000000804,1.976,2610.5949266000002,,,,,564,18,Woman,Right,
,,,,,,,,,,,,,,,,,564,18,Woman,Right,5,2,1,1,180,-,180,0.12567810000018653,['n'],1.23277330000019,1.988,2614.4950743,,,,,564,18,Woman,Right,
,,,,,,,,,,,,,,,,,564,18,Woman,Right,5,23,0.4,2,180,0,0,0.4091020999999273,['y'],0.5211715000000368,1.978,2617.594947,,,,,564,18,Woman,Right,
,,,,,,,,,,,,,,,,,564,18,Woman,Right,5,48,0.15,1,0,-,0,1.933922100000018,['n'],0.2579328000001624,1.726,2622.5949283,,,,,564,18,Woman,Right,
,,,,,,,,,,,,,,,,,564,18,Woman,Right,5,62,0.15,1,180,-,0,0.7642487000002802,['y'],0.25821510000014314,1.756,2625.9615554,,,,,564,18,Woman,Right,
,,,,,,,,,,,,,,,,,564,18,Woman,Right,5,70,0.15,1,180,-,180,1.279088999999658,['n'],1.1468387999998413,1.762,2630.4282504000003,,,,,564,18,Woman,Right,
,,,,,,,,,,,,,,,,,564,18,Woman,Right,5,5,1,2,0,180,180,0.5330770000000484,['y'],0.5711965000000419,1.762,2633.7615682,,,,,564,18,Woman,Right,
,,,,,,,,,,,,,,,,,564,18,Woman,Right,5,63,0.15,2,180,0,0,0.8534240999997564,['n'],0.4679390000001149,1.762,2637.4282118,,,,,564,18,Woman,Right,
,,,,,,,,,,,,,,,,,564,18,Woman,Right,5,75,0.15,2,180,0,180,3.273956200000157,['n'],0.8440165000001798,1.246,2644.3448798,,,,,564,18,Woman,Right,
,,,,,,,,,,,,,,,,,564,18,Woman,Right,5,71,0.15,2,180,0,180,0.6641263999999865,['y'],0.7010992999998962,1.676,2648.09523,,,,,564,18,Woman,Right,
,,,,,,,,,,,,,,,,,564,18,Woman,Right,5,14,0.4,1,180,-,180,1.4367000000002008,['n'],1.1659324000002016,1.588,2653.3115295000002,,,,,564,18,Woman,Right,
,,,,,,,,,,,,,,,,,564,18,Woman,Right,5,22,0.4,1,180,-,180,0.14533439999968323,['n'],0.5101018999998814,1.968,2656.4281714,,,,,564,18,Woman,Right,
,,,,,,,,,,,,,,,,,564,18,Woman,Right,5,9,0.4,2,0,180,180,1.5250467999999273,['y'],0.19844549999970695,1.99,2660.5781238,,,,,564,18,Woman,Right,
,,,,,,,,,,,,,,,,,564,18,Woman,Right,5,33,0.4,2,0,180,180,0.3966614999999365,['y'],0.5426864999999452,1.962,2664.1280449,,,,,564,18,Woman,Right,
,,,,,,,,,,,,,,,,,564,18,Woman,Right,5,58,0.15,1,180,-,180,0.9682334999997693,['n'],0.27938410000024305,1.658,2668.0614881,,,,,564,18,Woman,Right,
,,,,,,,,,,,,,,,,,564,18,Woman,Right,5,50,0.15,1,180,-,180,0.5162086000000272,['n'],0.6160817999998471,1.8719999999999999,2671.5781849,,,,,564,18,Woman,Right,
,,,,,,,,,,,,,,,,,564,18,Woman,Right,5,1,1,2,0,180,180,0.39956330000040907,['y'],1.145088499999929,2.0,2675.4947942,,,,,564,18,Woman,Right,
,,,,,,,,,,,,,,,,,564,18,Woman,Right,5,17,0.4,2,0,180,180,1.2669439000001148,['y'],0.20078139999986888,1.926,2679.1947981,,,,,564,18,Woman,Right,
,,,,,,,,,,,,,,,,,564,18,Woman,Right,5,53,0.15,2,0,180,0,1.675648700000238,['n'],0.28947629999993296,1.696,2683.611436,,,,,564,18,Woman,Right,
,,,,,,,,,,,,,,,,,564,18,Woman,Right,5,44,0.15,1,0,-,180,0.28770059999988007,['n'],1.6576703000000634,1.936,2687.961434,,,,,564,18,Woman,Right,
,,,,,,,,,,,,,,,,,564,18,Woman,Right,5,19,0.4,2,180,0,0,2.043478799999775,['y'],0.20253700000012032,1.8439999999999999,2692.7780955,,,,,564,18,Woman,Right,
,,,,,,,,,,,,,,,,,564,18,Woman,Right,5,61,0.15,2,0,180,0,0.9131803000000218,['n'],0.6268492000003789,1.6,2696.711408,,,,,564,18,Woman,Right,
,,,,,,,,,,,,,,,,,564,18,Woman,Right,5,37,0.4,2,0,180,180,1.8503708999996888,['y'],0.20336550000001807,2.0,2701.2781105,,,,,564,18,Woman,Right,
,,,,,,,,,,,,,,,,,564,18,Woman,Right,5,31,0.4,2,180,0,0,1.290485600000011,['n'],0.21188330000040878,1.616,2705.1780747000003,,,,,564,18,Woman,Right,
,,,,,,,,,,,,,,,,,564,18,Woman,Right,5,66,0.15,1,180,-,180,1.163810999999896,['n'],2.2526960000000145,1.3439999999999999,2711.7946929,,,,,564,18,Woman,Right,
,,,,,,,,,,,,,,,,,564,18,Woman,Right,5,7,1,2,180,0,0,1.4193852000003062,['y'],0.5334780999996838,2.0,2716.9613826,,,,,564,18,Woman,Right,
,,,,,,,,,,,,,,,,,564,18,Woman,Right,5,38,0.4,1,180,-,180,0.5244235999998637,['n'],0.605999299999894,1.876,2721.8947955,,,,,564,18,Woman,Right,
,,,,,,,,,,,,,,,,,564,18,Woman,Right,5,0,1,1,0,-,0,0.7834940000002462,['n'],0.2254667999995945,1.97,2725.2280187,,,,,564,18,Woman,Right,
,,,,,,,,,,,,,,,,,564,18,Woman,Right,5,55,0.15,2,180,0,180,0.3884776999998394,['n'],0.8233555000001616,1.924,2728.661416,,,,,564,18,Woman,Right,
,,,,,,,,,,,,,,,,,564,18,Woman,Right,5,52,0.15,1,0,-,180,0.17764519999991535,['n'],1.5353539000002456,1.924,2732.5613256,,,,,564,18,Woman,Right,
,,,,,,,,,,,,,,,,,564,18,Woman,Right,5,18,0.4,1,180,-,180,0.38993799999980183,['n'],0.6562330000001566,2.0,2736.1115415,,,,,564,18,Woman,Right,
,,,,,,,,,,,,,,,,,564,18,Woman,Right,5,36,0.4,1,0,-,0,1.144779700000072,['n'],0.22390539999969405,1.976,2740.5278947,,,,,564,18,Woman,Right,
,,,,,,,,,,,,,,,,,564,18,Woman,Right,5,74,0.15,1,180,-,0,0.560030199999801,['y'],1.0486141999999745,1.6400000000000001,2744.5279802,,,,,564,18,Woman,Right,
,,,,,,,,,,,,,,,,,564,18,Woman,Right,5,4,1,1,0,-,0,0.09322139999994761,['n'],0.48124090000010256,2.0,2748.0446608,,,,,564,18,Woman,Right,
,,,,,,,,,,,,,,,,,564,18,Woman,Right,5,64,0.15,1,0,-,0,0.9089392000000771,['n'],0.2980035000000498,1.38,2751.8446557,,,,,564,18,Woman,Right,
,,,,,,,,,,,,,,,,,564,18,Woman,Right,5,54,0.15,1,180,-,0,0.2684201000001849,['y'],1.0743843000000197,1.172,2755.727936,,,,,564,18,Woman,Right,
,,,,,,,,,,,,,,,,,564,18,Woman,Right,5,68,0.15,1,0,-,0,0.38374649999968824,['y'],0.4988158999999541,1.646,2759.1279525,,,,,564,18,Woman,Right,
,,,,,,,,,,,,,,,,,564,18,Woman,Right,5,56,0.15,1,0,-,180,1.9327060000000529,['y'],0.29909159999988333,1.63,2763.7946595,,,,,564,18,Woman,Right,
,,,,,,,,,,,,,,,,,564,18,Woman,Right,5,59,0.15,2,180,0,0,0.18449180000015986,['y'],0.84377429999995,1.92,2768.1779166,,,,,564,18,Woman,Right,
,,,,,,,,,,,,,,,,,564,18,Woman,Right,5,65,0.15,2,0,180,0,0.4690392000002248,['y'],1.0603823000001285,1.742,2772.5612198,,,,,564,18,Woman,Right,
,,,,,,,,,,,,,,,,,564,18,Woman,Right,5,35,0.4,2,180,0,0,0.6872919999996157,['y'],0.21263610000005428,1.436,2776.3446485,,,,,564,18,Woman,Right,
,,,,,,,,,,,,,,,,,564,18,Woman,Right,5,30,0.4,1,180,-,180,0.8709791000001132,['y'],0.7899044999999205,1.676,2780.3779632,,,,,564,18,Woman,Right,
,,,,,,,,,,,,,,,,,564,18,Woman,Right,5,78,0.15,1,180,-,0,1.2215486999998575,['y'],0.3099699999997938,1.678,2784.1945701,,,,,564,18,Woman,Right,
,,,,,,,,,,,,,,,,,564,18,Woman,Right,5,29,0.4,2,0,180,180,0.7537073000003147,['y'],0.9263733999996475,1.998,2788.4778339,,,,,564,18,Woman,Right,
,,,,,,,,,,,,,,,,,564,18,Woman,Right,5,57,0.15,2,0,180,180,0.5618883000001915,['y'],0.6390348999998423,1.774,2791.8945242,,,,,564,18,Woman,Right,
,,,,,,,,,,,,,,,,,564,18,Woman,Right,5,69,0.15,2,0,180,0,0.20932519999996657,['n'],0.8550735999997414,1.774,2795.1444536,,,,,564,18,Woman,Right,
,,,,,,,,,,,,,,,,,564,18,Woman,Right,5,28,0.4,1,0,-,0,0.911765800000012,['y'],1.7678074999998898,1.3719999999999999,2800.2446542000002,,,,,564,18,Woman,Right,
,,,,,,,,,,,,,,,,,564,18,Woman,Right,5,21,0.4,2,0,180,180,0.3435637999996288,['y'],1.13620230000015,2.0,2804.3444947,,,,,564,18,Woman,Right,
,,,,,,,,,,,,,,,,,564,18,Woman,Right,5,32,0.4,1,0,-,0,0.5580300000001444,['n'],0.5765780000001541,1.284,2807.7944235,,,,,564,18,Woman,Right,
,,,,,,,,,,,,,,,,,564,18,Woman,Right,5,6,1,1,180,-,180,0.14117059999989579,['n'],0.8570091000001412,2.0,2811.6612102,,,,,564,18,Woman,Right,
,,,,,,,,,,,,,,,,,564,18,Woman,Right,5,16,0.4,1,0,-,180,0.232563300000038,['n'],1.0416484000002129,1.43,2816.1111353,,,,,564,18,Woman,Right,
,,,,,,,,,,,,,,,,,564,18,Woman,Right,5,67,0.15,2,180,0,0,0.4352120000003197,['n'],0.8983317000001989,1.6320000000000001,2820.2111901,,,,,564,18,Woman,Right,
,,,,,,,,,,,,,,,,,564,18,Woman,Right,5,45,0.15,2,0,180,0,0.5842383999997764,['n'],0.578614000000016,1.384,2823.6945193,,,,,564,18,Woman,Right,
,,,,,,,,,,,,,,,,,564,18,Woman,Right,5,51,0.15,2,180,0,180,0.04542460000038773,['n'],0.7789290999999139,1.81,2826.811129,,,,,564,18,Woman,Right,
,,,,,,,,,,,,,,,,,564,18,Woman,Right,5,47,0.15,2,180,0,0,0.5255548999998609,['n'],2.9878113999998277,1.758,2832.5611244,,,,,564,18,Woman,Right,
,,,,,,,,,,,,,,,,,564,18,Woman,Right,5,3,1,2,180,0,0,1.684836699999778,['y'],0.24504780000006576,2.0,2837.9777798,,,,,564,18,Woman,Right,
,,,,,,,,,,,,,,,,,564,18,Woman,Right,5,73,0.15,2,0,180,180,0.4299271999998382,['n'],0.85292759999993,1.6019999999999999,2841.9111217,,,,,564,18,Woman,Right,
,,,,,,,,,,,,,,,,,564,18,Woman,Right,5,49,0.15,2,0,180,180,0.13676789999999528,['n'],0.7491370000002462,1.5979999999999999,2844.9277562,,,,,564,18,Woman,Right,
,,,,,,,,,,,,,,,,,564,18,Woman,Right,5,60,0.15,1,0,-,0,0.4000629000001936,['y'],0.7335659000000305,1.5939999999999999,2848.2110698,,,,,564,18,Woman,Right,
,,,,,,,,,,,,,,,,,564,18,Woman,Right,5,11,0.4,2,180,0,0,0.6416834999999992,['y'],0.6942543000000114,1.988,2852.1610652,,,,,564,18,Woman,Right,
,,,,,,,,,,,,,,,,,564,18,Woman,Right,5,41,0.4,2,0,180,180,0.3662811000003785,['y'],0.6220428999999967,1.99,2855.6611116,,,,,564,18,Woman,Right,
,,,,,,,,,,,,,,,,,564,18,Woman,Right,5,8,0.4,1,0,-,0,0.5001176000000669,['n'],0.6468303999999989,1.998,2858.9610689,,,,,564,18,Woman,Right,
,,,,,,,,,,,,,,,,,564,18,Woman,Right,5,20,0.4,1,0,-,0,0.5400367000002007,['n'],1.9675474000000577,2.0,2864.3276911,,,,,564,18,Woman,Right,
,,,,,,,,,,,,,,,,,564,18,Woman,Right,5,39,0.4,2,180,0,0,1.3748109000002842,['y'],0.7761028999998416,1.982,2868.7112899,,,,,564,18,Woman,Right,
,,,,,,,,,,,,,,,,,564,18,Woman,Right,5,79,0.15,2,180,0,180,1.5506510000000162,['n'],1.8729881999997815,1.558,2875.8943896,,,,,564,18,Woman,Right,
,,,,,,,,,,,,,,,,,564,18,Woman,Right,5,46,0.15,1,180,-,180,0.20045329999993555,['n'],1.3191866000001937,1.6480000000000001,2880.4443509000002,,,,,564,18,Woman,Right,
,,,,,,,,,,,,,,,,,564,18,Woman,Right,5,15,0.4,2,180,0,0,0.3762010000000373,['y'],0.7700583999999253,1.968,2884.5442611,,,,,564,18,Woman,Right,
,,,,,,,,,,,,,,,,,564,18,Woman,Right,5,10,0.4,1,180,-,180,0.5107260999998289,['n'],0.858615699999973,1.44,2889.4776783,,,,,564,18,Woman,Right,
,,,,,,,,,,,,,,,,,564,18,Woman,Right,5,12,0.4,1,0,-,0,0.33350849999987986,['n'],0.4362714000003507,1.452,2892.5276551,,,,,564,18,Woman,Right,
,,,,,,,,,,,,,,,,,564,18,Woman,Right,5,40,0.4,1,0,-,0,0.18467229999987467,['n'],1.7797310999999354,1.748,2896.7610026,,,,,564,18,Woman,Right,
,,,,,,,,,,,,,,,,,564,18,Woman,Right,5,76,0.15,1,0,-,180,1.3091184999998404,['n'],0.9324131000003035,1.708,2901.1610162,,,,,564,18,Woman,Right,
,,,,,,,,,,,,,,,,,564,18,Woman,Right,5,42,0.4,1,180,-,180,0.06681490000028134,['n'],1.0285613000000922,1.98,2904.8443243,,,,,564,18,Woman,Right,
,,,,,,,,,,,,,,,,,,,,,,,,,,,,,,,,,73.75,77.5,62.5,2439.0984242,,,,,
