p_block,p_section,p_coherence,p_direction1,p_direction2,p_direction_response,p_direction_RT,p_change_response,p_change_RT,p_confidence,p_full_correct,p_without5_correct,p_full_total,p_without5_total,p_full_avg,p_witout5_avg,p_total_time,sub,age,sex,handedness,loop,trial randomization,coherence,condition,direction1,direction2,direction_response,direction_RT,change_response,change_RT,change_confidence,change_confidence_RT,block_direction_avg,block_stable_avg,block_change_avg,total_time,sub,age,sex,handedness,
1,1,1.0,0,-,0,1.0438643000015873,-,-,-,,,,,,,,505,20,Man,Right,,,,,,,,,,,,,,,,,505,20,Man,Right,
1,1,1.0,0,-,0,1.5560592000001634,-,-,-,,,,,,,,505,20,Man,Right,,,,,,,,,,,,,,,,,505,20,Man,Right,
1,1,1.0,180,-,180,1.5839832999990904,-,-,-,,,,,,,,505,20,Man,Right,,,,,,,,,,,,,,,,,505,20,Man,Right,
1,1,1.0,180,-,180,0.21840959999826737,-,-,-,,,,,,,,505,20,Man,Right,,,,,,,,,,,,,,,,,505,20,Man,Right,
1,1,1.0,180,-,180,0.1392677999974694,-,-,-,,,,,,,,505,20,Man,Right,,,,,,,,,,,,,,,,,505,20,Man,Right,
1,1,1.0,180,-,180,0.047953000001143664,-,-,-,,,,,,,,505,20,Man,Right,,,,,,,,,,,,,,,,,505,20,Man,Right,
1,1,1.0,180,-,180,0.04061580000052345,-,-,-,,,,,,,,505,20,Man,Right,,,,,,,,,,,,,,,,,505,20,Man,Right,
1,1,1.0,0,-,0,0.017237000000022817,-,-,-,,,,,,,,505,20,Man,Right,,,,,,,,,,,,,,,,,505,20,Man,Right,
1,1,1.0,0,-,0,0.017602100000658538,-,-,-,,,,,,,,505,20,Man,Right,,,,,,,,,,,,,,,,,505,20,Man,Right,
1,1,1.0,180,-,180,0.06058870000197203,-,-,-,10,10,10,10,1.0,1.0,,505,20,Man,Right,,,,,,,,,,,,,,,,,505,20,Man,Right,
2,1,0.15,180,-,180,1.950662100000045,-,-,-,,,,,,,,505,20,Man,Right,,,,,,,,,,,,,,,,,505,20,Man,Right,
2,1,0.4,180,-,180,0.5305010999982187,-,-,-,,,,,,,,505,20,Man,Right,,,,,,,,,,,,,,,,,505,20,Man,Right,
2,1,0.15,180,-,180,0.7274169999982405,-,-,-,,,,,,,,505,20,Man,Right,,,,,,,,,,,,,,,,,505,20,Man,Right,
2,1,0.4,180,-,180,0.5327834000017901,-,-,-,,,,,,,,505,20,Man,Right,,,,,,,,,,,,,,,,,505,20,Man,Right,
2,1,0.15,0,-,0,0.05745289999686065,-,-,-,,,,,,,,505,20,Man,Right,,,,,,,,,,,,,,,,,505,20,Man,Right,
2,1,0.15,180,-,180,0.01643089999924996,-,-,-,,,,,,,,505,20,Man,Right,,,,,,,,,,,,,,,,,505,20,Man,Right,
2,1,0.15,0,-,0,0.44307150000167894,-,-,-,,,,,,,,505,20,Man,Right,,,,,,,,,,,,,,,,,505,20,Man,Right,
2,1,0.15,0,-,0,0.17233180000039283,-,-,-,,,,,,,,505,20,Man,Right,,,,,,,,,,,,,,,,,505,20,Man,Right,
2,1,0.4,180,-,180,0.017424699999537552,-,-,-,,,,,,,,505,20,Man,Right,,,,,,,,,,,,,,,,,505,20,Man,Right,
2,1,0.15,0,-,180,0.016794899998785695,-,-,-,9,3,10,3,0.9,1.0,,505,20,Man,Right,,,,,,,,,,,,,,,,,505,20,Man,Right,
3,2,1.0,0,180,0,3.6310889000014868,['y'],3.150293700000475,1.84,,,,,,,,505,20,Man,Right,,,,,,,,,,,,,,,,,505,20,Man,Right,
3,2,1.0,180,0,0,2.1543300000012096,['y'],3.3011521000007633,1.84,,,,,,,,505,20,Man,Right,,,,,,,,,,,,,,,,,505,20,Man,Right,
3,2,1.0,180,0,0,0.46792370000184746,['y'],1.5696836999995867,1.85,,,,,,,,505,20,Man,Right,,,,,,,,,,,,,,,,,505,20,Man,Right,
3,2,1.0,180,0,0,0.3832628999989538,['y'],1.615545500000735,1.8780000000000001,,,,,,,,505,20,Man,Right,,,,,,,,,,,,,,,,,505,20,Man,Right,
3,2,1.0,180,0,0,0.7324542999995174,['y'],1.3106736000008823,1.876,,,,,,,,505,20,Man,Right,,,,,,,,,,,,,,,,,505,20,Man,Right,
3,2,1.0,0,180,180,0.7692907999989984,['y'],1.1301559999992605,1.836,,,,,,,,505,20,Man,Right,,,,,,,,,,,,,,,,,505,20,Man,Right,
3,2,1.0,180,0,0,0.5815021999987948,['y'],1.294450900000811,1.9,,,,,,,,505,20,Man,Right,,,,,,,,,,,,,,,,,505,20,Man,Right,
3,2,1.0,0,180,180,0.6291694999999891,['y'],2.0523884000031103,1.888,,,,,,,,505,20,Man,Right,,,,,,,,,,,,,,,,,505,20,Man,Right,
3,2,1.0,180,0,0,0.732519000001048,['y'],1.3888456000022416,1.8780000000000001,,,,,,,,505,20,Man,Right,,,,,,,,,,,,,,,,,505,20,Man,Right,
3,2,1.0,0,180,180,0.6023912999989989,['y'],1.155574999997043,1.8780000000000001,9,9,10,10,0.9,0.9,,505,20,Man,Right,,,,,,,,,,,,,,,,,505,20,Man,Right,
4,2,0.15,0,180,0,3.118017000000691,['y'],1.7218756000002031,1.8780000000000001,,,,,,,,505,20,Man,Right,,,,,,,,,,,,,,,,,505,20,Man,Right,
4,2,0.4,180,0,0,1.0117380000010598,['y'],1.7890771999991557,1.8780000000000001,,,,,,,,505,20,Man,Right,,,,,,,,,,,,,,,,,505,20,Man,Right,
4,2,0.15,180,0,0,0.654652300003363,['y'],1.1020815999982005,1.8780000000000001,,,,,,,,505,20,Man,Right,,,,,,,,,,,,,,,,,505,20,Man,Right,
4,2,0.15,180,0,0,0.42735269999684533,['y'],1.2187654999979713,1.8559999999999999,,,,,,,,505,20,Man,Right,,,,,,,,,,,,,,,,,505,20,Man,Right,
4,2,0.4,0,180,180,0.8798231000000669,['y'],1.0390058999983012,1.876,,,,,,,,505,20,Man,Right,,,,,,,,,,,,,,,,,505,20,Man,Right,
4,2,0.15,180,0,180,0.6951531000013347,['y'],0.5162922000017716,1.854,,,,,,,,505,20,Man,Right,,,,,,,,,,,,,,,,,505,20,Man,Right,
4,2,0.15,180,0,0,1.3748014000011608,['y'],2.2092850000008184,1.944,,,,,,,,505,20,Man,Right,,,,,,,,,,,,,,,,,505,20,Man,Right,
4,2,0.15,0,180,180,0.6619591999988188,['y'],1.1498901000013575,1.912,,,,,,,,505,20,Man,Right,,,,,,,,,,,,,,,,,505,20,Man,Right,
4,2,0.15,180,0,180,0.9333961999982421,['y'],1.1285893999993277,1.8599999999999999,,,,,,,,505,20,Man,Right,,,,,,,,,,,,,,,,,505,20,Man,Right,
4,2,0.4,180,0,0,0.49760220000098343,['y'],1.0957425000015064,1.8900000000000001,7,3,10,3,0.7,1.0,,505,20,Man,Right,,,,,,,,,,,,,,,,,505,20,Man,Right,
5,3,0.15,0,180,0,0.45053619999816874,['y'],1.068700900003023,1.956,,,,,,,,505,20,Man,Right,,,,,,,,,,,,,,,,,505,20,Man,Right,
5,3,1.0,180,-,180,0.7984319999995932,['n'],2.0230883000003814,1.838,,,,,,,,505,20,Man,Right,,,,,,,,,,,,,,,,,505,20,Man,Right,
5,3,0.4,180,-,0,0.560659200000373,['y'],1.1151589000000968,1.828,,,,,,,,505,20,Man,Right,,,,,,,,,,,,,,,,,505,20,Man,Right,
5,3,0.15,180,0,0,0.5651178000007349,['y'],1.0638049000008323,1.828,,,,,,,,505,20,Man,Right,,,,,,,,,,,,,,,,,505,20,Man,Right,
5,3,0.15,180,-,0,0.49566760000016075,['y'],1.0143019000024651,1.828,,,,,,,,505,20,Man,Right,,,,,,,,,,,,,,,,,505,20,Man,Right,
5,3,0.15,180,-,180,0.6232705999973405,['y'],1.8082331999976304,1.786,,,,,,,,505,20,Man,Right,,,,,,,,,,,,,,,,,505,20,Man,Right,
5,3,0.4,0,180,180,0.7092095999978483,['n'],1.0589374000010139,1.77,,,,,,,,505,20,Man,Right,,,,,,,,,,,,,,,,,505,20,Man,Right,
5,3,0.4,0,180,180,0.3737490000021353,['y'],1.5781155999975454,1.766,,,,,,,,505,20,Man,Right,,,,,,,,,,,,,,,,,505,20,Man,Right,
5,3,1.0,0,180,180,2.6319595000022673,['y'],1.0481895999982953,1.814,,,,,,,,505,20,Man,Right,,,,,,,,,,,,,,,,,505,20,Man,Right,
5,3,0.15,0,-,0,0.8025528999969538,['y'],0.9881199000010383,1.802,7,4,10,5,0.7,0.8,,505,20,Man,Right,,,,,,,,,,,,,,,,,505,20,Man,Right,
,,,,,,,,,,,,,,,,5.099998816149309e-06,505,20,Man,Right,,,,,,,,,,,,,,,,,505,20,Man,Right,
,,,,,,,,,,,,,,,,,505,20,Man,Right,0,1,1,2,0,180,180,1.0180445999976655,['y'],4.766801400000986,1.866,291.61707710000337,,,,,505,20,Man,Right,
,,,,,,,,,,,,,,,,,505,20,Man,Right,0,44,0.15,1,0,-,0,0.4677813000016613,['y'],2.4632869999986724,1.82,297.39988730000186,,,,,505,20,Man,Right,
,,,,,,,,,,,,,,,,,505,20,Man,Right,0,79,0.15,2,180,0,0,0.47684819999994943,['y'],2.9352791999990586,1.798,303.7013891000024,,,,,505,20,Man,Right,
,,,,,,,,,,,,,,,,,505,20,Man,Right,0,12,0.4,1,0,-,0,0.6471109000012802,['n'],1.0788295000020298,1.79,308.16672670000116,,,,,505,20,Man,Right,
,,,,,,,,,,,,,,,,,505,20,Man,Right,0,22,0.4,1,180,-,0,0.4729847999988124,['n'],3.9917013000012957,1.788,315.51735290000215,,,,,505,20,Man,Right,
,,,,,,,,,,,,,,,,,505,20,Man,Right,0,36,0.4,1,0,-,0,1.8631314000012935,['n'],1.4073672000013175,1.834,321.78333850000126,,,,,505,20,Man,Right,
,,,,,,,,,,,,,,,,,505,20,Man,Right,0,59,0.15,2,180,0,0,0.8894910999988497,['y'],2.2471229000002495,1.88,327.9510005000011,,,,,505,20,Man,Right,
,,,,,,,,,,,,,,,,,505,20,Man,Right,0,48,0.15,1,0,-,0,0.4799572999982047,['n'],2.4631695999996737,1.84,333.3675253000001,,,,,505,20,Man,Right,
,,,,,,,,,,,,,,,,,505,20,Man,Right,0,68,0.15,1,0,-,0,2.4512668999996094,['n'],2.0471001000005344,1.836,340.4164253000017,,,,,505,20,Man,Right,
,,,,,,,,,,,,,,,,,505,20,Man,Right,0,54,0.15,1,180,-,0,0.9777796000016679,['n'],2.119672699998773,1.81,346.5337896000019,,,,,505,20,Man,Right,
,,,,,,,,,,,,,,,,,505,20,Man,Right,0,2,1,1,180,-,180,0.6382935000001453,['n'],1.4879497999972955,1.81,351.45149570000285,,,,,505,20,Man,Right,
,,,,,,,,,,,,,,,,,505,20,Man,Right,0,65,0.15,2,0,180,0,0.4395635000000766,['n'],2.3759540999999444,1.81,357.41632550000213,,,,,505,20,Man,Right,
,,,,,,,,,,,,,,,,,505,20,Man,Right,0,7,1,2,180,0,0,1.4810562000020582,['y'],1.0318793000005826,1.81,362.4853630000034,,,,,505,20,Man,Right,
,,,,,,,,,,,,,,,,,505,20,Man,Right,0,30,0.4,1,180,-,180,0.9439055999973789,['y'],1.239789400002337,1.81,367.16606540000066,,,,,505,20,Man,Right,
,,,,,,,,,,,,,,,,,505,20,Man,Right,0,13,0.4,2,0,180,180,0.6168863999992027,['y'],1.1997260999996797,1.806,371.3495901000024,,,,,505,20,Man,Right,
,,,,,,,,,,,,,,,,,505,20,Man,Right,0,76,0.15,1,0,-,180,0.48259929999767337,['y'],1.4206173999991734,1.806,375.88342940000075,,,,,505,20,Man,Right,
,,,,,,,,,,,,,,,,,505,20,Man,Right,0,21,0.4,2,0,180,180,1.8264231000030122,['y'],5.944093099999009,1.932,386.6496407000013,,,,,505,20,Man,Right,
,,,,,,,,,,,,,,,,,505,20,Man,Right,0,28,0.4,1,0,-,180,1.4502886999980547,['y'],1.0443709999999555,1.772,391.7993118000013,,,,,505,20,Man,Right,
,,,,,,,,,,,,,,,,,505,20,Man,Right,0,45,0.15,2,0,180,180,0.25048030000107246,['y'],1.0162875999994867,1.77,395.9659513000006,,,,,505,20,Man,Right,
,,,,,,,,,,,,,,,,,505,20,Man,Right,0,8,0.4,1,0,-,0,1.389083699999901,['n'],1.1763245000001916,1.776,401.2658289000028,,,,,505,20,Man,Right,
,,,,,,,,,,,,,,,,,505,20,Man,Right,0,57,0.15,2,0,180,180,0.306566200000816,['y'],0.9283189999987371,1.776,405.23254550000274,,,,,505,20,Man,Right,
,,,,,,,,,,,,,,,,,505,20,Man,Right,0,73,0.15,2,0,180,180,0.6426754000021901,['y'],2.0403270999995584,1.79,410.7825668000005,,,,,505,20,Man,Right,
,,,,,,,,,,,,,,,,,505,20,Man,Right,0,77,0.15,2,0,180,0,2.061317899999267,['n'],1.2965390999997908,1.79,416.51629440000033,,,,,505,20,Man,Right,
,,,,,,,,,,,,,,,,,505,20,Man,Right,0,34,0.4,1,180,-,0,1.0002463000018906,['y'],1.20849090000047,1.79,421.1668783000023,,,,,505,20,Man,Right,
,,,,,,,,,,,,,,,,,505,20,Man,Right,0,18,0.4,1,180,-,0,0.6039061000010406,['y'],1.000505999996676,1.79,425.1500812000013,,,,,505,20,Man,Right,
,,,,,,,,,,,,,,,,,505,20,Man,Right,0,43,0.4,2,180,0,0,0.6149432999991404,['y'],1.1764806999999564,1.79,429.36702490000243,,,,,505,20,Man,Right,
,,,,,,,,,,,,,,,,,505,20,Man,Right,0,35,0.4,2,180,0,0,2.4989026000002923,['y'],0.6126990000011574,1.79,435.11697540000023,,,,,505,20,Man,Right,
,,,,,,,,,,,,,,,,,505,20,Man,Right,0,5,1,2,0,180,180,0.48136520000116434,['y'],0.8964424000005238,1.79,438.88373830000273,,,,,505,20,Man,Right,
,,,,,,,,,,,,,,,,,505,20,Man,Right,0,58,0.15,1,180,-,0,0.7504558000000543,['y'],1.169416299999284,1.78,443.3163897000013,,,,,505,20,Man,Right,
,,,,,,,,,,,,,,,,,505,20,Man,Right,0,66,0.15,1,180,-,0,0.13423429999966174,['y'],0.704449900000327,1.776,446.8159807000011,,,,,505,20,Man,Right,
,,,,,,,,,,,,,,,,,505,20,Man,Right,0,50,0.15,1,180,-,0,0.37975299999743584,['y'],2.312267700002849,1.774,451.9499227000015,,,,,505,20,Man,Right,
,,,,,,,,,,,,,,,,,505,20,Man,Right,0,26,0.4,1,180,-,0,0.6703213000000687,['y'],0.6398847999989812,1.772,455.6830826000005,,,,,505,20,Man,Right,
,,,,,,,,,,,,,,,,,505,20,Man,Right,0,51,0.15,2,180,0,180,1.2324893000004522,['y'],0.5724098999999114,1.772,460.3502952000017,,,,,505,20,Man,Right,
,,,,,,,,,,,,,,,,,505,20,Man,Right,0,69,0.15,2,0,180,180,4.056086999997206,['y'],0.6488765999965835,1.44,468.0504643000022,,,,,505,20,Man,Right,
,,,,,,,,,,,,,,,,,505,20,Man,Right,0,78,0.15,1,180,-,0,0.7170965000004799,['y'],1.3365320000011707,1.4,473.1825960000024,,,,,505,20,Man,Right,
,,,,,,,,,,,,,,,,,505,20,Man,Right,0,17,0.4,2,0,180,180,0.4213032999978168,['y'],0.8882647000027646,1.804,477.25024340000164,,,,,505,20,Man,Right,
,,,,,,,,,,,,,,,,,505,20,Man,Right,0,71,0.15,2,180,0,0,0.558009199998196,['y'],0.8087971999993897,1.6560000000000001,481.3337406000028,,,,,505,20,Man,Right,
,,,,,,,,,,,,,,,,,505,20,Man,Right,0,25,0.4,2,0,180,180,0.4735426000006555,['y'],0.47289290000117035,1.758,485.08301650000067,,,,,505,20,Man,Right,
,,,,,,,,,,,,,,,,,505,20,Man,Right,0,14,0.4,1,180,-,180,2.5299762999966333,['y'],1.4485773000014888,1.29,492.31673260000025,,,,,505,20,Man,Right,
,,,,,,,,,,,,,,,,,505,20,Man,Right,0,9,0.4,2,0,180,180,0.38421999999991385,['y'],0.4809324999987439,1.76,495.6502216000008,,,,,505,20,Man,Right,
,,,,,,,,,,,,,,,,,505,20,Man,Right,0,3,1,2,180,0,0,0.8528881999991427,['y'],0.5924221000022953,1.754,499.465728500003,,,,,505,20,Man,Right,
,,,,,,,,,,,,,,,,,505,20,Man,Right,0,16,0.4,1,0,-,180,0.3517610999988392,['y'],0.5451981000005617,1.754,502.9661124000013,,,,,505,20,Man,Right,
,,,,,,,,,,,,,,,,,505,20,Man,Right,0,39,0.4,2,180,0,0,0.3896208999976807,['y'],0.6331049000000348,1.754,506.5998939000019,,,,,505,20,Man,Right,
,,,,,,,,,,,,,,,,,505,20,Man,Right,0,47,0.15,2,180,0,0,0.9807512999977916,['y'],0.40123639999728766,1.754,510.4492801000015,,,,,505,20,Man,Right,
,,,,,,,,,,,,,,,,,505,20,Man,Right,0,38,0.4,1,180,-,0,0.8379229999991367,['y'],0.5615230000003066,1.754,514.5003530000031,,,,,505,20,Man,Right,
,,,,,,,,,,,,,,,,,505,20,Man,Right,0,23,0.4,2,180,0,0,0.292264099996828,['y'],0.48925819999931264,1.754,517.5997779000027,,,,,505,20,Man,Right,
,,,,,,,,,,,,,,,,,505,20,Man,Right,0,40,0.4,1,0,-,180,0.9832518000002892,['y'],2.904883700000937,1.422,525.0657667000014,,,,,505,20,Man,Right,
,,,,,,,,,,,,,,,,,505,20,Man,Right,0,0,1,1,0,-,0,1.217069399997854,['n'],1.4492633000008937,1.696,530.400054400001,,,,,505,20,Man,Right,
,,,,,,,,,,,,,,,,,505,20,Man,Right,0,11,0.4,2,180,0,180,0.30857340000147815,['y'],2.67334800000026,1.696,535.8486737000021,,,,,505,20,Man,Right,
,,,,,,,,,,,,,,,,,505,20,Man,Right,0,46,0.15,1,180,-,0,2.076646900000924,['y'],0.9693150000020978,1.4140000000000001,542.3829436000015,,,,,505,20,Man,Right,
,,,,,,,,,,,,,,,,,505,20,Man,Right,0,33,0.4,2,0,180,180,0.8004282999972929,['y'],1.3768055000000459,1.692,547.0822802000002,,,,,505,20,Man,Right,
,,,,,,,,,,,,,,,,,505,20,Man,Right,0,63,0.15,2,180,0,0,0.2827045999983966,['y'],1.3929351000006136,1.686,551.0655552000026,,,,,505,20,Man,Right,
,,,,,,,,,,,,,,,,,505,20,Man,Right,0,15,0.4,2,180,0,0,0.10106829999858746,['y'],0.7615817000005336,1.686,554.2166116000008,,,,,505,20,Man,Right,
,,,,,,,,,,,,,,,,,505,20,Man,Right,0,75,0.15,2,180,0,0,0.5350409999991825,['y'],0.721684500000265,1.686,558.1655477000022,,,,,505,20,Man,Right,
,,,,,,,,,,,,,,,,,505,20,Man,Right,0,62,0.15,1,180,-,0,0.9133527999983926,['y'],0.6656901000023936,1.686,562.1504441000034,,,,,505,20,Man,Right,
,,,,,,,,,,,,,,,,,505,20,Man,Right,0,55,0.15,2,180,0,180,0.6664823999999498,['n'],1.169658900002105,1.248,566.9829680000003,,,,,505,20,Man,Right,
,,,,,,,,,,,,,,,,,505,20,Man,Right,0,61,0.15,2,0,180,180,1.9427254000001994,['y'],0.6891135000005306,1.728,572.483076200002,,,,,505,20,Man,Right,
,,,,,,,,,,,,,,,,,505,20,Man,Right,0,24,0.4,1,0,-,0,0.47845460000098683,['n'],1.5294476000017312,1.71,578.3662781000021,,,,,505,20,Man,Right,
,,,,,,,,,,,,,,,,,505,20,Man,Right,0,32,0.4,1,0,-,0,0.016596299999946496,['y'],1.2334942000015872,1.71,582.3491708000001,,,,,505,20,Man,Right,
,,,,,,,,,,,,,,,,,505,20,Man,Right,0,49,0.15,2,0,180,180,0.7865988999983529,['n'],1.0578396999990218,1.454,587.2492979000017,,,,,505,20,Man,Right,
,,,,,,,,,,,,,,,,,505,20,Man,Right,0,72,0.15,1,0,-,0,1.0940675000019837,['n'],1.3297233000012056,1.506,593.1489150000016,,,,,505,20,Man,Right,
,,,,,,,,,,,,,,,,,505,20,Man,Right,0,41,0.4,2,0,180,180,0.6221168000010948,['y'],0.8899311999994097,1.6560000000000001,597.3009378000024,,,,,505,20,Man,Right,
,,,,,,,,,,,,,,,,,505,20,Man,Right,0,70,0.15,1,180,-,0,0.7771360000006098,['n'],1.5461262999997416,1.346,602.2158358000015,,,,,505,20,Man,Right,
,,,,,,,,,,,,,,,,,505,20,Man,Right,0,37,0.4,2,0,180,180,0.35165780000170344,['y'],0.9375360000012734,1.6400000000000001,606.0995981000015,,,,,505,20,Man,Right,
,,,,,,,,,,,,,,,,,505,20,Man,Right,0,60,0.15,1,0,-,180,0.5394695000031788,['y'],0.8333982999974978,1.6059999999999999,609.7493644000024,,,,,505,20,Man,Right,
,,,,,,,,,,,,,,,,,505,20,Man,Right,0,20,0.4,1,0,-,0,0.657287300000462,['n'],1.8980864999975893,1.638,614.9995481000005,,,,,505,20,Man,Right,
,,,,,,,,,,,,,,,,,505,20,Man,Right,0,29,0.4,2,0,180,180,0.43946390000201063,['y'],0.8899715000006836,1.638,619.149293800001,,,,,505,20,Man,Right,
,,,,,,,,,,,,,,,,,505,20,Man,Right,0,67,0.15,2,180,0,180,0.3360106000000087,['n'],0.9543292000016663,1.37,623.3995533000016,,,,,505,20,Man,Right,
,,,,,,,,,,,,,,,,,505,20,Man,Right,0,10,0.4,1,180,-,180,0.565918899999815,['y'],0.9536089000030188,1.44,627.6652669000032,,,,,505,20,Man,Right,
,,,,,,,,,,,,,,,,,505,20,Man,Right,0,64,0.15,1,0,-,180,1.529956599999423,['n'],0.6343197999995027,1.572,633.4328074000005,,,,,505,20,Man,Right,
,,,,,,,,,,,,,,,,,505,20,Man,Right,0,56,0.15,1,0,-,0,0.35015410000050906,['n'],0.8423018000030424,1.6139999999999999,637.1829728000012,,,,,505,20,Man,Right,
,,,,,,,,,,,,,,,,,505,20,Man,Right,0,19,0.4,2,180,0,0,0.2840148000032059,['y'],1.1377409999986412,1.6059999999999999,641.082729400001,,,,,505,20,Man,Right,
,,,,,,,,,,,,,,,,,505,20,Man,Right,0,52,0.15,1,0,-,0,2.5876255000002857,['n'],0.8503240999998525,1.6059999999999999,647.065238500003,,,,,505,20,Man,Right,
,,,,,,,,,,,,,,,,,505,20,Man,Right,0,27,0.4,2,180,0,0,0.2463705000009213,['y'],0.9063979000020481,1.65,651.149129700003,,,,,505,20,Man,Right,
,,,,,,,,,,,,,,,,,505,20,Man,Right,0,4,1,1,0,-,0,1.2009030000008352,['n'],1.04994440000155,1.634,655.7487352000026,,,,,505,20,Man,Right,
,,,,,,,,,,,,,,,,,505,20,Man,Right,0,6,1,1,180,-,180,0.8248911000009684,['n'],4.338536999999633,1.626,665.5151572000032,,,,,505,20,Man,Right,
,,,,,,,,,,,,,,,,,505,20,Man,Right,0,53,0.15,2,0,180,180,0.6645010000029288,['y'],2.1062648999977682,1.6360000000000001,670.7996463000018,,,,,505,20,Man,Right,
,,,,,,,,,,,,,,,,,505,20,Man,Right,0,42,0.4,1,180,-,180,0.8218642000028922,['n'],0.8342818999990413,1.6400000000000001,675.1327246000001,,,,,505,20,Man,Right,
,,,,,,,,,,,,,,,,,505,20,Man,Right,0,74,0.15,1,180,-,180,0.4495580999973754,['y'],2.5939321000005293,1.6219999999999999,680.531893000003,,,,,505,20,Man,Right,
,,,,,,,,,,,,,,,,,505,20,Man,Right,0,31,0.4,2,180,0,0,0.6735348000001977,['y'],1.2819003000004159,1.658,685.5818501000031,,,,,505,20,Man,Right,
,,,,,,,,,,,,,,,,,505,20,Man,Right,1,68,0.15,1,0,-,0,2.5202046999984304,['n'],1.9464434000001347,1.624,728.5656560000025,68.75,47.5,87.5,,505,20,Man,Right,
,,,,,,,,,,,,,,,,,505,20,Man,Right,1,76,0.15,1,0,-,0,0.6645043999997142,['n'],1.2348443000009866,1.5739999999999998,732.9646836000029,,,,,505,20,Man,Right,
,,,,,,,,,,,,,,,,,505,20,Man,Right,1,24,0.4,1,0,-,0,0.856014500001038,['y'],1.8268134999998438,1.572,738.0481333000025,,,,,505,20,Man,Right,
,,,,,,,,,,,,,,,,,505,20,Man,Right,1,32,0.4,1,0,-,0,0.33064639999793144,['y'],1.3469790000017383,1.57,742.1654781000034,,,,,505,20,Man,Right,
,,,,,,,,,,,,,,,,,505,20,Man,Right,1,30,0.4,1,180,-,180,0.5838162000000011,['n'],0.7791493000004266,1.732,746.6659620999999,,,,,505,20,Man,Right,
,,,,,,,,,,,,,,,,,505,20,Man,Right,1,5,1,2,0,180,180,0.33621259999927133,['y'],0.8344094999993104,1.698,750.7152653000012,,,,,505,20,Man,Right,
,,,,,,,,,,,,,,,,,505,20,Man,Right,1,3,1,2,180,0,0,0.2201937000027101,['y'],0.6835155999979179,1.698,753.9991872999999,,,,,505,20,Man,Right,
,,,,,,,,,,,,,,,,,505,20,Man,Right,1,61,0.15,2,0,180,180,0.43767400000069756,['y'],1.1793594999980996,1.694,757.9988110000013,,,,,505,20,Man,Right,
,,,,,,,,,,,,,,,,,505,20,Man,Right,1,21,0.4,2,0,180,0,0.18207199999960721,['y'],0.696028499998647,1.692,761.881867,,,,,505,20,Man,Right,
,,,,,,,,,,,,,,,,,505,20,Man,Right,1,25,0.4,2,0,180,180,0.5496725000011793,['y'],3.730550199998106,1.708,769.116218500003,,,,,505,20,Man,Right,
,,,,,,,,,,,,,,,,,505,20,Man,Right,1,15,0.4,2,180,0,0,0.7518782999977702,['y'],0.9387650999997277,1.638,773.1480456000027,,,,,505,20,Man,Right,
,,,,,,,,,,,,,,,,,505,20,Man,Right,1,67,0.15,2,180,0,0,0.5862495000001218,['y'],0.8590604999990319,1.6139999999999999,776.8828769000029,,,,,505,20,Man,Right,
,,,,,,,,,,,,,,,,,505,20,Man,Right,1,1,1,2,0,180,180,0.38100549999944633,['y'],0.9231074999988778,1.6560000000000001,781.1145602000033,,,,,505,20,Man,Right,
,,,,,,,,,,,,,,,,,505,20,Man,Right,1,8,0.4,1,0,-,0,1.1873912999981258,['n'],1.0667136000010942,1.646,785.6812006,,,,,505,20,Man,Right,
,,,,,,,,,,,,,,,,,505,20,Man,Right,1,14,0.4,1,180,-,0,0.3195282999986375,['y'],0.8751134000012826,1.638,789.2322359000027,,,,,505,20,Man,Right,
,,,,,,,,,,,,,,,,,505,20,Man,Right,1,2,1,1,180,-,180,0.5218683999992209,['n'],0.8195572000004177,1.638,792.8151021000012,,,,,505,20,Man,Right,
,,,,,,,,,,,,,,,,,505,20,Man,Right,1,70,0.15,1,180,-,0,0.8048337000000174,['y'],0.9952611999979126,1.634,797.3818184000011,,,,,505,20,Man,Right,
,,,,,,,,,,,,,,,,,505,20,Man,Right,1,53,0.15,2,0,180,0,1.7151315999981307,['n'],0.9548327000011341,1.6280000000000001,802.316211100002,,,,,505,20,Man,Right,
,,,,,,,,,,,,,,,,,505,20,Man,Right,1,73,0.15,2,0,180,0,3.065817999999126,['y'],2.1758601000001363,1.5979999999999999,809.9985692000009,,,,,505,20,Man,Right,
,,,,,,,,,,,,,,,,,505,20,Man,Right,1,71,0.15,2,180,0,0,0.692033099996479,['y'],0.9877130999993824,1.6,813.8987168000021,,,,,505,20,Man,Right,
,,,,,,,,,,,,,,,,,505,20,Man,Right,1,48,0.15,1,0,-,0,2.0129242000002705,['y'],0.8755228000009083,1.5859999999999999,819.0480346000004,,,,,505,20,Man,Right,
,,,,,,,,,,,,,,,,,505,20,Man,Right,1,65,0.15,2,0,180,0,0.45067890000063926,['y'],0.9397663999989163,1.5859999999999999,823.0979021000021,,,,,505,20,Man,Right,
,,,,,,,,,,,,,,,,,505,20,Man,Right,1,60,0.15,1,0,-,0,0.29287350000231527,['y'],1.0112515000000712,1.58,826.6147479000028,,,,,505,20,Man,Right,
,,,,,,,,,,,,,,,,,505,20,Man,Right,1,59,0.15,2,180,0,0,0.5984828000000562,['n'],0.8519813000020804,1.58,830.5149789000025,,,,,505,20,Man,Right,
,,,,,,,,,,,,,,,,,505,20,Man,Right,1,18,0.4,1,180,-,0,1.1780522000008204,['y'],0.9479998999995587,1.58,835.0978556000009,,,,,505,20,Man,Right,
,,,,,,,,,,,,,,,,,505,20,Man,Right,1,28,0.4,1,0,-,0,0.3014154000011331,['y'],1.051566099999036,1.5779999999999998,838.616004200001,,,,,505,20,Man,Right,
,,,,,,,,,,,,,,,,,505,20,Man,Right,1,20,0.4,1,0,-,0,0.6640551000018604,['y'],1.5320313000011083,1.5779999999999998,842.9992834000004,,,,,505,20,Man,Right,
,,,,,,,,,,,,,,,,,505,20,Man,Right,1,38,0.4,1,180,-,180,0.5151544000000285,['y'],0.875894500000868,1.5779999999999998,846.6156332999999,,,,,505,20,Man,Right,
,,,,,,,,,,,,,,,,,505,20,Man,Right,1,41,0.4,2,0,180,180,1.299257900001976,['y'],1.3155745000003662,1.6,852.2483534000021,,,,,505,20,Man,Right,
,,,,,,,,,,,,,,,,,505,20,Man,Right,1,22,0.4,1,180,-,180,1.41616090000025,['n'],0.9811010000012175,1.6,852.2483534000021,,,,,505,20,Man,Right,
,,,,,,,,,,,,,,,,,505,20,Man,Right,1,56,0.15,1,0,-,0,0.3402548000012757,['n'],1.1159858999999415,1.6520000000000001,860.631437400003,,,,,505,20,Man,Right,
,,,,,,,,,,,,,,,,,505,20,Man,Right,1,26,0.4,1,180,-,180,0.5728192999995372,['n'],1.2598107000012533,1.6520000000000001,860.631437400003,,,,,505,20,Man,Right,
,,,,,,,,,,,,,,,,,505,20,Man,Right,1,79,0.15,2,180,0,0,0.30815739999889047,['y'],0.9799672000008286,1.67,869.0822429,,,,,505,20,Man,Right,
,,,,,,,,,,,,,,,,,505,20,Man,Right,1,34,0.4,1,180,-,180,0.5664928999976837,['n'],1.4755239000005531,1.654,874.2478415000005,,,,,505,20,Man,Right,
,,,,,,,,,,,,,,,,,505,20,Man,Right,1,44,0.15,1,0,-,0,0.5201594999998633,['y'],1.0356936999996833,1.6320000000000001,879.047759000001,,,,,505,20,Man,Right,
,,,,,,,,,,,,,,,,,505,20,Man,Right,1,31,0.4,2,180,0,0,0.5391860999989149,['y'],0.7881187999992108,1.63,882.7145979000015,,,,,505,20,Man,Right,
,,,,,,,,,,,,,,,,,505,20,Man,Right,1,62,0.15,1,180,-,180,0.29829740000059246,['n'],0.8846666999997979,1.63,886.4645118000008,,,,,505,20,Man,Right,
,,,,,,,,,,,,,,,,,505,20,Man,Right,1,57,0.15,2,0,180,0,0.865944600001967,['y'],1.1958933000023535,1.626,891.4813408000009,,,,,505,20,Man,Right,
,,,,,,,,,,,,,,,,,505,20,Man,Right,1,23,0.4,2,180,0,0,1.9066485000003013,['y'],0.6681222000006528,1.5819999999999999,896.5642359000012,,,,,505,20,Man,Right,
,,,,,,,,,,,,,,,,,505,20,Man,Right,1,17,0.4,2,0,180,180,0.37697509999998147,['y'],0.8281637999971281,1.584,900.3147546,,,,,505,20,Man,Right,
,,,,,,,,,,,,,,,,,505,20,Man,Right,1,69,0.15,2,0,180,0,0.4127431999986584,['y'],1.0119992999971146,1.584,904.3481021000007,,,,,505,20,Man,Right,
,,,,,,,,,,,,,,,,,505,20,Man,Right,1,46,0.15,1,180,-,0,0.9242636000017228,['n'],1.5406313999992562,1.584,909.1320419000003,,,,,505,20,Man,Right,
,,,,,,,,,,,,,,,,,505,20,Man,Right,1,33,0.4,2,0,180,180,0.7652878999979293,['y'],1.0837424999990617,1.662,914.0475914000017,,,,,505,20,Man,Right,
,,,,,,,,,,,,,,,,,505,20,Man,Right,1,50,0.15,1,180,-,0,1.002854300000763,['n'],0.8843539000008604,1.662,914.0475914000017,,,,,505,20,Man,Right,
,,,,,,,,,,,,,,,,,505,20,Man,Right,1,37,0.4,2,0,180,180,0.5574005999988003,['n'],2.9642559999992955,1.6320000000000001,924.3818786000011,,,,,505,20,Man,Right,
,,,,,,,,,,,,,,,,,505,20,Man,Right,1,29,0.4,2,0,180,180,0.332492599998659,['y'],0.8386735999993107,1.63,927.8149028000007,,,,,505,20,Man,Right,
,,,,,,,,,,,,,,,,,505,20,Man,Right,1,39,0.4,2,180,0,0,0.26653730000180076,['y'],0.9321339999987686,1.6179999999999999,931.2815261000032,,,,,505,20,Man,Right,
,,,,,,,,,,,,,,,,,505,20,Man,Right,1,27,0.4,2,180,0,0,0.33571889999802806,['y'],0.7007469999989553,1.6179999999999999,934.4314992,,,,,505,20,Man,Right,
,,,,,,,,,,,,,,,,,505,20,Man,Right,1,74,0.15,1,180,-,180,0.6137005999989924,['y'],0.6210487000025751,1.6179999999999999,938.0650461000005,,,,,505,20,Man,Right,
,,,,,,,,,,,,,,,,,505,20,Man,Right,1,6,1,1,180,-,180,0.465326699999423,['n'],0.7647668000026897,1.6179999999999999,941.4313988000031,,,,,505,20,Man,Right,
,,,,,,,,,,,,,,,,,505,20,Man,Right,1,12,0.4,1,0,-,0,0.4154655999991519,['n'],0.6208757999993395,1.6179999999999999,944.798161900002,,,,,505,20,Man,Right,
,,,,,,,,,,,,,,,,,505,20,Man,Right,1,4,1,1,0,-,0,0.3796946000002208,['n'],1.0049919000011869,1.6179999999999999,948.5474420999999,,,,,505,20,Man,Right,
,,,,,,,,,,,,,,,,,505,20,Man,Right,1,35,0.4,2,180,0,0,0.35342060000039055,['y'],0.8610021000022243,1.6179999999999999,951.9984682000031,,,,,505,20,Man,Right,
,,,,,,,,,,,,,,,,,505,20,Man,Right,1,19,0.4,2,180,0,0,0.3681141999986721,['y'],0.5809198999995715,1.6179999999999999,955.0809176000002,,,,,505,20,Man,Right,
,,,,,,,,,,,,,,,,,505,20,Man,Right,1,45,0.15,2,0,180,180,0.47836629999801517,['n'],1.7649778999984846,1.6179999999999999,959.3483966000022,,,,,505,20,Man,Right,
,,,,,,,,,,,,,,,,,505,20,Man,Right,1,7,1,2,180,0,0,0.25232709999909275,['y'],0.6691399999981513,1.6179999999999999,962.5818239,,,,,505,20,Man,Right,
,,,,,,,,,,,,,,,,,505,20,Man,Right,1,51,0.15,2,180,0,180,0.6815778999989561,['n'],1.221027800002048,1.6179999999999999,966.7483165000012,,,,,505,20,Man,Right,
,,,,,,,,,,,,,,,,,505,20,Man,Right,1,0,1,1,0,-,0,0.6306278999982169,['n'],2.461204600000201,1.6179999999999999,971.9481440000018,,,,,505,20,Man,Right,
,,,,,,,,,,,,,,,,,505,20,Man,Right,1,9,0.4,2,0,180,180,0.4374599999973725,['y'],0.7171011999998882,1.6179999999999999,975.1817837000017,,,,,505,20,Man,Right,
,,,,,,,,,,,,,,,,,505,20,Man,Right,1,66,0.15,1,180,-,180,0.3182081000013568,['n'],0.9004875999999058,1.3900000000000001,978.9979772000006,,,,,505,20,Man,Right,
,,,,,,,,,,,,,,,,,505,20,Man,Right,1,43,0.4,2,180,0,0,1.233505399999558,['y'],1.9252269999997225,1.6059999999999999,984.7821964000032,,,,,505,20,Man,Right,
,,,,,,,,,,,,,,,,,505,20,Man,Right,1,40,0.4,1,0,-,0,0.649399000001722,['n'],0.9011648000014247,1.5779999999999998,988.447554800001,,,,,505,20,Man,Right,
,,,,,,,,,,,,,,,,,505,20,Man,Right,1,47,0.15,2,180,0,0,0.4086064000002807,['y'],1.828682100000151,1.5779999999999998,992.6978522000027,,,,,505,20,Man,Right,
,,,,,,,,,,,,,,,,,505,20,Man,Right,1,49,0.15,2,0,180,0,0.03999239999757265,['y'],1.1093452999994042,1.5779999999999998,995.832375500002,,,,,505,20,Man,Right,
,,,,,,,,,,,,,,,,,505,20,Man,Right,1,10,0.4,1,180,-,180,0.41955180000149994,['n'],0.8292206000005535,1.5779999999999998,995.832375500002,,,,,505,20,Man,Right,
,,,,,,,,,,,,,,,,,505,20,Man,Right,1,42,0.4,1,180,-,180,0.5087428000006184,['n'],0.6847521000017878,1.564,1002.5815454000003,,,,,505,20,Man,Right,
,,,,,,,,,,,,,,,,,505,20,Man,Right,1,55,0.15,2,180,0,180,0.28473640000083833,['n'],0.9732609999991837,1.562,1005.7979630000009,,,,,505,20,Man,Right,
,,,,,,,,,,,,,,,,,505,20,Man,Right,1,13,0.4,2,0,180,180,0.4733188999998674,['y'],1.4446715999984008,1.562,1009.9982848,,,,,505,20,Man,Right,
,,,,,,,,,,,,,,,,,505,20,Man,Right,1,78,0.15,1,180,-,180,0.274732199999562,['y'],1.2855130999996618,1.562,1013.930599000003,,,,,505,20,Man,Right,
,,,,,,,,,,,,,,,,,505,20,Man,Right,1,36,0.4,1,0,-,180,1.3985073000003467,['y'],0.3894745000034163,1.562,1017.814370600001,,,,,505,20,Man,Right,
,,,,,,,,,,,,,,,,,505,20,Man,Right,1,58,0.15,1,180,-,180,0.2120658000021649,['n'],0.8855091000004904,1.562,1020.9471553000003,,,,,505,20,Man,Right,
,,,,,,,,,,,,,,,,,505,20,Man,Right,1,75,0.15,2,180,0,180,0.35436309999931837,['n'],1.1175411000003805,1.562,1024.4644754,,,,,505,20,Man,Right,
,,,,,,,,,,,,,,,,,505,20,Man,Right,1,11,0.4,2,180,0,0,0.5595020000000659,['y'],0.8775688000023365,1.562,1028.0814421000032,,,,,505,20,Man,Right,
,,,,,,,,,,,,,,,,,505,20,Man,Right,1,77,0.15,2,0,180,0,3.6815652000004775,['y'],0.7496175999986008,1.562,1034.4312701000017,,,,,505,20,Man,Right,
,,,,,,,,,,,,,,,,,505,20,Man,Right,1,72,0.15,1,0,-,0,0.8490397000023222,['n'],1.555233800001588,1.562,1039.0975704000011,,,,,505,20,Man,Right,
,,,,,,,,,,,,,,,,,505,20,Man,Right,1,52,0.15,1,0,-,0,1.2962777000029746,['n'],0.7256825000004028,1.562,1043.2981648000023,,,,,505,20,Man,Right,
,,,,,,,,,,,,,,,,,505,20,Man,Right,1,16,0.4,1,0,-,180,0.35487930000090273,['y'],0.9813026999981957,1.562,1043.2981648000023,,,,,505,20,Man,Right,
,,,,,,,,,,,,,,,,,505,20,Man,Right,1,64,0.15,1,0,-,180,0.37683600000309525,['n'],0.8698304999998072,1.56,1049.680911800002,,,,,505,20,Man,Right,
,,,,,,,,,,,,,,,,,505,20,Man,Right,1,63,0.15,2,180,0,0,0.32480349999968894,['y'],1.4619277999991027,1.56,1054.147458200001,,,,,505,20,Man,Right,
,,,,,,,,,,,,,,,,,505,20,Man,Right,1,54,0.15,1,180,-,0,0.18812919999982114,['y'],2.8620343999973556,1.56,1059.7810919000003,,,,,505,20,Man,Right,
,,,,,,,,,,,,,,,,,505,20,Man,Right,2,36,0.4,1,0,-,0,1.5730747999987216,['n'],2.0852087999992364,1.65,1085.0977697000017,75.0,60.0,82.5,,505,20,Man,Right,
,,,,,,,,,,,,,,,,,505,20,Man,Right,2,49,0.15,2,0,180,180,1.0084441999970295,['y'],0.7340622000010626,1.654,1089.0305819000023,,,,,505,20,Man,Right,
,,,,,,,,,,,,,,,,,505,20,Man,Right,2,65,0.15,2,0,180,180,0.5243072999983269,['y'],0.9817328000026464,1.6360000000000001,1093.2807723000005,,,,,505,20,Man,Right,
,,,,,,,,,,,,,,,,,505,20,Man,Right,2,9,0.4,2,0,180,180,0.8082647000010184,['y'],0.7016255999988061,1.62,1096.798047100001,,,,,505,20,Man,Right,
,,,,,,,,,,,,,,,,,505,20,Man,Right,2,2,1,1,180,-,180,0.8461820000011357,['n'],1.0214487999983248,1.592,1100.814237900002,,,,,505,20,Man,Right,
,,,,,,,,,,,,,,,,,505,20,Man,Right,2,41,0.4,2,0,180,180,0.3478252999993856,['y'],0.6693205999981728,1.568,1104.414516500001,,,,,505,20,Man,Right,
,,,,,,,,,,,,,,,,,505,20,Man,Right,2,10,0.4,1,180,-,180,0.46582929999931366,['y'],0.700166700000409,1.568,1108.6974948000025,,,,,505,20,Man,Right,
,,,,,,,,,,,,,,,,,505,20,Man,Right,2,53,0.15,2,0,180,180,0.6929290999978548,['n'],0.7418035000009695,1.562,1112.7983318000006,,,,,505,20,Man,Right,
,,,,,,,,,,,,,,,,,505,20,Man,Right,2,42,0.4,1,180,-,180,0.33842139999978826,['y'],0.918376999998145,1.562,1116.714595100002,,,,,505,20,Man,Right,
,,,,,,,,,,,,,,,,,505,20,Man,Right,2,73,0.15,2,0,180,180,0.5109793999981775,['n'],0.7337708000013663,1.56,1120.0139174000033,,,,,505,20,Man,Right,
,,,,,,,,,,,,,,,,,505,20,Man,Right,2,13,0.4,2,0,180,180,1.1808192000025883,['y'],0.7018005999998422,1.554,1124.4142363000028,,,,,505,20,Man,Right,
,,,,,,,,,,,,,,,,,505,20,Man,Right,2,60,0.15,1,0,-,0,1.6129466999991564,['n'],0.5904998000005435,1.554,1128.6302071999999,,,,,505,20,Man,Right,
,,,,,,,,,,,,,,,,,505,20,Man,Right,2,5,1,2,0,180,180,1.659148799997638,['y'],0.4064178999979049,1.554,1134.9471791000033,,,,,505,20,Man,Right,
,,,,,,,,,,,,,,,,,505,20,Man,Right,2,7,1,2,180,0,0,0.5984597999995458,['y'],0.7577719000000798,1.552,1138.864479400003,,,,,505,20,Man,Right,
,,,,,,,,,,,,,,,,,505,20,Man,Right,2,0,1,1,0,-,0,0.940106800000649,['n'],0.7025333999990835,1.604,1143.2468208000028,,,,,505,20,Man,Right,
,,,,,,,,,,,,,,,,,505,20,Man,Right,2,22,0.4,1,180,-,180,0.6421621999979834,['n'],1.334198299999116,1.5979999999999999,1147.214379500001,,,,,505,20,Man,Right,
,,,,,,,,,,,,,,,,,505,20,Man,Right,2,26,0.4,1,180,-,180,0.7251987000017834,['n'],0.7825257999975292,1.5979999999999999,1150.8801494,,,,,505,20,Man,Right,
,,,,,,,,,,,,,,,,,505,20,Man,Right,2,6,1,1,180,-,180,9.08728119999796,['n'],1.222204599998804,1.592,1163.7145643000003,,,,,505,20,Man,Right,
,,,,,,,,,,,,,,,,,505,20,Man,Right,2,75,0.15,2,180,0,0,0.815955699999904,['n'],1.0236869000000297,1.588,1167.513738900001,,,,,505,20,Man,Right,
,,,,,,,,,,,,,,,,,505,20,Man,Right,2,52,0.15,1,0,-,0,0.19054700000197045,['n'],0.6868259000002581,1.5859999999999999,1170.4807347000024,,,,,505,20,Man,Right,
,,,,,,,,,,,,,,,,,505,20,Man,Right,2,27,0.4,2,180,0,0,0.34196020000308636,['y'],0.8068391000015254,1.5779999999999998,1173.913824000003,,,,,505,20,Man,Right,
,,,,,,,,,,,,,,,,,505,20,Man,Right,2,74,0.15,1,180,-,0,0.01682269999946584,['n'],1.005298700001731,1.572,1176.9814983000033,,,,,505,20,Man,Right,
,,,,,,,,,,,,,,,,,505,20,Man,Right,2,56,0.15,1,0,-,180,0.922083699999348,['y'],0.766169099999388,1.518,1182.2470085000023,,,,,505,20,Man,Right,
,,,,,,,,,,,,,,,,,505,20,Man,Right,2,37,0.4,2,0,180,180,0.39322599999650265,['y'],0.6864628999974229,1.6059999999999999,1185.6990540000006,,,,,505,20,Man,Right,
,,,,,,,,,,,,,,,,,505,20,Man,Right,2,32,0.4,1,0,-,0,0.4745546000012837,['n'],0.7670311000001675,1.5979999999999999,1189.1965376000007,,,,,505,20,Man,Right,
,,,,,,,,,,,,,,,,,505,20,Man,Right,2,12,0.4,1,0,-,0,0.2438481999997748,['n'],0.7185872000009113,1.576,1192.3641995000035,,,,,505,20,Man,Right,
,,,,,,,,,,,,,,,,,505,20,Man,Right,2,23,0.4,2,180,0,0,1.057713900001545,['y'],0.9347181000011915,1.57,1196.697049800001,,,,,505,20,Man,Right,
,,,,,,,,,,,,,,,,,505,20,Man,Right,2,78,0.15,1,180,-,0,0.22312139999849023,['n'],2.7427473999996437,1.568,1201.6969656,,,,,505,20,Man,Right,
,,,,,,,,,,,,,,,,,505,20,Man,Right,2,58,0.15,1,180,-,180,0.8493600999972841,['n'],1.8792126000007556,1.568,1206.8296891000027,,,,,505,20,Man,Right,
,,,,,,,,,,,,,,,,,505,20,Man,Right,2,21,0.4,2,0,180,180,0.3850507999995898,['n'],0.7751351999977487,1.568,1210.6633344000002,,,,,505,20,Man,Right,
,,,,,,,,,,,,,,,,,505,20,Man,Right,2,48,0.15,1,0,-,0,0.2907493999991857,['n'],0.7594103999981598,1.568,1213.7465152000004,,,,,505,20,Man,Right,
,,,,,,,,,,,,,,,,,505,20,Man,Right,2,50,0.15,1,180,-,180,0.38447050000104355,['n'],0.7991331999983231,1.568,1217.280381200002,,,,,505,20,Man,Right,
,,,,,,,,,,,,,,,,,505,20,Man,Right,2,16,0.4,1,0,-,0,1.1673142999970878,['y'],0.7110511999999289,1.568,1221.263433,,,,,505,20,Man,Right,
,,,,,,,,,,,,,,,,,505,20,Man,Right,2,24,0.4,1,0,-,0,2.356763100000535,['y'],0.7991769000000204,1.568,1226.7464328000024,,,,,505,20,Man,Right,
,,,,,,,,,,,,,,,,,505,20,Man,Right,2,79,0.15,2,180,0,0,1.4426703999997699,['n'],0.9270023999997647,1.536,1231.2141999000014,,,,,505,20,Man,Right,
,,,,,,,,,,,,,,,,,505,20,Man,Right,2,39,0.4,2,180,0,0,0.35820590000002994,['y'],1.934804799999256,1.604,1236.214182300002,,,,,505,20,Man,Right,
,,,,,,,,,,,,,,,,,505,20,Man,Right,2,59,0.15,2,180,0,0,0.30099829999744543,['y'],0.8473283999992418,1.5939999999999999,1239.247011000003,,,,,505,20,Man,Right,
,,,,,,,,,,,,,,,,,505,20,Man,Right,2,17,0.4,2,0,180,180,0.5218435999995563,['y'],0.9273348999995505,1.588,1242.8644077000026,,,,,505,20,Man,Right,
,,,,,,,,,,,,,,,,,505,20,Man,Right,2,29,0.4,2,0,180,180,0.5317294999986188,['y'],0.6795165999974415,1.588,1246.0306764000015,,,,,505,20,Man,Right,
,,,,,,,,,,,,,,,,,505,20,Man,Right,2,19,0.4,2,180,0,0,0.2692648999982339,['y'],0.3110034999990603,1.5859999999999999,1248.913408100001,,,,,505,20,Man,Right,
,,,,,,,,,,,,,,,,,505,20,Man,Right,2,54,0.15,1,180,-,180,0.5356023000022105,['y'],1.4233536000028835,1.5859999999999999,1253.014810200002,,,,,505,20,Man,Right,
,,,,,,,,,,,,,,,,,505,20,Man,Right,2,51,0.15,2,180,0,0,0.7475969000006444,['y'],0.5914679999987129,1.5859999999999999,1256.346169200002,,,,,505,20,Man,Right,
,,,,,,,,,,,,,,,,,505,20,Man,Right,2,40,0.4,1,0,-,0,1.1750363999999536,['y'],0.5593350000017381,1.5859999999999999,1260.2798268000006,,,,,505,20,Man,Right,
,,,,,,,,,,,,,,,,,505,20,Man,Right,2,4,1,1,0,-,0,0.2906289000020479,['n'],0.6234439999971073,1.5859999999999999,1265.9300922000002,,,,,505,20,Man,Right,
,,,,,,,,,,,,,,,,,505,20,Man,Right,2,55,0.15,2,180,0,180,1.3653510000003735,['y'],0.8549056999981985,1.568,1270.1637708000017,,,,,505,20,Man,Right,
,,,,,,,,,,,,,,,,,505,20,Man,Right,2,34,0.4,1,180,-,180,0.5994123999989824,['y'],1.6475864999993064,1.568,1274.6316643999999,,,,,505,20,Man,Right,
,,,,,,,,,,,,,,,,,505,20,Man,Right,2,67,0.15,2,180,0,0,0.48247339999943506,['y'],0.7588132000018959,1.568,1277.9468863000002,,,,,505,20,Man,Right,
,,,,,,,,,,,,,,,,,505,20,Man,Right,2,15,0.4,2,180,0,0,0.5989379999991797,['y'],1.20788530000209,1.568,1281.8136217000028,,,,,505,20,Man,Right,
,,,,,,,,,,,,,,,,,505,20,Man,Right,2,1,1,2,0,180,180,0.6010077999999339,['y'],0.7516710000018065,1.568,1285.1966404000013,,,,,505,20,Man,Right,
,,,,,,,,,,,,,,,,,505,20,Man,Right,2,45,0.15,2,0,180,0,0.33247779999874183,['y'],0.8018483000014385,1.568,1288.3800525000006,,,,,505,20,Man,Right,
,,,,,,,,,,,,,,,,,505,20,Man,Right,2,72,0.15,1,0,-,180,0.5843075000011595,['y'],1.0317761000005703,1.568,1292.0962266000024,,,,,505,20,Man,Right,
,,,,,,,,,,,,,,,,,505,20,Man,Right,2,57,0.15,2,0,180,180,0.7057353000018338,['n'],0.8238564000021142,1.568,1295.6307940000006,,,,,505,20,Man,Right,
,,,,,,,,,,,,,,,,,505,20,Man,Right,2,66,0.15,1,180,-,180,0.40947439999945345,['y'],0.7358791999977257,1.568,1298.830461700003,,,,,505,20,Man,Right,
,,,,,,,,,,,,,,,,,505,20,Man,Right,2,71,0.15,2,180,0,0,0.35594570000102976,['y'],0.7919594000013603,1.568,1301.9637658000029,,,,,505,20,Man,Right,
,,,,,,,,,,,,,,,,,505,20,Man,Right,2,63,0.15,2,180,0,180,1.8137635000020964,['y'],2.8719163999994635,1.568,1308.7461468000001,,,,,505,20,Man,Right,
,,,,,,,,,,,,,,,,,505,20,Man,Right,2,30,0.4,1,180,-,180,0.9265494999999646,['n'],0.9679429999996501,1.568,1312.6464231999998,,,,,505,20,Man,Right,
,,,,,,,,,,,,,,,,,505,20,Man,Right,2,77,0.15,2,0,180,0,0.4664502000014181,['y'],0.6720502999996825,1.568,1315.8635213000016,,,,,505,20,Man,Right,
,,,,,,,,,,,,,,,,,505,20,Man,Right,2,38,0.4,1,180,-,180,0.6031288999984099,['n'],0.7599306999982218,1.568,1319.148313200003,,,,,505,20,Man,Right,
,,,,,,,,,,,,,,,,,505,20,Man,Right,2,62,0.15,1,180,-,0,0.6558700999994471,['n'],0.7677652999991551,1.534,1322.513249300002,,,,,505,20,Man,Right,
,,,,,,,,,,,,,,,,,505,20,Man,Right,2,35,0.4,2,180,0,0,1.2948770000002696,['y'],1.1120254999987083,1.562,1327.6961734000033,,,,,505,20,Man,Right,
,,,,,,,,,,,,,,,,,505,20,Man,Right,2,8,0.4,1,0,-,0,0.4088010999985272,['n'],1.2474336000013864,1.55,1331.4802466,,,,,505,20,Man,Right,
,,,,,,,,,,,,,,,,,505,20,Man,Right,2,25,0.4,2,0,180,180,0.731617900000856,['y'],0.6638931999987108,1.544,1335.0307693000032,,,,,505,20,Man,Right,
,,,,,,,,,,,,,,,,,505,20,Man,Right,2,3,1,2,180,0,0,0.629512600000453,['y'],1.400057700000616,1.554,1340.4317296000008,,,,,505,20,Man,Right,
,,,,,,,,,,,,,,,,,505,20,Man,Right,2,76,0.15,1,0,-,0,0.6446409999989555,['n'],1.0162873999979638,1.552,1344.7137637000014,,,,,505,20,Man,Right,
,,,,,,,,,,,,,,,,,505,20,Man,Right,2,44,0.15,1,0,-,0,0.632338700001128,['y'],1.9997526000006474,1.552,1344.7137637000014,,,,,505,20,Man,Right,
,,,,,,,,,,,,,,,,,505,20,Man,Right,2,33,0.4,2,0,180,180,1.4709224999969592,['y'],0.2802292000014859,1.554,1353.6302609000013,,,,,505,20,Man,Right,
,,,,,,,,,,,,,,,,,505,20,Man,Right,2,31,0.4,2,180,0,0,0.2986118999979226,['y'],0.5844081999966875,1.554,1357.0965047999998,,,,,505,20,Man,Right,
,,,,,,,,,,,,,,,,,505,20,Man,Right,2,47,0.15,2,180,0,0,0.4331711000013456,['y'],1.1431622000018251,1.554,1360.7299101000026,,,,,505,20,Man,Right,
,,,,,,,,,,,,,,,,,505,20,Man,Right,2,68,0.15,1,0,-,0,0.2184452000001329,['n'],1.856187500001397,1.5859999999999999,1365.4472829000006,,,,,505,20,Man,Right,
,,,,,,,,,,,,,,,,,505,20,Man,Right,2,43,0.4,2,180,0,0,1.2895766000001458,['y'],1.279341999997996,1.5939999999999999,1370.5963262000005,,,,,505,20,Man,Right,
,,,,,,,,,,,,,,,,,505,20,Man,Right,2,14,0.4,1,180,-,180,0.4317445000015141,['n'],1.6236271999987366,1.564,1375.1962797000015,,,,,505,20,Man,Right,
,,,,,,,,,,,,,,,,,505,20,Man,Right,2,61,0.15,2,0,180,0,0.5122322999995959,['y'],1.0000944000021263,1.56,1378.5637190000016,,,,,505,20,Man,Right,
,,,,,,,,,,,,,,,,,505,20,Man,Right,2,11,0.4,2,180,0,0,0.3042931999989378,['y'],0.8642656000010902,1.556,1382.0136837999999,,,,,505,20,Man,Right,
,,,,,,,,,,,,,,,,,505,20,Man,Right,2,69,0.15,2,0,180,0,0.30237250000209315,['n'],0.9205824000018765,1.55,1385.3463776000026,,,,,505,20,Man,Right,
,,,,,,,,,,,,,,,,,505,20,Man,Right,2,70,0.15,1,180,-,180,0.4293602000034298,['n'],2.0327514999989944,1.564,1390.4959964000009,,,,,505,20,Man,Right,
,,,,,,,,,,,,,,,,,505,20,Man,Right,2,46,0.15,1,180,-,0,0.4579012000031071,['y'],1.3286842000015895,1.564,1390.4959964000009,,,,,505,20,Man,Right,
,,,,,,,,,,,,,,,,,505,20,Man,Right,2,18,0.4,1,180,-,180,0.5720667999994475,['n'],0.8166500000006636,1.564,1398.1801904000022,,,,,505,20,Man,Right,
,,,,,,,,,,,,,,,,,505,20,Man,Right,2,20,0.4,1,0,-,0,0.5107981000001018,['n'],0.6887251000007382,1.564,1401.3462682000027,,,,,505,20,Man,Right,
,,,,,,,,,,,,,,,,,505,20,Man,Right,2,64,0.15,1,0,-,0,0.4231048000001465,['n'],0.7763793000012811,1.56,1404.7965219000034,,,,,505,20,Man,Right,
,,,,,,,,,,,,,,,,,505,20,Man,Right,2,28,0.4,1,0,-,0,0.739301699999487,['n'],0.6561578999971971,1.548,1408.479917800003,,,,,505,20,Man,Right,
,,,,,,,,,,,,,,,,,505,20,Man,Right,3,35,0.4,2,180,0,0,0.4603406999995059,['y'],3.0489535000015167,1.6440000000000001,1435.8628816000019,85.0,70.0,82.5,,505,20,Man,Right,
,,,,,,,,,,,,,,,,,505,20,Man,Right,3,77,0.15,2,0,180,180,1.3497819999975036,['y'],1.3368025999989186,1.63,1441.1136372,,,,,505,20,Man,Right,
,,,,,,,,,,,,,,,,,505,20,Man,Right,3,20,0.4,1,0,-,0,0.3929413999976532,['n'],1.6803650000001653,1.6179999999999999,1446.3287698000022,,,,,505,20,Man,Right,
,,,,,,,,,,,,,,,,,505,20,Man,Right,3,43,0.4,2,180,0,0,0.5747159000020474,['y'],3.55276159999994,1.6099999999999999,1453.013427400001,,,,,505,20,Man,Right,
,,,,,,,,,,,,,,,,,505,20,Man,Right,3,27,0.4,2,180,0,0,0.6225551999996242,['y'],0.9849407999972755,1.5819999999999999,1456.8130206000023,,,,,505,20,Man,Right,
,,,,,,,,,,,,,,,,,505,20,Man,Right,3,68,0.15,1,0,-,0,0.6426740999995673,['y'],1.7691061999976228,1.5819999999999999,1456.8130206000023,,,,,505,20,Man,Right,
,,,,,,,,,,,,,,,,,505,20,Man,Right,3,71,0.15,2,180,0,0,1.2719909000006737,['n'],1.0891245999991952,1.658,1467.112930000003,,,,,505,20,Man,Right,
,,,,,,,,,,,,,,,,,505,20,Man,Right,3,19,0.4,2,180,0,0,6.809779399998661,['n'],0.8173195000017586,1.682,1477.2131633000026,,,,,505,20,Man,Right,
,,,,,,,,,,,,,,,,,505,20,Man,Right,3,49,0.15,2,0,180,0,3.8080330999982834,['y'],0.7686926999995194,1.68,1484.0456769000011,,,,,505,20,Man,Right,
,,,,,,,,,,,,,,,,,505,20,Man,Right,3,32,0.4,1,0,-,0,0.6943568000024243,['y'],0.601634999999078,1.68,1487.9637875000008,,,,,505,20,Man,Right,
,,,,,,,,,,,,,,,,,505,20,Man,Right,3,29,0.4,2,0,180,180,0.7459550000021409,['y'],0.7615261999999348,1.6480000000000001,1491.9461553,,,,,505,20,Man,Right,
,,,,,,,,,,,,,,,,,505,20,Man,Right,3,48,0.15,1,0,-,0,0.655172799997672,['n'],0.8328853999992134,1.6440000000000001,1496.7454158,,,,,505,20,Man,Right,
,,,,,,,,,,,,,,,,,505,20,Man,Right,3,21,0.4,2,0,180,180,0.7749814000017068,['y'],0.42543139999907,1.6440000000000001,1500.1632474000035,,,,,505,20,Man,Right,
,,,,,,,,,,,,,,,,,505,20,Man,Right,3,3,1,2,180,0,0,0.432404499999393,['y'],0.585662699999375,1.6440000000000001,1503.1801900000028,,,,,505,20,Man,Right,
,,,,,,,,,,,,,,,,,505,20,Man,Right,3,39,0.4,2,180,0,0,0.868250800001988,['y'],0.297441799997614,1.6440000000000001,1506.645811800001,,,,,505,20,Man,Right,
,,,,,,,,,,,,,,,,,505,20,Man,Right,3,53,0.15,2,0,180,0,0.461805999999342,['n'],0.8416436000006797,1.642,1510.4789505000008,,,,,505,20,Man,Right,
,,,,,,,,,,,,,,,,,505,20,Man,Right,3,66,0.15,1,180,-,180,0.31807259999914095,['y'],0.7056352999970841,1.642,1513.562249900002,,,,,505,20,Man,Right,
,,,,,,,,,,,,,,,,,505,20,Man,Right,3,34,0.4,1,180,-,180,0.9665023000015935,['n'],0.9778591000031156,1.642,1517.495826800001,,,,,505,20,Man,Right,
,,,,,,,,,,,,,,,,,505,20,Man,Right,3,76,0.15,1,0,-,180,0.8158081000001403,['n'],0.6904050999983156,1.6360000000000001,1520.9791981000017,,,,,505,20,Man,Right,
,,,,,,,,,,,,,,,,,505,20,Man,Right,3,44,0.15,1,0,-,0,0.21592100000270875,['n'],0.6416323999983433,1.6360000000000001,1524.4131555000022,,,,,505,20,Man,Right,
,,,,,,,,,,,,,,,,,505,20,Man,Right,3,72,0.15,1,0,-,0,0.09907050000037998,['n'],0.8498913000003085,1.6360000000000001,1527.3802265000013,,,,,505,20,Man,Right,
,,,,,,,,,,,,,,,,,505,20,Man,Right,3,16,0.4,1,0,-,0,0.11070709999694373,['n'],0.7378392000027816,1.6360000000000001,1530.1797469000012,,,,,505,20,Man,Right,
,,,,,,,,,,,,,,,,,505,20,Man,Right,3,60,0.15,1,0,-,0,0.6521585000009509,['n'],0.601899900000717,1.6360000000000001,1533.4792194000001,,,,,505,20,Man,Right,
,,,,,,,,,,,,,,,,,505,20,Man,Right,3,50,0.15,1,180,-,180,1.1941316000011284,['n'],0.7778502000001026,1.6320000000000001,1537.379959400001,,,,,505,20,Man,Right,
,,,,,,,,,,,,,,,,,505,20,Man,Right,3,8,0.4,1,0,-,0,0.34832290000122157,['y'],1.7699777999987418,1.6320000000000001,1541.5123757000001,,,,,505,20,Man,Right,
,,,,,,,,,,,,,,,,,505,20,Man,Right,3,74,0.15,1,180,-,0,2.2881347999973514,['n'],0.9537918999994872,1.63,1546.7456767000003,,,,,505,20,Man,Right,
,,,,,,,,,,,,,,,,,505,20,Man,Right,3,54,0.15,1,180,-,180,1.2152189999978873,['n'],0.5940852999992785,1.63,1550.5290179000003,,,,,505,20,Man,Right,
,,,,,,,,,,,,,,,,,505,20,Man,Right,3,69,0.15,2,0,180,0,0.42123560000254656,['n'],1.154104000001098,1.63,1554.2964339000027,,,,,505,20,Man,Right,
,,,,,,,,,,,,,,,,,505,20,Man,Right,3,5,1,2,0,180,180,0.7946454000011727,['y'],0.6659784999974363,1.6219999999999999,1558.1624316000016,,,,,505,20,Man,Right,
,,,,,,,,,,,,,,,,,505,20,Man,Right,3,58,0.15,1,180,-,0,0.8332656999991741,['n'],0.6573053000029176,1.588,1562.1122694000005,,,,,505,20,Man,Right,
,,,,,,,,,,,,,,,,,505,20,Man,Right,3,59,0.15,2,180,0,0,0.25610380000216537,['n'],0.8418870999994397,1.588,1565.1796348000025,,,,,505,20,Man,Right,
,,,,,,,,,,,,,,,,,505,20,Man,Right,3,73,0.15,2,0,180,180,0.73394879999978,['y'],0.7140945999999531,1.584,1568.5957032000006,,,,,505,20,Man,Right,
,,,,,,,,,,,,,,,,,505,20,Man,Right,3,18,0.4,1,180,-,0,4.5085781999987375,['n'],1.1538584000008996,1.57,1576.479459000002,,,,,505,20,Man,Right,
,,,,,,,,,,,,,,,,,505,20,Man,Right,3,37,0.4,2,0,180,180,6.203941399999167,['y'],0.7614614000012807,1.552,1585.3953258000001,,,,,505,20,Man,Right,
,,,,,,,,,,,,,,,,,505,20,Man,Right,3,55,0.15,2,180,0,0,0.20678780000162078,['y'],1.2179333999993105,1.5819999999999999,1589.1630619000025,,,,,505,20,Man,Right,
,,,,,,,,,,,,,,,,,505,20,Man,Right,3,45,0.15,2,0,180,0,0.6416642999975011,['y'],0.9374071999991429,1.584,1593.1129951000003,,,,,505,20,Man,Right,
,,,,,,,,,,,,,,,,,505,20,Man,Right,3,6,1,1,180,-,180,0.708177299999079,['n'],1.08958359999815,1.588,1597.1949902000015,,,,,505,20,Man,Right,
,,,,,,,,,,,,,,,,,505,20,Man,Right,3,36,0.4,1,0,-,0,0.543427900000097,['n'],1.4656839000017499,1.57,1601.1457611000005,,,,,505,20,Man,Right,
,,,,,,,,,,,,,,,,,505,20,Man,Right,3,61,0.15,2,0,180,0,0.09403519999978016,['y'],1.1863450999990164,1.58,1604.611685900003,,,,,505,20,Man,Right,
,,,,,,,,,,,,,,,,,505,20,Man,Right,3,23,0.4,2,180,0,180,0.017017300000588875,['y'],0.9655749000012293,1.576,1607.6128769000024,,,,,505,20,Man,Right,
,,,,,,,,,,,,,,,,,505,20,Man,Right,3,26,0.4,1,180,-,180,0.38552680000066175,['y'],0.906533400000626,1.5779999999999998,1611.0290323000008,,,,,505,20,Man,Right,
,,,,,,,,,,,,,,,,,505,20,Man,Right,3,24,0.4,1,0,-,0,0.24541130000216071,['y'],0.7458879000005254,1.5739999999999998,1613.9963934000007,,,,,505,20,Man,Right,
,,,,,,,,,,,,,,,,,505,20,Man,Right,3,12,0.4,1,0,-,0,0.017237100000784267,['y'],0.8761721000009857,1.572,1617.2461118000028,,,,,505,20,Man,Right,
,,,,,,,,,,,,,,,,,505,20,Man,Right,3,22,0.4,1,180,-,180,0.6114427000029536,['n'],1.0025526999997965,1.57,1620.9618283000018,,,,,505,20,Man,Right,
,,,,,,,,,,,,,,,,,505,20,Man,Right,3,79,0.15,2,180,0,0,0.84498099999837,['y'],0.8904889000004914,1.57,1624.7784116000003,,,,,505,20,Man,Right,
,,,,,,,,,,,,,,,,,505,20,Man,Right,3,64,0.15,1,0,-,0,0.20904759999757516,['y'],0.8417958000027284,1.6019999999999999,1627.7289045000034,,,,,505,20,Man,Right,
,,,,,,,,,,,,,,,,,505,20,Man,Right,3,57,0.15,2,0,180,0,0.016582599997491343,['y'],1.009754000002431,1.596,1630.8454399000002,,,,,505,20,Man,Right,
,,,,,,,,,,,,,,,,,505,20,Man,Right,3,70,0.15,1,180,-,180,0.6698023999997531,['n'],1.7535691000011866,1.5819999999999999,1635.2127349000002,,,,,505,20,Man,Right,
,,,,,,,,,,,,,,,,,505,20,Man,Right,3,67,0.15,2,180,0,0,0.6999421000000439,['y'],0.9706073999986984,1.5819999999999999,1638.8947724000027,,,,,505,20,Man,Right,
,,,,,,,,,,,,,,,,,505,20,Man,Right,3,40,0.4,1,0,-,0,0.281684800000221,['y'],0.8507043000026897,1.58,1641.9458556000027,,,,,505,20,Man,Right,
,,,,,,,,,,,,,,,,,505,20,Man,Right,3,28,0.4,1,0,-,0,0.28444650000164984,['y'],0.9144427999999607,1.58,1645.179183100001,,,,,505,20,Man,Right,
,,,,,,,,,,,,,,,,,505,20,Man,Right,3,4,1,1,0,-,0,0.06680109999797423,['n'],0.7827337999988231,1.5779999999999998,1647.944936900003,,,,,505,20,Man,Right,
,,,,,,,,,,,,,,,,,505,20,Man,Right,3,14,0.4,1,180,-,180,0.03861659999893163,['n'],0.8502115000010235,1.57,1650.8458641000034,,,,,505,20,Man,Right,
,,,,,,,,,,,,,,,,,505,20,Man,Right,3,46,0.15,1,180,-,0,0.1903483000023698,['y'],0.7942819999989297,1.562,1653.7117029,,,,,505,20,Man,Right,
,,,,,,,,,,,,,,,,,505,20,Man,Right,3,42,0.4,1,180,-,180,0.30598960000133957,['y'],0.8025345000023663,1.552,1656.7624042000025,,,,,505,20,Man,Right,
,,,,,,,,,,,,,,,,,505,20,Man,Right,3,7,1,2,180,0,0,1.2658590999999433,['y'],0.41743829999904847,1.552,1660.3448080000016,,,,,505,20,Man,Right,
,,,,,,,,,,,,,,,,,505,20,Man,Right,3,11,0.4,2,180,0,0,0.30054569999992964,['y'],0.5791472000018985,1.552,1663.2626407000025,,,,,505,20,Man,Right,
,,,,,,,,,,,,,,,,,505,20,Man,Right,3,13,0.4,2,0,180,180,0.2625103000027593,['y'],0.5862688000015623,1.572,1667.0622393000012,,,,,505,20,Man,Right,
,,,,,,,,,,,,,,,,,505,20,Man,Right,3,30,0.4,1,180,-,180,0.33505659999718773,['y'],0.9383266000004369,1.5859999999999999,1670.3448596000017,,,,,505,20,Man,Right,
,,,,,,,,,,,,,,,,,505,20,Man,Right,3,33,0.4,2,0,180,180,0.2966354999989562,['y'],0.5709092000033706,1.566,1673.1790338000028,,,,,505,20,Man,Right,
,,,,,,,,,,,,,,,,,505,20,Man,Right,3,52,0.15,1,0,-,180,0.28544849999889266,['y'],0.38621929999862914,1.564,1675.9447829000019,,,,,505,20,Man,Right,
,,,,,,,,,,,,,,,,,505,20,Man,Right,3,9,0.4,2,0,180,180,0.3295842999978049,['y'],0.290389599998889,1.56,1678.645900800002,,,,,505,20,Man,Right,
,,,,,,,,,,,,,,,,,505,20,Man,Right,3,56,0.15,1,0,-,180,0.3414142000001448,['n'],1.267120699998486,1.56,1682.1952629000007,,,,,505,20,Man,Right,
,,,,,,,,,,,,,,,,,505,20,Man,Right,3,31,0.4,2,180,0,0,1.6543495999976585,['y'],0.7466334000018833,1.556,1686.628976400003,,,,,505,20,Man,Right,
,,,,,,,,,,,,,,,,,505,20,Man,Right,3,38,0.4,1,180,-,180,5.422902300000715,['y'],1.306704800001171,1.512,1695.2449683000013,,,,,505,20,Man,Right,
,,,,,,,,,,,,,,,,,505,20,Man,Right,3,63,0.15,2,180,0,0,0.30171169999812264,['y'],0.9225936000002548,1.564,1698.361679200003,,,,,505,20,Man,Right,
,,,,,,,,,,,,,,,,,505,20,Man,Right,3,75,0.15,2,180,0,0,0.6458500000007916,['n'],0.666643300002761,1.544,1701.7130729000019,,,,,505,20,Man,Right,
,,,,,,,,,,,,,,,,,505,20,Man,Right,3,2,1,1,180,-,180,0.7526176999999734,['n'],0.5630149999997229,1.542,1705.0625358000034,,,,,505,20,Man,Right,
,,,,,,,,,,,,,,,,,505,20,Man,Right,3,17,0.4,2,0,180,180,2.3405601999984356,['y'],0.2746973000030266,1.536,1709.5449898000006,,,,,505,20,Man,Right,
,,,,,,,,,,,,,,,,,505,20,Man,Right,3,15,0.4,2,180,0,0,1.2294917999970494,['y'],0.643397100000584,1.528,1713.4117646000013,,,,,505,20,Man,Right,
,,,,,,,,,,,,,,,,,505,20,Man,Right,3,25,0.4,2,0,180,180,0.4286649999994552,['y'],0.20274050000080024,1.528,1716.194709700001,,,,,505,20,Man,Right,
,,,,,,,,,,,,,,,,,505,20,Man,Right,3,10,0.4,1,180,-,180,0.45502140000098734,['y'],2.603525200000149,1.572,1721.528250000003,,,,,505,20,Man,Right,
,,,,,,,,,,,,,,,,,505,20,Man,Right,3,1,1,2,0,180,180,0.368708300000435,['y'],0.5867911999994249,1.554,1724.5121432000014,,,,,505,20,Man,Right,
,,,,,,,,,,,,,,,,,505,20,Man,Right,3,41,0.4,2,0,180,180,0.4328929999974207,['y'],0.23521509999773116,1.556,1727.6945219000008,,,,,505,20,Man,Right,
,,,,,,,,,,,,,,,,,505,20,Man,Right,3,78,0.15,1,180,-,180,0.2178771999970195,['n'],0.89878900000258,1.554,1730.9446067000026,,,,,505,20,Man,Right,
,,,,,,,,,,,,,,,,,505,20,Man,Right,3,62,0.15,1,180,-,180,0.9624953999991703,['n'],0.595608199997514,1.554,1734.3953113000025,,,,,505,20,Man,Right,
,,,,,,,,,,,,,,,,,505,20,Man,Right,3,51,0.15,2,180,0,0,0.017216300002473872,['n'],0.544909700001881,1.552,1736.9457495000024,,,,,505,20,Man,Right,
,,,,,,,,,,,,,,,,,505,20,Man,Right,3,65,0.15,2,0,180,0,0.5940607999982603,['n'],0.3794630000011239,1.55,1739.9280162000032,,,,,505,20,Man,Right,
,,,,,,,,,,,,,,,,,505,20,Man,Right,3,0,1,1,0,-,0,0.3304946000025666,['n'],0.5316521000022476,1.55,1742.8284841000022,,,,,505,20,Man,Right,
,,,,,,,,,,,,,,,,,505,20,Man,Right,3,47,0.15,2,180,0,180,0.03666660000089905,['n'],0.5156023999988975,1.55,1746.0447422000034,,,,,505,20,Man,Right,
,,,,,,,,,,,,,,,,,505,20,Man,Right,4,33,0.4,2,0,180,180,1.8161845000031462,['y'],0.6195298000020557,1.7,1768.9625730000007,80.0,60.0,77.5,,505,20,Man,Right,
,,,,,,,,,,,,,,,,,505,20,Man,Right,4,57,0.15,2,0,180,0,0.8707231000007596,['n'],0.7392911999995704,1.666,1772.5622650000005,,,,,505,20,Man,Right,
,,,,,,,,,,,,,,,,,505,20,Man,Right,4,38,0.4,1,180,-,180,0.894515500000125,['n'],0.5560799000013503,1.666,1776.278540700001,,,,,505,20,Man,Right,
,,,,,,,,,,,,,,,,,505,20,Man,Right,4,56,0.15,1,0,-,0,0.36338400000022375,['y'],0.9638288999994984,1.666,1779.8950605999999,,,,,505,20,Man,Right,
,,,,,,,,,,,,,,,,,505,20,Man,Right,4,70,0.15,1,180,-,180,4.910234099999798,['n'],0.9877777000001515,1.642,1787.8940727000008,,,,,505,20,Man,Right,
,,,,,,,,,,,,,,,,,505,20,Man,Right,4,77,0.15,2,0,180,0,0.8843660999991698,['n'],1.34799109999949,1.638,1792.2455868000034,,,,,505,20,Man,Right,
,,,,,,,,,,,,,,,,,505,20,Man,Right,4,73,0.15,2,0,180,0,0.3513965999991342,['y'],1.027459100001579,1.634,1795.4782645000014,,,,,505,20,Man,Right,
,,,,,,,,,,,,,,,,,505,20,Man,Right,4,3,1,2,180,0,0,0.2839968000007502,['y'],0.603515899998456,1.634,1795.4782645000014,,,,,505,20,Man,Right,
,,,,,,,,,,,,,,,,,505,20,Man,Right,4,6,1,1,180,-,180,0.1842505999993591,['n'],0.6841564999995171,1.612,1801.527775800001,,,,,505,20,Man,Right,
,,,,,,,,,,,,,,,,,505,20,Man,Right,4,2,1,1,180,-,180,0.20573630000217236,['n'],0.48415530000056606,1.6099999999999999,1804.2283271000015,,,,,505,20,Man,Right,
,,,,,,,,,,,,,,,,,505,20,Man,Right,4,26,0.4,1,180,-,180,0.1250002000015229,['n'],0.5877115000002959,1.6280000000000001,1807.5626054000022,,,,,505,20,Man,Right,
,,,,,,,,,,,,,,,,,505,20,Man,Right,4,27,0.4,2,180,0,0,0.22582510000211187,['y'],0.6279370000011113,1.6360000000000001,1810.3615078000003,,,,,505,20,Man,Right,
,,,,,,,,,,,,,,,,,505,20,Man,Right,4,30,0.4,1,180,-,180,0.24692850000064936,['n'],0.4602087000021129,1.6360000000000001,1813.0286959000005,,,,,505,20,Man,Right,
,,,,,,,,,,,,,,,,,505,20,Man,Right,4,40,0.4,1,0,-,0,0.1556012999972154,['n'],0.6761007999994035,1.634,1815.9624494000018,,,,,505,20,Man,Right,
,,,,,,,,,,,,,,,,,505,20,Man,Right,4,52,0.15,1,0,-,0,0.2413942000021052,['n'],0.9156103000022995,1.6320000000000001,1819.0115834000026,,,,,505,20,Man,Right,
,,,,,,,,,,,,,,,,,505,20,Man,Right,4,37,0.4,2,0,180,180,0.7999012000000221,['y'],0.19954539999889676,1.6320000000000001,1822.1121583000022,,,,,505,20,Man,Right,
,,,,,,,,,,,,,,,,,505,20,Man,Right,4,16,0.4,1,0,-,0,0.19796320000023115,['n'],0.3004393999981403,1.6320000000000001,1824.7608946,,,,,505,20,Man,Right,
,,,,,,,,,,,,,,,,,505,20,Man,Right,4,65,0.15,2,0,180,0,0.09912500000064028,['n'],0.5274411999998847,1.6320000000000001,1827.3780677000032,,,,,505,20,Man,Right,
,,,,,,,,,,,,,,,,,505,20,Man,Right,4,78,0.15,1,180,-,180,0.3109686999996484,['n'],0.5242714999985765,1.6320000000000001,1830.128303100002,,,,,505,20,Man,Right,
,,,,,,,,,,,,,,,,,505,20,Man,Right,4,41,0.4,2,0,180,180,2.2213745000008203,['y'],1.316492099998868,1.63,1836.0450894000023,,,,,505,20,Man,Right,
,,,,,,,,,,,,,,,,,505,20,Man,Right,4,50,0.15,1,180,-,180,0.8934525999975449,['n'],1.3805324000022665,1.63,1840.4287552000023,,,,,505,20,Man,Right,
,,,,,,,,,,,,,,,,,505,20,Man,Right,4,24,0.4,1,0,-,0,0.26094609999927343,['n'],0.9647766000016418,1.642,1843.6609031000007,,,,,505,20,Man,Right,
,,,,,,,,,,,,,,,,,505,20,Man,Right,4,21,0.4,2,0,180,180,2.324320199997601,['y'],0.3804533000002266,1.642,1848.7275855000007,,,,,505,20,Man,Right,
,,,,,,,,,,,,,,,,,505,20,Man,Right,4,13,0.4,2,0,180,180,0.7856768000019656,['y'],0.5484479999977339,1.642,1852.0608829000012,,,,,505,20,Man,Right,
,,,,,,,,,,,,,,,,,505,20,Man,Right,4,23,0.4,2,180,0,0,0.34793419999914477,['y'],0.6445026000001235,1.642,1855.028576800003,,,,,505,20,Man,Right,
,,,,,,,,,,,,,,,,,505,20,Man,Right,4,51,0.15,2,180,0,180,0.49836929999946733,['n'],1.0845298000022012,1.642,1858.611384900003,,,,,505,20,Man,Right,
,,,,,,,,,,,,,,,,,505,20,Man,Right,4,8,0.4,1,0,-,0,0.3152460000019346,['y'],0.6285755999997491,1.642,1861.5947129000015,,,,,505,20,Man,Right,
,,,,,,,,,,,,,,,,,505,20,Man,Right,4,44,0.15,1,0,-,0,0.07972200000222074,['n'],0.6046137000012095,1.6400000000000001,1864.1613543000021,,,,,505,20,Man,Right,
,,,,,,,,,,,,,,,,,505,20,Man,Right,4,58,0.15,1,180,-,180,0.15140260000043781,['y'],0.6204607999970904,1.6400000000000001,1866.9274988000034,,,,,505,20,Man,Right,
,,,,,,,,,,,,,,,,,505,20,Man,Right,4,48,0.15,1,0,-,0,0.01663149999876623,['n'],0.34981170000173734,1.6400000000000001,1869.2783329000013,,,,,505,20,Man,Right,
,,,,,,,,,,,,,,,,,505,20,Man,Right,4,1,1,2,0,180,180,0.4825825000007171,['n'],0.5326193000000785,1.638,1872.2285912000007,,,,,505,20,Man,Right,
,,,,,,,,,,,,,,,,,505,20,Man,Right,4,36,0.4,1,0,-,0,0.731376799998543,['n'],0.4846183999979985,1.638,1875.427525500003,,,,,505,20,Man,Right,
,,,,,,,,,,,,,,,,,505,20,Man,Right,4,32,0.4,1,0,-,0,0.27028860000064014,['n'],0.5887818000010157,1.638,1878.3778083000034,,,,,505,20,Man,Right,
,,,,,,,,,,,,,,,,,505,20,Man,Right,4,35,0.4,2,180,0,0,0.7278389999992214,['n'],0.6046157000018866,1.624,1881.6281228000007,,,,,505,20,Man,Right,
,,,,,,,,,,,,,,,,,505,20,Man,Right,4,46,0.15,1,180,-,180,0.2700010000007751,['n'],0.30809729999964475,1.6179999999999999,1884.2107158,,,,,505,20,Man,Right,
,,,,,,,,,,,,,,,,,505,20,Man,Right,4,63,0.15,2,180,0,0,1.754266900003131,['y'],0.41218429999935324,1.6179999999999999,1888.2619835000005,,,,,505,20,Man,Right,
,,,,,,,,,,,,,,,,,505,20,Man,Right,4,9,0.4,2,0,180,180,0.7740806999972847,['y'],0.5078384000007645,1.616,1891.4778109,,,,,505,20,Man,Right,
,,,,,,,,,,,,,,,,,505,20,Man,Right,4,64,0.15,1,0,-,0,0.6837849000003189,['n'],0.5487730000022566,1.616,1894.6281497000018,,,,,505,20,Man,Right,
,,,,,,,,,,,,,,,,,505,20,Man,Right,4,47,0.15,2,180,0,0,0.028418199999578064,['n'],0.5249444000000949,1.6139999999999999,1897.1782955000017,,,,,505,20,Man,Right,
,,,,,,,,,,,,,,,,,505,20,Man,Right,4,79,0.15,2,180,0,0,0.386220600001252,['n'],0.5166491000018141,1.6139999999999999,1899.9611009,,,,,505,20,Man,Right,
,,,,,,,,,,,,,,,,,505,20,Man,Right,4,60,0.15,1,0,-,180,0.6147031000000425,['n'],0.24496540000109235,1.6139999999999999,1902.7942527000014,,,,,505,20,Man,Right,
,,,,,,,,,,,,,,,,,505,20,Man,Right,4,14,0.4,1,180,-,180,0.06983169999875827,['y'],0.6929966999996395,1.6139999999999999,1905.5455867000019,,,,,505,20,Man,Right,
,,,,,,,,,,,,,,,,,505,20,Man,Right,4,62,0.15,1,180,-,0,0.40236519999962184,['n'],0.540928200000053,1.6139999999999999,1908.3780829000025,,,,,505,20,Man,Right,
,,,,,,,,,,,,,,,,,505,20,Man,Right,4,5,1,2,0,180,180,0.47255910000239965,['y'],0.6849608999982593,1.6139999999999999,1911.5111141000016,,,,,505,20,Man,Right,
,,,,,,,,,,,,,,,,,505,20,Man,Right,4,74,0.15,1,180,-,180,0.7085651999987022,['n'],0.5969566999992821,1.6139999999999999,1914.661554000002,,,,,505,20,Man,Right,
,,,,,,,,,,,,,,,,,505,20,Man,Right,4,67,0.15,2,180,0,180,0.22759380000206875,['y'],0.14128530000016326,1.6139999999999999,1917.0439023,,,,,505,20,Man,Right,
,,,,,,,,,,,,,,,,,505,20,Man,Right,4,19,0.4,2,180,0,180,0.037822199999936856,['y'],0.7489614999976766,1.6139999999999999,1919.8777711000002,,,,,505,20,Man,Right,
,,,,,,,,,,,,,,,,,505,20,Man,Right,4,45,0.15,2,0,180,0,0.5225456000007398,['n'],0.468960900001548,1.6139999999999999,1922.844749900003,,,,,505,20,Man,Right,
,,,,,,,,,,,,,,,,,505,20,Man,Right,4,25,0.4,2,0,180,180,0.36251700000138953,['y'],0.5330831999999646,1.6139999999999999,1925.7444993000026,,,,,505,20,Man,Right,
,,,,,,,,,,,,,,,,,505,20,Man,Right,4,68,0.15,1,0,-,0,0.4895150999982434,['n'],0.4931443000023137,1.6139999999999999,1928.6616869000027,,,,,505,20,Man,Right,
,,,,,,,,,,,,,,,,,505,20,Man,Right,4,22,0.4,1,180,-,180,0.016828600000735605,['n'],0.529171200003475,1.6139999999999999,1931.1121927000022,,,,,505,20,Man,Right,
,,,,,,,,,,,,,,,,,505,20,Man,Right,4,15,0.4,2,180,0,0,0.4495406999994884,['y'],0.6130295000002661,1.6139999999999999,1931.1121927000022,,,,,505,20,Man,Right,
,,,,,,,,,,,,,,,,,505,20,Man,Right,4,11,0.4,2,180,0,180,1.2818656999988889,['y'],1.4052728999995452,1.6139999999999999,1938.8281246000006,,,,,505,20,Man,Right,
,,,,,,,,,,,,,,,,,505,20,Man,Right,4,28,0.4,1,0,-,0,1.1333135999993829,['y'],0.9125227000004088,1.6139999999999999,1938.8281246000006,,,,,505,20,Man,Right,
,,,,,,,,,,,,,,,,,505,20,Man,Right,4,29,0.4,2,0,180,180,1.307264099999884,['y'],0.26120190000074217,1.6139999999999999,1946.2440696000012,,,,,505,20,Man,Right,
,,,,,,,,,,,,,,,,,505,20,Man,Right,4,61,0.15,2,0,180,0,0.11084399999890593,['n'],0.5893191999966803,1.6139999999999999,1948.8272214000026,,,,,505,20,Man,Right,
,,,,,,,,,,,,,,,,,505,20,Man,Right,4,39,0.4,2,180,0,0,0.1753850000022794,['n'],0.5412918999973044,1.6139999999999999,1951.4275880000023,,,,,505,20,Man,Right,
,,,,,,,,,,,,,,,,,505,20,Man,Right,4,42,0.4,1,180,-,180,0.3354378000003635,['y'],0.5415035000005446,1.6139999999999999,1954.1616437000012,,,,,505,20,Man,Right,
,,,,,,,,,,,,,,,,,505,20,Man,Right,4,59,0.15,2,180,0,180,0.1366721000013058,['n'],0.42932000000291737,1.6139999999999999,1956.677845600003,,,,,505,20,Man,Right,
,,,,,,,,,,,,,,,,,505,20,Man,Right,4,53,0.15,2,0,180,0,0.030157400000462076,['n'],0.2612318999999843,1.6139999999999999,1959.1277666000024,,,,,505,20,Man,Right,
,,,,,,,,,,,,,,,,,505,20,Man,Right,4,10,0.4,1,180,-,180,0.26578950000111945,['n'],0.27810000000317814,1.6139999999999999,1961.8452801000021,,,,,505,20,Man,Right,
,,,,,,,,,,,,,,,,,505,20,Man,Right,4,0,1,1,0,-,0,0.39003930000035325,['y'],0.6055756999994628,1.6139999999999999,1964.7115704000025,,,,,505,20,Man,Right,
,,,,,,,,,,,,,,,,,505,20,Man,Right,4,66,0.15,1,180,-,180,0.15404510000007576,['n'],0.3893901999981608,1.6139999999999999,1967.2285564000013,,,,,505,20,Man,Right,
,,,,,,,,,,,,,,,,,505,20,Man,Right,4,71,0.15,2,180,0,0,0.2723155999992741,['n'],0.28545149999990826,1.6139999999999999,1969.911422600002,,,,,505,20,Man,Right,
,,,,,,,,,,,,,,,,,505,20,Man,Right,4,49,0.15,2,0,180,180,0.39117199999964214,['n'],0.5335655999988376,1.6139999999999999,1972.8445579,,,,,505,20,Man,Right,
,,,,,,,,,,,,,,,,,505,20,Man,Right,4,20,0.4,1,0,-,0,0.5576976999982435,['n'],0.3413841000001412,1.6139999999999999,1975.8445378000033,,,,,505,20,Man,Right,
,,,,,,,,,,,,,,,,,505,20,Man,Right,4,72,0.15,1,0,-,180,0.1666384999989532,['n'],0.2456233999982942,1.6139999999999999,1978.3952046000013,,,,,505,20,Man,Right,
,,,,,,,,,,,,,,,,,505,20,Man,Right,4,69,0.15,2,0,180,0,1.1388254999983474,['n'],0.47746969999934663,1.6139999999999999,1982.5440296000015,,,,,505,20,Man,Right,
,,,,,,,,,,,,,,,,,505,20,Man,Right,4,31,0.4,2,180,0,180,0.01700680000067223,['n'],0.6868501999997534,1.612,1985.1107207000023,,,,,505,20,Man,Right,
,,,,,,,,,,,,,,,,,505,20,Man,Right,4,54,0.15,1,180,-,180,1.1386595999974816,['n'],0.7975149000012607,1.612,1988.9781465000015,,,,,505,20,Man,Right,
,,,,,,,,,,,,,,,,,505,20,Man,Right,4,7,1,2,180,0,0,0.4747639999986859,['y'],0.6376458999984607,1.612,1991.9784577000028,,,,,505,20,Man,Right,
,,,,,,,,,,,,,,,,,505,20,Man,Right,4,43,0.4,2,180,0,0,0.6727336000003561,['y'],0.42167569999946863,1.612,1991.9784577000028,,,,,505,20,Man,Right,
,,,,,,,,,,,,,,,,,505,20,Man,Right,4,55,0.15,2,180,0,180,0.5843714000002365,['y'],0.4698878999988665,1.612,1998.9439047000014,,,,,505,20,Man,Right,
,,,,,,,,,,,,,,,,,505,20,Man,Right,4,34,0.4,1,180,-,180,0.3166574999995646,['n'],0.5780304999971122,1.612,2001.8444055,,,,,505,20,Man,Right,
,,,,,,,,,,,,,,,,,505,20,Man,Right,4,4,1,1,0,-,0,0.46310389999780455,['n'],0.43771790000027977,1.612,2001.8444055,,,,,505,20,Man,Right,
,,,,,,,,,,,,,,,,,505,20,Man,Right,4,76,0.15,1,0,-,0,0.04863459999978659,['n'],0.41291260000070906,1.612,2007.0438526000034,,,,,505,20,Man,Right,
,,,,,,,,,,,,,,,,,505,20,Man,Right,4,12,0.4,1,0,-,0,0.19954909999796655,['n'],0.21380710000084946,1.612,2009.626665300002,,,,,505,20,Man,Right,
,,,,,,,,,,,,,,,,,505,20,Man,Right,4,17,0.4,2,0,180,180,0.8647816000011517,['y'],0.4061337999992247,1.612,2012.9610785000004,,,,,505,20,Man,Right,
,,,,,,,,,,,,,,,,,505,20,Man,Right,4,18,0.4,1,180,-,180,0.1052994999990915,['y'],0.3577858999997261,1.612,2015.378259600002,,,,,505,20,Man,Right,
,,,,,,,,,,,,,,,,,505,20,Man,Right,4,75,0.15,2,180,0,180,0.3936178000003565,['y'],1.054068899997219,1.612,2015.378259600002,,,,,505,20,Man,Right,
,,,,,,,,,,,,,,,,,505,20,Man,Right,5,16,0.4,1,0,-,0,0.016579199997067917,['n'],2.1896005000016885,1.6320000000000001,2031.4779350000026,76.25,80.0,57.5,,505,20,Man,Right,
,,,,,,,,,,,,,,,,,505,20,Man,Right,5,15,0.4,2,180,0,0,1.0701460000018415,['y'],0.7015714000008302,1.6219999999999999,2035.6945038000013,,,,,505,20,Man,Right,
,,,,,,,,,,,,,,,,,505,20,Man,Right,5,11,0.4,2,180,0,0,0.38878720000138856,['y'],0.5255273000002489,1.6099999999999999,2038.5451059000006,,,,,505,20,Man,Right,
,,,,,,,,,,,,,,,,,505,20,Man,Right,5,21,0.4,2,0,180,180,0.513381600001594,['y'],0.2856294000011985,1.608,2041.3606730000029,,,,,505,20,Man,Right,
,,,,,,,,,,,,,,,,,505,20,Man,Right,5,73,0.15,2,0,180,180,1.2649993000013637,['y'],0.16602579999744194,1.6099999999999999,2045.4610397000033,,,,,505,20,Man,Right,
,,,,,,,,,,,,,,,,,505,20,Man,Right,5,59,0.15,2,180,0,0,0.32573540000157664,['n'],0.8054119000007631,1.6099999999999999,2048.7776452,,,,,505,20,Man,Right,
,,,,,,,,,,,,,,,,,505,20,Man,Right,5,13,0.4,2,0,180,180,0.6478368000025512,['y'],0.21395330000086688,1.6059999999999999,2051.710047200002,,,,,505,20,Man,Right,
,,,,,,,,,,,,,,,,,505,20,Man,Right,5,28,0.4,1,0,-,0,0.3814652000000933,['n'],0.55768149999858,1.604,2054.510168500001,,,,,505,20,Man,Right,
,,,,,,,,,,,,,,,,,505,20,Man,Right,5,67,0.15,2,180,0,0,0.29728199999954086,['n'],0.5501581999997143,1.612,2058.0941477000015,,,,,505,20,Man,Right,
,,,,,,,,,,,,,,,,,505,20,Man,Right,5,48,0.15,1,0,-,0,0.5007465999988199,['n'],0.542098600002646,1.6019999999999999,2061.0601288000034,,,,,505,20,Man,Right,
,,,,,,,,,,,,,,,,,505,20,Man,Right,5,7,1,2,180,0,0,0.2924074999973527,['y'],0.5902979999991658,1.6019999999999999,2063.893876500002,,,,,505,20,Man,Right,
,,,,,,,,,,,,,,,,,505,20,Man,Right,5,53,0.15,2,0,180,180,0.39907639999728417,['n'],0.5775291999998444,1.6019999999999999,2066.861020100001,,,,,505,20,Man,Right,
,,,,,,,,,,,,,,,,,505,20,Man,Right,5,65,0.15,2,0,180,0,0.4612129000015557,['n'],0.2857640000001993,1.6179999999999999,2070.161330400002,,,,,505,20,Man,Right,
,,,,,,,,,,,,,,,,,505,20,Man,Right,5,70,0.15,1,180,-,0,0.15519399999902816,['n'],0.49404579999827547,1.6099999999999999,2072.8267663000006,,,,,505,20,Man,Right,
,,,,,,,,,,,,,,,,,505,20,Man,Right,5,10,0.4,1,180,-,180,0.5731171000006725,['n'],0.42219219999969937,1.6179999999999999,2076.293808300001,,,,,505,20,Man,Right,
,,,,,,,,,,,,,,,,,505,20,Man,Right,5,18,0.4,1,180,-,180,0.4696914999985893,['n'],0.26208390000101645,1.6219999999999999,2078.9601114000034,,,,,505,20,Man,Right,
,,,,,,,,,,,,,,,,,505,20,Man,Right,5,74,0.15,1,180,-,180,0.9862876000006509,['n'],1.286522700000205,1.6280000000000001,2083.5112068000017,,,,,505,20,Man,Right,
,,,,,,,,,,,,,,,,,505,20,Man,Right,5,25,0.4,2,0,180,180,0.8252085999993142,['n'],1.238582599999063,1.6360000000000001,2087.977124300003,,,,,505,20,Man,Right,
,,,,,,,,,,,,,,,,,505,20,Man,Right,5,32,0.4,1,0,-,0,0.4972011999998358,['y'],1.0145209999973304,1.6360000000000001,2087.977124300003,,,,,505,20,Man,Right,
,,,,,,,,,,,,,,,,,505,20,Man,Right,5,29,0.4,2,0,180,180,1.1885689000009734,['y'],0.574425800001336,1.6360000000000001,2095.4269023000015,,,,,505,20,Man,Right,
,,,,,,,,,,,,,,,,,505,20,Man,Right,5,78,0.15,1,180,-,180,0.7963960000015504,['n'],1.006627999999182,1.6320000000000001,2099.2107620000024,,,,,505,20,Man,Right,
,,,,,,,,,,,,,,,,,505,20,Man,Right,5,33,0.4,2,0,180,180,1.1879105999978492,['y'],1.0782851000003575,1.642,2103.560029,,,,,505,20,Man,Right,
,,,,,,,,,,,,,,,,,505,20,Man,Right,5,69,0.15,2,0,180,180,0.6957141999992018,['y'],0.4228556000016397,1.642,2106.9607999,,,,,505,20,Man,Right,
,,,,,,,,,,,,,,,,,505,20,Man,Right,5,35,0.4,2,180,0,0,0.38251189999937196,['y'],0.3987491999978374,1.642,2110.177552500001,,,,,505,20,Man,Right,
,,,,,,,,,,,,,,,,,505,20,Man,Right,5,71,0.15,2,180,0,0,0.8952098000008846,['y'],0.23067619999710587,1.642,2113.2770843,,,,,505,20,Man,Right,
,,,,,,,,,,,,,,,,,505,20,Man,Right,5,42,0.4,1,180,-,180,0.4524520000013581,['y'],0.24665409999943222,1.642,2116.0943568000002,,,,,505,20,Man,Right,
,,,,,,,,,,,,,,,,,505,20,Man,Right,5,0,1,1,0,-,0,1.122782800001005,['n'],0.19855610000013257,1.642,2119.376680100002,,,,,505,20,Man,Right,
,,,,,,,,,,,,,,,,,505,20,Man,Right,5,34,0.4,1,180,-,180,0.9657968999999866,['y'],0.1607399999993504,1.642,2122.644999400003,,,,,505,20,Man,Right,
,,,,,,,,,,,,,,,,,505,20,Man,Right,5,62,0.15,1,180,-,180,0.6325217999983579,['n'],0.7095326000016939,1.642,2125.8439502,,,,,505,20,Man,Right,
,,,,,,,,,,,,,,,,,505,20,Man,Right,5,61,0.15,2,0,180,0,0.7179154999976163,['n'],0.5108427999984997,1.642,2128.977515100003,,,,,505,20,Man,Right,
,,,,,,,,,,,,,,,,,505,20,Man,Right,5,31,0.4,2,180,0,0,0.3920447000018612,['n'],0.4948253000002296,1.642,2131.7937087000028,,,,,505,20,Man,Right,
,,,,,,,,,,,,,,,,,505,20,Man,Right,5,77,0.15,2,0,180,0,0.624734900000476,['n'],0.2388271000017994,1.6400000000000001,2134.6609486000016,,,,,505,20,Man,Right,
,,,,,,,,,,,,,,,,,505,20,Man,Right,5,38,0.4,1,180,-,180,2.87798230000044,['n'],0.2469013999980234,1.6400000000000001,2139.660843200003,,,,,505,20,Man,Right,
,,,,,,,,,,,,,,,,,505,20,Man,Right,5,26,0.4,1,180,-,180,0.8865292999980738,['n'],0.1662761000006867,1.638,2142.5947148000014,,,,,505,20,Man,Right,
,,,,,,,,,,,,,,,,,505,20,Man,Right,5,79,0.15,2,180,0,180,0.5414665999996942,['n'],0.15082890000121552,1.638,2145.510987400001,,,,,505,20,Man,Right,
,,,,,,,,,,,,,,,,,505,20,Man,Right,5,23,0.4,2,180,0,0,2.273946099998284,['n'],0.5990125999996962,1.638,2150.6602595000004,,,,,505,20,Man,Right,
,,,,,,,,,,,,,,,,,505,20,Man,Right,5,36,0.4,1,0,-,0,0.7040491000007023,['n'],0.5031057000014698,1.638,2153.7931605000012,,,,,505,20,Man,Right,
,,,,,,,,,,,,,,,,,505,20,Man,Right,5,41,0.4,2,0,180,0,0.017714699999487493,['n'],0.5258298000007926,1.634,2156.294141000002,,,,,505,20,Man,Right,
,,,,,,,,,,,,,,,,,505,20,Man,Right,5,20,0.4,1,0,-,0,0.17397859999982757,['n'],0.3350477999993018,1.634,2156.294141000002,,,,,505,20,Man,Right,
,,,,,,,,,,,,,,,,,505,20,Man,Right,5,52,0.15,1,0,-,180,0.834785600000032,['n'],0.1430703000005451,1.634,2162.1100221000015,,,,,505,20,Man,Right,
,,,,,,,,,,,,,,,,,505,20,Man,Right,5,5,1,2,0,180,180,0.44503830000030575,['y'],0.7510002999988501,1.634,2165.3783863000026,,,,,505,20,Man,Right,
,,,,,,,,,,,,,,,,,505,20,Man,Right,5,2,1,1,180,-,180,0.6171471000016027,['n'],0.5351909999990312,1.634,2168.544092,,,,,505,20,Man,Right,
,,,,,,,,,,,,,,,,,505,20,Man,Right,5,47,0.15,2,180,0,0,0.4740721999987727,['n'],0.3351765000006708,1.634,2171.3761938000025,,,,,505,20,Man,Right,
,,,,,,,,,,,,,,,,,505,20,Man,Right,5,49,0.15,2,0,180,180,1.0731057999983022,['y'],0.20721929999854183,1.634,2174.6103090000033,,,,,505,20,Man,Right,
,,,,,,,,,,,,,,,,,505,20,Man,Right,5,3,1,2,180,0,0,0.5420092999993358,['y'],0.5514070999997784,1.634,2177.6937295000025,,,,,505,20,Man,Right,
,,,,,,,,,,,,,,,,,505,20,Man,Right,5,30,0.4,1,180,-,180,0.7637289999984205,['n'],0.5592231000009633,1.634,2180.9774278000004,,,,,505,20,Man,Right,
,,,,,,,,,,,,,,,,,505,20,Man,Right,5,22,0.4,1,180,-,180,0.6657148000012967,['y'],0.1414928999984113,1.634,2183.726652100002,,,,,505,20,Man,Right,
,,,,,,,,,,,,,,,,,505,20,Man,Right,5,55,0.15,2,180,0,0,0.5325296000009985,['n'],2.1729068999993615,1.634,2183.726652100002,,,,,505,20,Man,Right,
,,,,,,,,,,,,,,,,,505,20,Man,Right,5,12,0.4,1,0,-,0,0.5625666000014462,['n'],0.23934830000143847,1.634,2191.077696200002,,,,,505,20,Man,Right,
,,,,,,,,,,,,,,,,,505,20,Man,Right,5,51,0.15,2,180,0,180,0.28043040000193287,['n'],0.6073141000015312,1.634,2194.1263715000023,,,,,505,20,Man,Right,
,,,,,,,,,,,,,,,,,505,20,Man,Right,5,14,0.4,1,180,-,180,0.6095107000001008,['y'],0.40738950000013574,1.634,2197.126479800001,,,,,505,20,Man,Right,
,,,,,,,,,,,,,,,,,505,20,Man,Right,5,68,0.15,1,0,-,180,0.786166999998386,['n'],0.5354748999998264,1.634,2200.3763511000034,,,,,505,20,Man,Right,
,,,,,,,,,,,,,,,,,505,20,Man,Right,5,66,0.15,1,180,-,180,0.8214345000014873,['n'],0.4474633999998332,1.634,2203.676322500003,,,,,505,20,Man,Right,
,,,,,,,,,,,,,,,,,505,20,Man,Right,5,56,0.15,1,0,-,0,0.43643949999750475,['n'],0.30345630000010715,1.634,2206.343208800001,,,,,505,20,Man,Right,
,,,,,,,,,,,,,,,,,505,20,Man,Right,5,64,0.15,1,0,-,0,0.377907399997639,['n'],0.2074227000011888,1.634,2209.426313900003,,,,,505,20,Man,Right,
,,,,,,,,,,,,,,,,,505,20,Man,Right,5,75,0.15,2,180,0,0,0.3435148000025947,['n'],0.6633856999978889,1.634,2212.4107674000006,,,,,505,20,Man,Right,
,,,,,,,,,,,,,,,,,505,20,Man,Right,5,24,0.4,1,0,-,180,0.5591241000001901,['n'],1.103505299997778,1.634,2215.995058200002,,,,,505,20,Man,Right,
,,,,,,,,,,,,,,,,,505,20,Man,Right,5,63,0.15,2,180,0,180,0.01681099999768776,['n'],0.33494810000047437,1.634,2218.2603820000004,,,,,505,20,Man,Right,
,,,,,,,,,,,,,,,,,505,20,Man,Right,5,19,0.4,2,180,0,180,0.017539700002089376,['n'],0.4096657000009145,1.634,2220.7264811000023,,,,,505,20,Man,Right,
,,,,,,,,,,,,,,,,,505,20,Man,Right,5,44,0.15,1,0,-,180,0.37921060000007856,['n'],0.8076787999998487,1.634,2220.7264811000023,,,,,505,20,Man,Right,
,,,,,,,,,,,,,,,,,505,20,Man,Right,5,27,0.4,2,180,0,0,0.27913469999839435,['y'],1.439853399999265,1.634,2227.5110532,,,,,505,20,Man,Right,
,,,,,,,,,,,,,,,,,505,20,Man,Right,5,9,0.4,2,0,180,180,0.9333924000020488,['y'],0.23157390000051237,1.634,2230.592888500003,,,,,505,20,Man,Right,
,,,,,,,,,,,,,,,,,505,20,Man,Right,5,4,1,1,0,-,0,0.5602752000013425,['n'],0.18396709999797167,1.634,2233.277559000002,,,,,505,20,Man,Right,
,,,,,,,,,,,,,,,,,505,20,Man,Right,5,46,0.15,1,180,-,180,0.43610550000084913,['n'],0.3757850000001781,1.634,2236.0601260000003,,,,,505,20,Man,Right,
,,,,,,,,,,,,,,,,,505,20,Man,Right,5,54,0.15,1,180,-,180,2.0156501999990724,['n'],0.551720600000408,1.634,2236.0601260000003,,,,,505,20,Man,Right,
,,,,,,,,,,,,,,,,,505,20,Man,Right,5,1,1,2,0,180,180,0.6833932999979879,['n'],0.31431890000021667,1.634,2243.659379300003,,,,,505,20,Man,Right,
,,,,,,,,,,,,,,,,,505,20,Man,Right,5,6,1,1,180,-,180,0.4654482000005373,['n'],0.2522906999984116,1.634,2243.659379300003,,,,,505,20,Man,Right,
,,,,,,,,,,,,,,,,,505,20,Man,Right,5,50,0.15,1,180,-,180,0.02719730000171694,['n'],0.271847500000149,1.634,2248.8273034000013,,,,,505,20,Man,Right,
,,,,,,,,,,,,,,,,,505,20,Man,Right,5,57,0.15,2,0,180,0,0.016649799999868264,['n'],0.21422659999734606,1.634,2251.109265400002,,,,,505,20,Man,Right,
,,,,,,,,,,,,,,,,,505,20,Man,Right,5,58,0.15,1,180,-,0,1.8302967000017816,['n'],0.24780930000270018,1.6280000000000001,2255.276603600003,,,,,505,20,Man,Right,
,,,,,,,,,,,,,,,,,505,20,Man,Right,5,76,0.15,1,0,-,0,0.396998899999744,['n'],0.21572359999845503,1.6280000000000001,2258.044564300002,,,,,505,20,Man,Right,
,,,,,,,,,,,,,,,,,505,20,Man,Right,5,37,0.4,2,0,180,180,0.4161310000017693,['n'],0.14189679999981308,1.6280000000000001,2260.710539800002,,,,,505,20,Man,Right,
,,,,,,,,,,,,,,,,,505,20,Man,Right,5,60,0.15,1,0,-,0,0.13321100000030128,['n'],0.28784430000087013,1.6280000000000001,2263.0939878000027,,,,,505,20,Man,Right,
,,,,,,,,,,,,,,,,,505,20,Man,Right,5,17,0.4,2,0,180,180,0.36577889999898616,['n'],0.18358559999978752,1.6280000000000001,2265.810633600002,,,,,505,20,Man,Right,
,,,,,,,,,,,,,,,,,505,20,Man,Right,5,43,0.4,2,180,0,0,0.5115372999971441,['n'],1.6800292000007175,1.6280000000000001,2269.993851700001,,,,,505,20,Man,Right,
,,,,,,,,,,,,,,,,,505,20,Man,Right,5,8,0.4,1,0,-,0,0.5532227000003331,['n'],1.9921959999992396,1.6280000000000001,2269.993851700001,,,,,505,20,Man,Right,
,,,,,,,,,,,,,,,,,505,20,Man,Right,5,40,0.4,1,0,-,0,1.1997746000015468,['n'],0.5519901000006939,1.6280000000000001,2278.4104314000033,,,,,505,20,Man,Right,
,,,,,,,,,,,,,,,,,505,20,Man,Right,5,39,0.4,2,180,0,180,1.726761500001885,['y'],0.8797745999981998,1.5939999999999999,2282.9262426000023,,,,,505,20,Man,Right,
,,,,,,,,,,,,,,,,,505,20,Man,Right,5,72,0.15,1,0,-,0,0.01729460000206018,['y'],0.7717585999998846,1.588,2285.6604534,,,,,505,20,Man,Right,
,,,,,,,,,,,,,,,,,505,20,Man,Right,5,45,0.15,2,0,180,0,0.05558469999959925,['n'],0.5596032999965246,1.584,2288.176043200001,,,,,505,20,Man,Right,
,,,,,,,,,,,,,,,,,,,,,,,,,,,,,,,,,78.75,85.0,42.5,2006.768572699999,,,,,
