p_block,p_section,p_coherence,p_direction1,p_direction2,p_direction_response,p_direction_RT,p_change_response,p_change_RT,p_confidence,p_full_correct,p_without5_correct,p_full_total,p_without5_total,p_full_avg,p_witout5_avg,p_total_time,sub,age,sex,handedness,loop,trial randomization,coherence,condition,direction1,direction2,direction_response,direction_RT,change_response,change_RT,change_confidence,change_confidence_RT,block_direction_avg,block_stable_avg,block_change_avg,total_time,sub,age,sex,handedness,
1,1,1.0,0,-,180,1.186001099999885,-,-,-,,,,,,,,576,30,Man,Right,,,,,,,,,,,,,,,,,576,30,Man,Right,
1,1,1.0,180,-,180,0.01677990000007412,-,-,-,,,,,,,,576,30,Man,Right,,,,,,,,,,,,,,,,,576,30,Man,Right,
1,1,1.0,180,-,180,2.1099127000006774,-,-,-,,,,,,,,576,30,Man,Right,,,,,,,,,,,,,,,,,576,30,Man,Right,
1,1,1.0,180,-,180,0.016606799999863142,-,-,-,,,,,,,,576,30,Man,Right,,,,,,,,,,,,,,,,,576,30,Man,Right,
1,1,1.0,0,-,0,0.8852866999995967,-,-,-,,,,,,,,576,30,Man,Right,,,,,,,,,,,,,,,,,576,30,Man,Right,
1,1,1.0,0,-,0,0.708153499999753,-,-,-,,,,,,,,576,30,Man,Right,,,,,,,,,,,,,,,,,576,30,Man,Right,
1,1,1.0,180,-,180,0.016789199999948323,-,-,-,,,,,,,,576,30,Man,Right,,,,,,,,,,,,,,,,,576,30,Man,Right,
1,1,1.0,0,-,0,0.016609900000730704,-,-,-,,,,,,,,576,30,Man,Right,,,,,,,,,,,,,,,,,576,30,Man,Right,
1,1,1.0,0,-,0,0.7087853000002724,-,-,-,,,,,,,,576,30,Man,Right,,,,,,,,,,,,,,,,,576,30,Man,Right,
1,1,1.0,180,-,180,0.49882399999933114,-,-,-,9,9,10,10,0.9,0.9,,576,30,Man,Right,,,,,,,,,,,,,,,,,576,30,Man,Right,
2,1,0.15,180,-,0,0.05969939999977214,-,-,-,,,,,,,,576,30,Man,Right,,,,,,,,,,,,,,,,,576,30,Man,Right,
2,1,0.4,180,-,180,0.05138919999990321,-,-,-,,,,,,,,576,30,Man,Right,,,,,,,,,,,,,,,,,576,30,Man,Right,
2,1,0.4,180,-,0,0.016631800000141084,-,-,-,,,,,,,,576,30,Man,Right,,,,,,,,,,,,,,,,,576,30,Man,Right,
2,1,0.15,0,-,180,0.6529630000004545,-,-,-,,,,,,,,576,30,Man,Right,,,,,,,,,,,,,,,,,576,30,Man,Right,
2,1,0.4,0,-,0,0.10100069999953121,-,-,-,,,,,,,,576,30,Man,Right,,,,,,,,,,,,,,,,,576,30,Man,Right,
2,1,0.15,180,-,180,0.058966500000678934,-,-,-,,,,,,,,576,30,Man,Right,,,,,,,,,,,,,,,,,576,30,Man,Right,
2,1,0.15,0,-,0,0.017150300000139396,-,-,-,,,,,,,,576,30,Man,Right,,,,,,,,,,,,,,,,,576,30,Man,Right,
2,1,0.15,180,-,180,0.01680690000011964,-,-,-,,,,,,,,576,30,Man,Right,,,,,,,,,,,,,,,,,576,30,Man,Right,
2,1,0.4,180,-,0,0.016527400000086345,-,-,-,,,,,,,,576,30,Man,Right,,,,,,,,,,,,,,,,,576,30,Man,Right,
2,1,0.15,180,-,180,0.08727920000001177,-,-,-,,,,,,,,576,30,Man,Right,,,,,,,,,,,,,,,,,576,30,Man,Right,
2,1,0.4,180,-,180,0.48587229999975534,-,-,-,,,,,,,,576,30,Man,Right,,,,,,,,,,,,,,,,,576,30,Man,Right,
2,1,0.15,180,-,180,0.1965306000001874,-,-,-,,,,,,,,576,30,Man,Right,,,,,,,,,,,,,,,,,576,30,Man,Right,
2,1,0.4,180,-,180,0.016937200000029407,-,-,-,,,,,,,,576,30,Man,Right,,,,,,,,,,,,,,,,,576,30,Man,Right,
2,1,0.4,180,-,0,0.016832300000714895,-,-,-,,,,,,,,576,30,Man,Right,,,,,,,,,,,,,,,,,576,30,Man,Right,
2,1,0.4,0,-,180,0.01663189999999304,-,-,-,,,,,,,,576,30,Man,Right,,,,,,,,,,,,,,,,,576,30,Man,Right,
2,1,0.15,0,-,180,0.017045600000528793,-,-,-,,,,,,,,576,30,Man,Right,,,,,,,,,,,,,,,,,576,30,Man,Right,
2,1,0.4,180,-,0,0.5574698000000353,-,-,-,,,,,,,,576,30,Man,Right,,,,,,,,,,,,,,,,,576,30,Man,Right,
2,1,0.4,0,-,0,0.4008610000000772,-,-,-,,,,,,,,576,30,Man,Right,,,,,,,,,,,,,,,,,576,30,Man,Right,
2,1,0.4,0,-,180,0.016735100000005332,-,-,-,,,,,,,,576,30,Man,Right,,,,,,,,,,,,,,,,,576,30,Man,Right,
2,1,0.4,0,-,180,0.16424720000031812,-,-,-,,,,,,,,576,30,Man,Right,,,,,,,,,,,,,,,,,576,30,Man,Right,
2,1,0.15,180,-,180,0.016521900000043388,-,-,-,,,,,,,,576,30,Man,Right,,,,,,,,,,,,,,,,,576,30,Man,Right,
2,1,0.15,180,-,180,0.17737639999995736,-,-,-,,,,,,,,576,30,Man,Right,,,,,,,,,,,,,,,,,576,30,Man,Right,
2,1,0.4,0,-,0,0.016713200000594952,-,-,-,,,,,,,,576,30,Man,Right,,,,,,,,,,,,,,,,,576,30,Man,Right,
2,1,0.15,0,-,180,0.40626399999928253,-,-,-,,,,,,,,576,30,Man,Right,,,,,,,,,,,,,,,,,576,30,Man,Right,
2,1,0.4,180,-,180,0.4721726999996463,-,-,-,,,,,,,,576,30,Man,Right,,,,,,,,,,,,,,,,,576,30,Man,Right,
2,1,0.4,180,-,180,0.1995835999996416,-,-,-,,,,,,,,576,30,Man,Right,,,,,,,,,,,,,,,,,576,30,Man,Right,
2,1,0.4,180,-,180,0.1376020999996399,-,-,-,,,,,,,,576,30,Man,Right,,,,,,,,,,,,,,,,,576,30,Man,Right,
2,1,0.15,180,-,0,0.42278889999943203,-,-,-,,,,,,,,576,30,Man,Right,,,,,,,,,,,,,,,,,576,30,Man,Right,
2,1,0.4,0,-,180,0.07170380000025034,-,-,-,,,,,,,,576,30,Man,Right,,,,,,,,,,,,,,,,,576,30,Man,Right,
2,1,0.4,0,-,0,0.38320029999977123,-,-,-,7,5,10,6,0.7,0.8333333333333334,,576,30,Man,Right,,,,,,,,,,,,,,,,,576,30,Man,Right,
3,2,1.0,180,0,180,0.41368380000039906,['y'],3.0625928999997996,1.45,,,,,,,,576,30,Man,Right,,,,,,,,,,,,,,,,,576,30,Man,Right,
3,2,1.0,180,0,180,0.8480990000007296,['y'],0.12848980000035226,1.46,,,,,,,,576,30,Man,Right,,,,,,,,,,,,,,,,,576,30,Man,Right,
3,2,1.0,0,180,180,2.0493910999994114,['y'],4.521257299999888,1.608,,,,,,,,576,30,Man,Right,,,,,,,,,,,,,,,,,576,30,Man,Right,
3,2,1.0,0,180,0,1.7564658000001145,['y'],0.24034900000060588,1.518,,,,,,,,576,30,Man,Right,,,,,,,,,,,,,,,,,576,30,Man,Right,
3,2,1.0,180,0,180,1.2689450999996552,['y'],1.371646900000087,1.4140000000000001,,,,,,,,576,30,Man,Right,,,,,,,,,,,,,,,,,576,30,Man,Right,
3,2,1.0,180,0,180,1.0710279999993872,['y'],0.21321360000001732,1.3679999999999999,,,,,,,,576,30,Man,Right,,,,,,,,,,,,,,,,,576,30,Man,Right,
3,2,1.0,0,180,180,1.0833843000000343,['y'],0.6734224000001632,1.744,,,,,,,,576,30,Man,Right,,,,,,,,,,,,,,,,,576,30,Man,Right,
3,2,1.0,0,180,180,0.7877045000004728,['y'],0.4137244000003193,1.734,,,,,,,,576,30,Man,Right,,,,,,,,,,,,,,,,,576,30,Man,Right,
3,2,1.0,0,180,180,0.8645990000004531,['y'],0.2720060999999987,1.8439999999999999,,,,,,,,576,30,Man,Right,,,,,,,,,,,,,,,,,576,30,Man,Right,
3,2,1.0,0,180,180,0.7168588000004092,['y'],0.2438995000002251,1.754,,,,,,,,576,30,Man,Right,,,,,,,,,,,,,,,,,576,30,Man,Right,
3,2,1.0,180,0,0,0.8375078000008216,['y'],0.44504330000017944,1.8,,,,,,,,576,30,Man,Right,,,,,,,,,,,,,,,,,576,30,Man,Right,
3,2,1.0,0,180,180,0.6039624000004551,['y'],0.2614007000001948,1.964,,,,,,,,576,30,Man,Right,,,,,,,,,,,,,,,,,576,30,Man,Right,
3,2,1.0,0,180,180,0.2602774999995745,['y'],0.2834108999995806,1.836,,,,,,,,576,30,Man,Right,,,,,,,,,,,,,,,,,576,30,Man,Right,
3,2,1.0,0,180,180,0.24632320000000618,['y'],0.2543089000000691,1.964,,,,,,,,576,30,Man,Right,,,,,,,,,,,,,,,,,576,30,Man,Right,
3,2,1.0,180,0,0,0.24986290000015288,['y'],0.4251041000006808,1.814,,,,,,,,576,30,Man,Right,,,,,,,,,,,,,,,,,576,30,Man,Right,
3,2,1.0,0,180,180,0.442883200000324,['y'],0.38625709999996616,1.728,,,,,,,,576,30,Man,Right,,,,,,,,,,,,,,,,,576,30,Man,Right,
3,2,1.0,0,180,180,0.2438745999997991,['y'],0.5641592000001765,1.788,,,,,,,,576,30,Man,Right,,,,,,,,,,,,,,,,,576,30,Man,Right,
3,2,1.0,0,180,180,0.2490168000003905,['y'],0.2644457999995211,1.772,,,,,,,,576,30,Man,Right,,,,,,,,,,,,,,,,,576,30,Man,Right,
3,2,1.0,180,0,0,0.25308789999962755,['y'],0.24454550000064046,1.866,,,,,,,,576,30,Man,Right,,,,,,,,,,,,,,,,,576,30,Man,Right,
3,2,1.0,180,0,0,0.12365440000030503,['y'],0.26465970000026573,1.768,10,10,10,10,1.0,1.0,,576,30,Man,Right,,,,,,,,,,,,,,,,,576,30,Man,Right,
4,2,0.15,0,180,0,1.2866712999993979,['y'],0.5640231999996104,1.512,,,,,,,,576,30,Man,Right,,,,,,,,,,,,,,,,,576,30,Man,Right,
4,2,0.15,180,0,180,0.4932551000001695,['y'],0.23501839999971708,1.534,,,,,,,,576,30,Man,Right,,,,,,,,,,,,,,,,,576,30,Man,Right,
4,2,0.15,0,180,0,0.44901260000006005,['y'],0.20735100000001694,1.358,,,,,,,,576,30,Man,Right,,,,,,,,,,,,,,,,,576,30,Man,Right,
4,2,0.4,0,180,180,0.5501528000004328,['y'],0.2656502999998338,1.596,,,,,,,,576,30,Man,Right,,,,,,,,,,,,,,,,,576,30,Man,Right,
4,2,0.4,0,180,180,0.4255445000007967,['y'],0.21063629999935074,1.63,,,,,,,,576,30,Man,Right,,,,,,,,,,,,,,,,,576,30,Man,Right,
4,2,0.15,0,180,180,0.5167566999998598,['y'],0.27320200000031036,1.716,,,,,,,,576,30,Man,Right,,,,,,,,,,,,,,,,,576,30,Man,Right,
4,2,0.15,180,0,0,0.8236448999996355,['y'],0.49641950000022916,1.808,,,,,,,,576,30,Man,Right,,,,,,,,,,,,,,,,,576,30,Man,Right,
4,2,0.4,180,0,0,0.31060830000024,['y'],0.25121350000063103,1.78,,,,,,,,576,30,Man,Right,,,,,,,,,,,,,,,,,576,30,Man,Right,
4,2,0.4,180,0,0,0.32498709999981656,['y'],0.2818320999995194,1.8559999999999999,,,,,,,,576,30,Man,Right,,,,,,,,,,,,,,,,,576,30,Man,Right,
4,2,0.15,180,0,0,0.43431320000036067,['y'],0.22593199999937497,1.8860000000000001,7,4,10,4,0.7,1.0,,576,30,Man,Right,,,,,,,,,,,,,,,,,576,30,Man,Right,
5,3,1.0,0,180,180,0.42314489999989746,['y'],0.27150690000053146,2.0,,,,,,,,576,30,Man,Right,,,,,,,,,,,,,,,,,576,30,Man,Right,
5,3,0.4,0,-,0,0.5573663000004672,['n'],0.6004437999999936,1.966,,,,,,,,576,30,Man,Right,,,,,,,,,,,,,,,,,576,30,Man,Right,
5,3,0.15,0,180,180,0.42527500000051077,['n'],0.34652209999967454,1.42,,,,,,,,576,30,Man,Right,,,,,,,,,,,,,,,,,576,30,Man,Right,
5,3,1.0,180,-,0,0.38160050000078627,['y'],0.35239889999957086,1.0,,,,,,,,576,30,Man,Right,,,,,,,,,,,,,,,,,576,30,Man,Right,
5,3,1.0,0,180,180,0.3355834000003597,['y'],0.23634390000006533,2.0,,,,,,,,576,30,Man,Right,,,,,,,,,,,,,,,,,576,30,Man,Right,
5,3,0.4,0,-,180,0.5641931000000113,['n'],0.28074110000034125,1.342,,,,,,,,576,30,Man,Right,,,,,,,,,,,,,,,,,576,30,Man,Right,
5,3,0.4,180,0,0,0.3494516000000658,['y'],0.32861400000001595,1.918,,,,,,,,576,30,Man,Right,,,,,,,,,,,,,,,,,576,30,Man,Right,
5,3,0.4,180,0,0,0.35343829999965237,['y'],0.23725920000015321,1.994,,,,,,,,576,30,Man,Right,,,,,,,,,,,,,,,,,576,30,Man,Right,
5,3,0.15,180,-,0,0.6754977000000508,['n'],0.2742583999997805,1.428,,,,,,,,576,30,Man,Right,,,,,,,,,,,,,,,,,576,30,Man,Right,
5,3,1.0,0,180,180,0.4396639000005962,['y'],0.25535369999943214,2.0,,,,,,,,576,30,Man,Right,,,,,,,,,,,,,,,,,576,30,Man,Right,
5,3,0.4,0,-,0,0.41758979999940493,['y'],0.2593910000005053,1.306,,,,,,,,576,30,Man,Right,,,,,,,,,,,,,,,,,576,30,Man,Right,
5,3,0.4,180,0,0,0.7451964000001681,['y'],1.1653770999992048,1.876,,,,,,,,576,30,Man,Right,,,,,,,,,,,,,,,,,576,30,Man,Right,
5,3,0.4,180,0,0,0.31187860000045475,['y'],0.6367792999999438,1.88,,,,,,,,576,30,Man,Right,,,,,,,,,,,,,,,,,576,30,Man,Right,
5,3,0.15,180,0,0,0.5626741000005495,['y'],0.31735209999988,1.954,,,,,,,,576,30,Man,Right,,,,,,,,,,,,,,,,,576,30,Man,Right,
5,3,0.15,0,-,0,0.3954426999998759,['y'],0.38110499999947933,1.6019999999999999,,,,,,,,576,30,Man,Right,,,,,,,,,,,,,,,,,576,30,Man,Right,
5,3,0.4,0,-,0,0.3674307000001136,['n'],0.42712849999952596,1.8639999999999999,,,,,,,,576,30,Man,Right,,,,,,,,,,,,,,,,,576,30,Man,Right,
5,3,0.4,180,-,0,0.4606381000003239,['n'],0.5877697000005355,1.706,,,,,,,,576,30,Man,Right,,,,,,,,,,,,,,,,,576,30,Man,Right,
5,3,0.15,0,-,180,0.7800042999997459,['y'],0.2309954000002108,1.4,,,,,,,,576,30,Man,Right,,,,,,,,,,,,,,,,,576,30,Man,Right,
5,3,1.0,180,-,180,0.5836319000000003,['y'],0.48180239999965124,1.536,,,,,,,,576,30,Man,Right,,,,,,,,,,,,,,,,,576,30,Man,Right,
5,3,0.4,180,-,0,0.36478470000020025,['y'],0.216460200000256,1.38,,,,,,,,576,30,Man,Right,,,,,,,,,,,,,,,,,576,30,Man,Right,
5,3,1.0,0,-,180,0.49776199999996606,['y'],0.22448720000011235,1.466,,,,,,,,576,30,Man,Right,,,,,,,,,,,,,,,,,576,30,Man,Right,
5,3,0.15,0,180,180,0.8437912999997934,['y'],0.28275720000056026,1.732,,,,,,,,576,30,Man,Right,,,,,,,,,,,,,,,,,576,30,Man,Right,
5,3,0.15,0,180,180,0.8037060000006022,['y'],0.2607726999995066,1.73,,,,,,,,576,30,Man,Right,,,,,,,,,,,,,,,,,576,30,Man,Right,
5,3,0.4,180,0,0,0.5717951000005996,['y'],0.550706099999843,1.73,,,,,,,,576,30,Man,Right,,,,,,,,,,,,,,,,,576,30,Man,Right,
5,3,1.0,180,0,0,0.6523459999998522,['y'],0.2200356000003012,1.73,,,,,,,,576,30,Man,Right,,,,,,,,,,,,,,,,,576,30,Man,Right,
5,3,0.15,180,-,0,1.4104343999997582,['n'],0.24465830000008282,1.5939999999999999,,,,,,,,576,30,Man,Right,,,,,,,,,,,,,,,,,576,30,Man,Right,
5,3,1.0,180,-,180,0.4607357000004413,['y'],0.2528253999998924,1.676,,,,,,,,576,30,Man,Right,,,,,,,,,,,,,,,,,576,30,Man,Right,
5,3,0.4,180,-,0,0.5111475999992763,['y'],0.23454539999966073,1.546,,,,,,,,576,30,Man,Right,,,,,,,,,,,,,,,,,576,30,Man,Right,
5,3,1.0,180,0,0,0.43473329999960697,['y'],0.24245539999992616,1.6219999999999999,,,,,,,,576,30,Man,Right,,,,,,,,,,,,,,,,,576,30,Man,Right,
5,3,0.15,180,-,0,0.9686393000001772,['n'],0.21878669999932754,1.53,,,,,,,,576,30,Man,Right,,,,,,,,,,,,,,,,,576,30,Man,Right,
5,3,0.4,180,0,180,0.8981786000003922,['n'],0.1444314000000304,1.53,,,,,,,,576,30,Man,Right,,,,,,,,,,,,,,,,,576,30,Man,Right,
5,3,0.15,0,180,180,0.6009576000005836,['n'],1.0983388000004197,1.588,,,,,,,,576,30,Man,Right,,,,,,,,,,,,,,,,,576,30,Man,Right,
5,3,0.4,0,180,180,0.32430099999965023,['y'],0.24133039999924222,1.67,,,,,,,,576,30,Man,Right,,,,,,,,,,,,,,,,,576,30,Man,Right,
5,3,0.4,0,180,180,0.3195651000005455,['y'],0.2606159999995725,1.688,,,,,,,,576,30,Man,Right,,,,,,,,,,,,,,,,,576,30,Man,Right,
5,3,0.15,180,0,0,0.8865423000006558,['n'],0.2374151999993046,1.576,,,,,,,,576,30,Man,Right,,,,,,,,,,,,,,,,,576,30,Man,Right,
5,3,0.4,0,-,180,0.39699130000008154,['y'],0.3112842999998975,1.634,,,,,,,,576,30,Man,Right,,,,,,,,,,,,,,,,,576,30,Man,Right,
5,3,0.15,180,-,180,0.8691865000000689,['n'],0.2596603000001778,1.6360000000000001,,,,,,,,576,30,Man,Right,,,,,,,,,,,,,,,,,576,30,Man,Right,
5,3,1.0,180,0,0,0.41988540000056673,['y'],0.2129025999993246,1.6640000000000001,,,,,,,,576,30,Man,Right,,,,,,,,,,,,,,,,,576,30,Man,Right,
5,3,0.15,0,180,180,0.975504699999874,['n'],0.4726083999994444,1.724,,,,,,,,576,30,Man,Right,,,,,,,,,,,,,,,,,576,30,Man,Right,
5,3,0.4,0,180,180,0.29522889999952895,['y'],0.8132525000000896,1.778,,,,,,,,576,30,Man,Right,,,,,,,,,,,,,,,,,576,30,Man,Right,
5,3,0.4,180,0,0,0.4040774999994028,['n'],0.8382406999999148,1.6560000000000001,,,,,,,,576,30,Man,Right,,,,,,,,,,,,,,,,,576,30,Man,Right,
5,3,0.4,180,0,0,1.0707503999992696,['y'],0.4217410999999629,1.922,,,,,,,,576,30,Man,Right,,,,,,,,,,,,,,,,,576,30,Man,Right,
5,3,0.4,0,-,0,0.45503389999976207,['n'],0.41392290000021603,1.77,,,,,,,,576,30,Man,Right,,,,,,,,,,,,,,,,,576,30,Man,Right,
5,3,0.15,0,-,180,0.5831892999995034,['n'],0.2410862000006091,1.62,,,,,,,,576,30,Man,Right,,,,,,,,,,,,,,,,,576,30,Man,Right,
5,3,0.4,0,-,0,0.6502336000003197,['n'],0.23741169999993872,1.72,,,,,,,,576,30,Man,Right,,,,,,,,,,,,,,,,,576,30,Man,Right,
5,3,0.15,180,-,0,0.47366989999954967,['n'],0.1923118999993676,1.72,,,,,,,,576,30,Man,Right,,,,,,,,,,,,,,,,,576,30,Man,Right,
5,3,0.4,180,-,0,0.43787410000004456,['n'],0.23735719999967841,1.548,,,,,,,,576,30,Man,Right,,,,,,,,,,,,,,,,,576,30,Man,Right,
5,3,0.15,180,0,0,0.5393114000007699,['n'],0.23146679999990738,1.588,,,,,,,,576,30,Man,Right,,,,,,,,,,,,,,,,,576,30,Man,Right,
5,3,0.4,0,180,0,0.4380332000000635,['y'],0.7661092999996981,1.572,,,,,,,,576,30,Man,Right,,,,,,,,,,,,,,,,,576,30,Man,Right,
5,3,1.0,0,-,0,0.45346410000001924,['y'],0.2600118999998813,1.71,,,,,,,,576,30,Man,Right,,,,,,,,,,,,,,,,,576,30,Man,Right,
5,3,1.0,0,180,180,0.481519500000104,['y'],0.27284119999967515,1.85,,,,,,,,576,30,Man,Right,,,,,,,,,,,,,,,,,576,30,Man,Right,
5,3,0.4,180,0,0,0.6034842000008211,['y'],0.2605227999993076,1.83,,,,,,,,576,30,Man,Right,,,,,,,,,,,,,,,,,576,30,Man,Right,
5,3,0.4,0,-,0,0.7521230000002106,['y'],3.7163941999997405,1.794,,,,,,,,576,30,Man,Right,,,,,,,,,,,,,,,,,576,30,Man,Right,
5,3,0.15,180,0,0,0.3217885000003662,['y'],0.3348247000003539,1.77,,,,,,,,576,30,Man,Right,,,,,,,,,,,,,,,,,576,30,Man,Right,
5,3,1.0,0,-,0,0.7264763999992283,['n'],0.2834352999998373,1.774,,,,,,,,576,30,Man,Right,,,,,,,,,,,,,,,,,576,30,Man,Right,
5,3,1.0,0,-,0,0.44619500000044354,['n'],0.27772920000006707,1.8679999999999999,,,,,,,,576,30,Man,Right,,,,,,,,,,,,,,,,,576,30,Man,Right,
5,3,0.15,180,-,180,0.4972259000005579,['n'],0.28685369999948307,1.954,,,,,,,,576,30,Man,Right,,,,,,,,,,,,,,,,,576,30,Man,Right,
5,3,0.4,180,0,180,1.3760364999998274,['y'],0.050824500000089756,1.8599999999999999,,,,,,,,576,30,Man,Right,,,,,,,,,,,,,,,,,576,30,Man,Right,
5,3,0.4,180,0,180,1.3838070000001608,['y'],0.09843460000047344,1.874,,,,,,,,576,30,Man,Right,,,,,,,,,,,,,,,,,576,30,Man,Right,
5,3,0.4,180,0,0,0.7826893000001292,['n'],0.21631780000006984,1.814,,,,,,,,576,30,Man,Right,,,,,,,,,,,,,,,,,576,30,Man,Right,
5,3,1.0,0,-,0,0.6100144000001819,['n'],0.26751400000011927,1.99,,,,,,,,576,30,Man,Right,,,,,,,,,,,,,,,,,576,30,Man,Right,
5,3,0.4,180,0,0,1.4615479000003688,['y'],0.2449814999999944,2.0,,,,,,,,576,30,Man,Right,,,,,,,,,,,,,,,,,576,30,Man,Right,
5,3,0.4,0,180,0,0.638876099999834,['n'],0.23082119999980932,1.76,,,,,,,,576,30,Man,Right,,,,,,,,,,,,,,,,,576,30,Man,Right,
5,3,0.15,180,0,180,1.0161361000000397,['y'],0.23261420000017097,1.712,,,,,,,,576,30,Man,Right,,,,,,,,,,,,,,,,,576,30,Man,Right,
5,3,0.15,180,0,180,0.995394500000657,['y'],0.08603299999958836,1.716,,,,,,,,576,30,Man,Right,,,,,,,,,,,,,,,,,576,30,Man,Right,
5,3,0.4,0,-,0,0.6335051000005478,['n'],0.9794031999999788,2.0,,,,,,,,576,30,Man,Right,,,,,,,,,,,,,,,,,576,30,Man,Right,
5,3,0.15,0,-,0,0.6822751999998218,['n'],0.26437780000014754,1.996,,,,,,,,576,30,Man,Right,,,,,,,,,,,,,,,,,576,30,Man,Right,
5,3,0.15,0,-,180,0.47121770000012475,['y'],0.4378383000002941,1.762,,,,,,,,576,30,Man,Right,,,,,,,,,,,,,,,,,576,30,Man,Right,
5,3,1.0,0,-,180,0.6691933000001882,['n'],0.2354883999996673,1.726,,,,,,,,576,30,Man,Right,,,,,,,,,,,,,,,,,576,30,Man,Right,
5,3,0.15,180,-,0,0.6585691000000224,['y'],0.11421400000017456,1.726,,,,,,,,576,30,Man,Right,,,,,,,,,,,,,,,,,576,30,Man,Right,
5,3,1.0,0,-,0,0.5502764999991996,['y'],0.29674250000061875,1.77,,,,,,,,576,30,Man,Right,,,,,,,,,,,,,,,,,576,30,Man,Right,
5,3,0.15,0,-,0,0.5576763999997638,['n'],0.24982550000004267,1.958,,,,,,,,576,30,Man,Right,,,,,,,,,,,,,,,,,576,30,Man,Right,
5,3,1.0,180,-,0,1.354759699999704,['y'],0.42172669999945356,1.772,,,,,,,,576,30,Man,Right,,,,,,,,,,,,,,,,,576,30,Man,Right,
5,3,0.4,0,180,0,0.6739899000003788,['y'],0.3531877999994322,1.772,,,,,,,,576,30,Man,Right,,,,,,,,,,,,,,,,,576,30,Man,Right,
5,3,0.4,180,0,0,1.0766844999998284,['y'],0.2361110000001645,1.772,,,,,,,,576,30,Man,Right,,,,,,,,,,,,,,,,,576,30,Man,Right,
5,3,0.15,0,180,180,0.483944500000689,['n'],0.2981227999998737,1.794,,,,,,,,576,30,Man,Right,,,,,,,,,,,,,,,,,576,30,Man,Right,
5,3,0.15,0,-,180,0.48609619999933784,['y'],0.18006559999957972,1.72,,,,,,,,576,30,Man,Right,,,,,,,,,,,,,,,,,576,30,Man,Right,
5,3,0.15,180,0,180,0.8371038000004773,['n'],0.7081587000002401,1.5859999999999999,,,,,,,,576,30,Man,Right,,,,,,,,,,,,,,,,,576,30,Man,Right,
5,3,1.0,180,0,0,0.49439450000045326,['y'],0.34850249999999505,1.968,,,,,,,,576,30,Man,Right,,,,,,,,,,,,,,,,,576,30,Man,Right,
5,3,1.0,0,-,180,1.0705244999999195,['n'],0.16501439999956347,1.69,,,,,,,,576,30,Man,Right,,,,,,,,,,,,,,,,,576,30,Man,Right,
5,3,1.0,0,-,0,0.8552709000005052,['n'],0.2306496999999581,1.854,,,,,,,,576,30,Man,Right,,,,,,,,,,,,,,,,,576,30,Man,Right,
5,3,0.15,0,-,180,0.3638059000004432,['n'],0.1673132000005353,1.752,,,,,,,,576,30,Man,Right,,,,,,,,,,,,,,,,,576,30,Man,Right,
5,3,0.15,180,-,180,0.6990091999996366,['n'],0.2647303000003376,1.78,,,,,,,,576,30,Man,Right,,,,,,,,,,,,,,,,,576,30,Man,Right,
5,3,0.15,0,180,0,0.46394380000037927,['n'],0.3195183999996516,1.692,,,,,,,,576,30,Man,Right,,,,,,,,,,,,,,,,,576,30,Man,Right,
5,3,1.0,0,-,180,0.4400156000001516,['n'],0.280069999999796,1.706,,,,,,,,576,30,Man,Right,,,,,,,,,,,,,,,,,576,30,Man,Right,
5,3,0.15,0,180,0,1.0589767000001302,['n'],0.2104273999993893,1.686,,,,,,,,576,30,Man,Right,,,,,,,,,,,,,,,,,576,30,Man,Right,
5,3,0.15,0,-,0,0.9647357000003467,['n'],0.24892980000004172,1.7,,,,,,,,576,30,Man,Right,,,,,,,,,,,,,,,,,576,30,Man,Right,
5,3,0.4,0,180,0,0.5171032999996896,['n'],0.20159069999954227,1.6320000000000001,,,,,,,,576,30,Man,Right,,,,,,,,,,,,,,,,,576,30,Man,Right,
5,3,1.0,0,180,180,0.5166466999999102,['y'],0.08668049999960203,1.962,,,,,,,,576,30,Man,Right,,,,,,,,,,,,,,,,,576,30,Man,Right,
5,3,0.4,0,-,0,0.8987408000002688,['n'],0.24858059999951365,1.78,,,,,,,,576,30,Man,Right,,,,,,,,,,,,,,,,,576,30,Man,Right,
5,3,0.4,180,-,0,0.4249755999999252,['n'],0.2982040999995661,1.69,,,,,,,,576,30,Man,Right,,,,,,,,,,,,,,,,,576,30,Man,Right,
5,3,0.4,0,-,180,0.6685873999995238,['n'],0.13095139999950334,1.692,,,,,,,,576,30,Man,Right,,,,,,,,,,,,,,,,,576,30,Man,Right,
5,3,1.0,0,-,0,0.1920129000000088,['n'],0.2660082999991573,1.712,,,,,,,,576,30,Man,Right,,,,,,,,,,,,,,,,,576,30,Man,Right,
5,3,0.15,180,0,0,0.9081765999999334,['n'],0.226892399999997,1.708,,,,,,,,576,30,Man,Right,,,,,,,,,,,,,,,,,576,30,Man,Right,
5,3,1.0,180,-,0,0.8511169000003065,['y'],0.2023681000000579,1.678,,,,,,,,576,30,Man,Right,,,,,,,,,,,,,,,,,576,30,Man,Right,
5,3,0.4,0,180,180,0.44889299999977084,['y'],0.28068249999978434,1.828,,,,,,,,576,30,Man,Right,,,,,,,,,,,,,,,,,576,30,Man,Right,
5,3,0.15,180,-,0,0.8333729000005405,['y'],0.7193598000003476,1.834,,,,,,,,576,30,Man,Right,,,,,,,,,,,,,,,,,576,30,Man,Right,
5,3,0.4,0,-,180,0.8886666999997033,['n'],0.43069629999990866,1.858,,,,,,,,576,30,Man,Right,,,,,,,,,,,,,,,,,576,30,Man,Right,
5,3,1.0,0,180,0,1.0422243000002709,['y'],0.11348660000021482,1.8780000000000001,,,,,,,,576,30,Man,Right,,,,,,,,,,,,,,,,,576,30,Man,Right,
5,3,0.15,180,0,0,0.674993199999335,['y'],0.32093910000003234,1.804,,,,,,,,576,30,Man,Right,,,,,,,,,,,,,,,,,576,30,Man,Right,
5,3,1.0,0,180,180,0.5315461000000141,['y'],0.23220949999995355,1.8719999999999999,,,,,,,,576,30,Man,Right,,,,,,,,,,,,,,,,,576,30,Man,Right,
5,3,1.0,180,-,0,0.5169814999999289,['y'],0.041437300000325195,1.992,,,,,,,,576,30,Man,Right,,,,,,,,,,,,,,,,,576,30,Man,Right,
5,3,0.4,0,180,180,0.6554611999999906,['y'],0.25541250000060245,1.8980000000000001,,,,,,,,576,30,Man,Right,,,,,,,,,,,,,,,,,576,30,Man,Right,
5,3,0.15,180,0,0,0.35239650000039546,['y'],0.2681915000002846,1.84,,,,,,,,576,30,Man,Right,,,,,,,,,,,,,,,,,576,30,Man,Right,
5,3,0.4,0,-,0,0.6957885000001625,['y'],0.27766780000001745,1.962,,,,,,,,576,30,Man,Right,,,,,,,,,,,,,,,,,576,30,Man,Right,
5,3,1.0,0,180,180,0.48530289999962406,['y'],1.1952936999996382,1.8719999999999999,,,,,,,,576,30,Man,Right,,,,,,,,,,,,,,,,,576,30,Man,Right,
5,3,1.0,180,-,0,0.4910976999999548,['y'],0.22542199999952572,1.808,,,,,,,,576,30,Man,Right,,,,,,,,,,,,,,,,,576,30,Man,Right,
5,3,0.4,180,-,0,0.9373679999998785,['y'],0.2537247000000207,1.8439999999999999,,,,,,,,576,30,Man,Right,,,,,,,,,,,,,,,,,576,30,Man,Right,
5,3,0.15,0,-,180,1.30346180000015,['y'],0.24518239999997604,1.72,,,,,,,,576,30,Man,Right,,,,,,,,,,,,,,,,,576,30,Man,Right,
5,3,0.15,180,0,0,1.0774560999998357,['n'],0.27679149999949004,1.896,,,,,,,,576,30,Man,Right,,,,,,,,,,,,,,,,,576,30,Man,Right,
5,3,0.4,180,0,0,0.5926828999999998,['y'],0.25858880000032514,1.762,,,,,,,,576,30,Man,Right,,,,,,,,,,,,,,,,,576,30,Man,Right,
5,3,1.0,180,0,0,0.6133937000004153,['y'],0.20752100000026985,1.908,,,,,,,,576,30,Man,Right,,,,,,,,,,,,,,,,,576,30,Man,Right,
5,3,0.4,180,-,0,0.453776100000141,['n'],0.15762499999982538,1.78,,,,,,,,576,30,Man,Right,,,,,,,,,,,,,,,,,576,30,Man,Right,
5,3,0.4,0,180,0,0.4511947999999393,['n'],0.3933145000000877,1.85,,,,,,,,576,30,Man,Right,,,,,,,,,,,,,,,,,576,30,Man,Right,
5,3,0.4,0,-,0,0.9167813000003662,['n'],0.2571118000005299,1.896,,,,,,,,576,30,Man,Right,,,,,,,,,,,,,,,,,576,30,Man,Right,
5,3,0.4,180,0,0,0.6000684000000547,['y'],0.2322252000003573,1.8820000000000001,,,,,,,,576,30,Man,Right,,,,,,,,,,,,,,,,,576,30,Man,Right,
5,3,0.4,180,0,0,0.5312957999994978,['y'],0.2718823000004704,1.934,,,,,,,,576,30,Man,Right,,,,,,,,,,,,,,,,,576,30,Man,Right,
5,3,0.15,0,180,0,0.5111618000000817,['n'],0.283852399999887,1.772,,,,,,,,576,30,Man,Right,,,,,,,,,,,,,,,,,576,30,Man,Right,
5,3,0.15,0,-,0,0.4131995999996434,['n'],0.49490570000034495,1.862,,,,,,,,576,30,Man,Right,,,,,,,,,,,,,,,,,576,30,Man,Right,
5,3,0.4,0,-,180,1.3034794000004695,['y'],0.20510079999985464,1.8940000000000001,,,,,,,,576,30,Man,Right,,,,,,,,,,,,,,,,,576,30,Man,Right,
5,3,0.15,0,-,0,0.534714299999905,['n'],0.26759450000008655,1.922,,,,,,,,576,30,Man,Right,,,,,,,,,,,,,,,,,576,30,Man,Right,
5,3,0.15,180,-,0,0.5047970999994504,['n'],0.10274500000014086,1.752,,,,,,,,576,30,Man,Right,,,,,,,,,,,,,,,,,576,30,Man,Right,
5,3,1.0,0,180,180,0.5334618999995655,['y'],0.5535969000002297,1.954,,,,,,,,576,30,Man,Right,,,,,,,,,,,,,,,,,576,30,Man,Right,
5,3,0.15,180,0,0,0.4828765000002022,['n'],0.25673060000008263,1.922,,,,,,,,576,30,Man,Right,,,,,,,,,,,,,,,,,576,30,Man,Right,
5,3,1.0,0,180,180,0.4197565999993458,['y'],0.27644990000044345,1.93,,,,,,,,576,30,Man,Right,,,,,,,,,,,,,,,,,576,30,Man,Right,
5,3,0.15,0,-,0,0.6790387000000919,['n'],0.3016088000003947,1.996,,,,,,,,576,30,Man,Right,,,,,,,,,,,,,,,,,576,30,Man,Right,
5,3,0.4,0,180,180,0.4711386000008133,['y'],0.26186409999991156,1.986,,,,,,,,576,30,Man,Right,,,,,,,,,,,,,,,,,576,30,Man,Right,
5,3,1.0,180,0,0,0.4597450999999637,['y'],0.1949291999999332,1.968,,,,,,,,576,30,Man,Right,,,,,,,,,,,,,,,,,576,30,Man,Right,
5,3,0.15,180,-,0,0.555779899999834,['n'],0.23891200000070967,1.904,,,,,,,,576,30,Man,Right,,,,,,,,,,,,,,,,,576,30,Man,Right,
5,3,1.0,180,-,0,0.3116998000004969,['y'],0.21287609999944834,1.92,7,4,10,5,0.7,0.8,,576,30,Man,Right,,,,,,,,,,,,,,,,,576,30,Man,Right,
,,,,,,,,,,,,,,,,5.300000339047983e-06,576,30,Man,Right,,,,,,,,,,,,,,,,,576,30,Man,Right,
,,,,,,,,,,,,,,,,,576,30,Man,Right,0,36,0.4,1,0,-,0,0.6388162000002922,['y'],0.9828562000002421,1.834,1098.2899696000004,,,,,576,30,Man,Right,
,,,,,,,,,,,,,,,,,576,30,Man,Right,0,24,0.4,1,0,-,180,0.41730419999930746,['y'],0.713094299999284,1.818,1102.1232772000003,,,,,576,30,Man,Right,
,,,,,,,,,,,,,,,,,576,30,Man,Right,0,55,0.15,2,180,0,0,0.4053983000003427,['y'],0.9269672999998875,1.818,1106.0732589,,,,,576,30,Man,Right,
,,,,,,,,,,,,,,,,,576,30,Man,Right,0,3,1,2,180,0,0,0.3448293999999805,['y'],0.6869200999999521,1.766,1109.6732309999998,,,,,576,30,Man,Right,
,,,,,,,,,,,,,,,,,576,30,Man,Right,0,45,0.15,2,0,180,0,0.37407119999988936,['n'],0.6867703999996593,1.772,1113.1398571,,,,,576,30,Man,Right,
,,,,,,,,,,,,,,,,,576,30,Man,Right,0,70,0.15,1,180,-,0,0.5644421999995757,['n'],0.8385669999997845,1.772,1116.9567349999998,,,,,576,30,Man,Right,
,,,,,,,,,,,,,,,,,576,30,Man,Right,0,30,0.4,1,180,-,180,0.5822803000000931,['n'],0.8547410000001037,1.772,1120.8231213,,,,,576,30,Man,Right,
,,,,,,,,,,,,,,,,,576,30,Man,Right,0,1,1,2,0,180,180,0.3415734000000157,['y'],1.151050899999973,1.918,1125.3064168,,,,,576,30,Man,Right,
,,,,,,,,,,,,,,,,,576,30,Man,Right,0,19,0.4,2,180,0,0,0.8223582999999053,['n'],0.3988463999994565,1.808,1129.03971,,,,,576,30,Man,Right,
,,,,,,,,,,,,,,,,,576,30,Man,Right,0,42,0.4,1,180,-,0,0.5030738000004931,['n'],0.6634630999997171,1.798,1133.0565119000003,,,,,576,30,Man,Right,
,,,,,,,,,,,,,,,,,576,30,Man,Right,0,41,0.4,2,0,180,180,0.6170883999993748,['n'],0.4709173000001101,1.798,1136.5398940000005,,,,,576,30,Man,Right,
,,,,,,,,,,,,,,,,,576,30,Man,Right,0,64,0.15,1,0,-,180,0.7234448999997767,['n'],0.6786159999992378,1.792,1140.4229436000005,,,,,576,30,Man,Right,
,,,,,,,,,,,,,,,,,576,30,Man,Right,0,27,0.4,2,180,0,0,0.4199007999995956,['y'],0.8229504000000816,1.79,1144.0062464000002,,,,,576,30,Man,Right,
,,,,,,,,,,,,,,,,,576,30,Man,Right,0,50,0.15,1,180,-,180,0.49024680000002263,['n'],0.5988305999999284,1.79,1147.5395537000004,,,,,576,30,Man,Right,
,,,,,,,,,,,,,,,,,576,30,Man,Right,0,17,0.4,2,0,180,180,0.45295550000082585,['y'],0.6389847000000373,1.79,1151.3061546999998,,,,,576,30,Man,Right,
,,,,,,,,,,,,,,,,,576,30,Man,Right,0,68,0.15,1,0,-,0,0.34792620000007446,['n'],0.8309349000001021,1.79,1154.9563912000003,,,,,576,30,Man,Right,
,,,,,,,,,,,,,,,,,576,30,Man,Right,0,16,0.4,1,0,-,0,0.467163299999811,['n'],0.5914651000002777,1.768,1158.6227571,,,,,576,30,Man,Right,
,,,,,,,,,,,,,,,,,576,30,Man,Right,0,78,0.15,1,180,-,180,0.8168912000001001,['n'],0.5903650999998717,1.768,1162.6727056999998,,,,,576,30,Man,Right,
,,,,,,,,,,,,,,,,,576,30,Man,Right,0,28,0.4,1,0,-,0,0.3593296000008195,['n'],0.5669569000001502,1.768,1165.8894246,,,,,576,30,Man,Right,
,,,,,,,,,,,,,,,,,576,30,Man,Right,0,22,0.4,1,180,-,0,0.6227866999997786,['n'],1.9266918000002988,1.768,1170.9726903,,,,,576,30,Man,Right,
,,,,,,,,,,,,,,,,,576,30,Man,Right,0,37,0.4,2,0,180,180,1.7645121999994444,['y'],1.0385125000002517,1.854,1177.6059500000001,,,,,576,30,Man,Right,
,,,,,,,,,,,,,,,,,576,30,Man,Right,0,72,0.15,1,0,-,0,0.42966710000018793,['n'],0.622864799999661,1.804,1181.2226098,,,,,576,30,Man,Right,
,,,,,,,,,,,,,,,,,576,30,Man,Right,0,67,0.15,2,180,0,180,0.3811501000000135,['n'],1.1668547999997827,1.79,1185.4728132,,,,,576,30,Man,Right,
,,,,,,,,,,,,,,,,,576,30,Man,Right,0,40,0.4,1,0,-,0,0.7167493999995713,['y'],1.5189082999995662,1.774,1190.2225493000005,,,,,576,30,Man,Right,
,,,,,,,,,,,,,,,,,576,30,Man,Right,0,49,0.15,2,0,180,180,1.267542599999615,['n'],0.582849499999611,1.762,1194.3893970999998,,,,,576,30,Man,Right,
,,,,,,,,,,,,,,,,,576,30,Man,Right,0,2,1,1,180,-,0,0.993604499999492,['y'],0.44683249999980035,1.75,1198.3393615000005,,,,,576,30,Man,Right,
,,,,,,,,,,,,,,,,,576,30,Man,Right,0,57,0.15,2,0,180,180,0.3337685999995301,['y'],0.9987779000002774,1.744,1202.1227328999994,,,,,576,30,Man,Right,
,,,,,,,,,,,,,,,,,576,30,Man,Right,0,79,0.15,2,180,0,180,1.047801899998376,['n'],1.4146965999989334,1.74,1207.0725877999994,,,,,576,30,Man,Right,
,,,,,,,,,,,,,,,,,576,30,Man,Right,0,48,0.15,1,0,-,180,0.45586550000007264,['y'],0.4708371000015177,1.748,1211.3891801999998,,,,,576,30,Man,Right,
,,,,,,,,,,,,,,,,,576,30,Man,Right,0,32,0.4,1,0,-,180,0.3302829999993264,['n'],1.5991050000011455,1.746,1215.706536400001,,,,,576,30,Man,Right,
,,,,,,,,,,,,,,,,,576,30,Man,Right,0,26,0.4,1,180,-,180,0.4065933000001678,['n'],0.982838100000663,1.8559999999999999,1220.0722779000007,,,,,576,30,Man,Right,
,,,,,,,,,,,,,,,,,576,30,Man,Right,0,66,0.15,1,180,-,180,0.5612686000004032,['n'],0.495117599999503,1.824,1223.3888193000003,,,,,576,30,Man,Right,
,,,,,,,,,,,,,,,,,576,30,Man,Right,0,46,0.15,1,180,-,180,0.8166211999996449,['n'],1.3472984999989421,1.822,1228.2555293000005,,,,,576,30,Man,Right,
,,,,,,,,,,,,,,,,,576,30,Man,Right,0,56,0.15,1,0,-,0,1.0031177999990177,['y'],0.5112404999999853,1.81,1232.0726295000004,,,,,576,30,Man,Right,
,,,,,,,,,,,,,,,,,576,30,Man,Right,0,60,0.15,1,0,-,180,0.5518781999999192,['n'],0.9666909999996278,1.81,1236.6723774000002,,,,,576,30,Man,Right,
,,,,,,,,,,,,,,,,,576,30,Man,Right,0,75,0.15,2,180,0,180,0.35337690000051225,['n'],0.5826058999991801,1.9,1240.4722158999994,,,,,576,30,Man,Right,
,,,,,,,,,,,,,,,,,576,30,Man,Right,0,77,0.15,2,0,180,180,0.289966699998331,['n'],0.5993223000004946,1.794,1243.721980100001,,,,,576,30,Man,Right,
,,,,,,,,,,,,,,,,,576,30,Man,Right,0,62,0.15,1,180,-,180,0.24810379999871657,['n'],0.8310742000012397,1.83,1247.3056300999997,,,,,576,30,Man,Right,
,,,,,,,,,,,,,,,,,576,30,Man,Right,0,13,0.4,2,0,180,180,0.8060081000003265,['y'],1.99889549999898,1.95,1253.3053086,,,,,576,30,Man,Right,
,,,,,,,,,,,,,,,,,576,30,Man,Right,0,73,0.15,2,0,180,180,1.702378799998769,['y'],0.7827546999997139,1.9060000000000001,1258.1220826999997,,,,,576,30,Man,Right,
,,,,,,,,,,,,,,,,,576,30,Man,Right,0,76,0.15,1,0,-,180,0.6157160000002477,['y'],1.5906809999996767,1.888,1262.8052860000007,,,,,576,30,Man,Right,
,,,,,,,,,,,,,,,,,576,30,Man,Right,0,52,0.15,1,0,-,180,0.5867558999998437,['y'],0.36714089999986754,1.8980000000000001,1266.3219417,,,,,576,30,Man,Right,
,,,,,,,,,,,,,,,,,576,30,Man,Right,0,65,0.15,2,0,180,180,0.5995411999992939,['y'],0.4389917000007699,1.8980000000000001,1269.7884238000006,,,,,576,30,Man,Right,
,,,,,,,,,,,,,,,,,576,30,Man,Right,0,47,0.15,2,180,0,0,0.8128754000008485,['y'],1.0632812000003469,1.8980000000000001,1274.0385339999993,,,,,576,30,Man,Right,
,,,,,,,,,,,,,,,,,576,30,Man,Right,0,59,0.15,2,180,0,0,1.1953214000004664,['y'],0.6865514000000985,1.874,1278.3551308000006,,,,,576,30,Man,Right,
,,,,,,,,,,,,,,,,,576,30,Man,Right,0,11,0.4,2,180,0,0,0.5670251999999891,['y'],0.48778219999985595,1.768,1281.6886790000008,,,,,576,30,Man,Right,
,,,,,,,,,,,,,,,,,576,30,Man,Right,0,71,0.15,2,180,0,180,0.5867131000013615,['n'],0.6625707999992301,1.75,1285.2550656000003,,,,,576,30,Man,Right,
,,,,,,,,,,,,,,,,,576,30,Man,Right,0,38,0.4,1,180,-,0,0.5000387000000046,['y'],0.7906646999999793,1.75,1288.8888289999995,,,,,576,30,Man,Right,
,,,,,,,,,,,,,,,,,576,30,Man,Right,0,51,0.15,2,180,0,0,0.5085837000005995,['y'],0.654894700001023,1.75,1292.405851900001,,,,,576,30,Man,Right,
,,,,,,,,,,,,,,,,,576,30,Man,Right,0,74,0.15,1,180,-,180,0.8439278000005288,['y'],0.5992571999995562,1.75,1296.1550444999993,,,,,576,30,Man,Right,
,,,,,,,,,,,,,,,,,576,30,Man,Right,0,14,0.4,1,180,-,0,0.42312609999862616,['y'],0.7833699000002525,1.862,1299.7384836,,,,,576,30,Man,Right,
,,,,,,,,,,,,,,,,,576,30,Man,Right,0,12,0.4,1,0,-,0,0.7910853999983374,['y'],0.7509219999992638,1.83,1303.6050785999996,,,,,576,30,Man,Right,
,,,,,,,,,,,,,,,,,576,30,Man,Right,0,61,0.15,2,0,180,0,0.48369669999920006,['y'],0.6547549000006256,1.826,1307.0886508999993,,,,,576,30,Man,Right,
,,,,,,,,,,,,,,,,,576,30,Man,Right,0,15,0.4,2,180,0,0,0.3913001999990229,['y'],0.5109723999994458,1.826,1310.3547734000003,,,,,576,30,Man,Right,
,,,,,,,,,,,,,,,,,576,30,Man,Right,0,8,0.4,1,0,-,0,0.5194021999996039,['n'],0.7750486000004457,1.6480000000000001,1314.5548190999998,,,,,576,30,Man,Right,
,,,,,,,,,,,,,,,,,576,30,Man,Right,0,34,0.4,1,180,-,0,0.5536377000007633,['y'],0.686557899998661,1.73,1318.2380687999994,,,,,576,30,Man,Right,
,,,,,,,,,,,,,,,,,576,30,Man,Right,0,20,0.4,1,0,-,0,0.5407594999996945,['n'],0.694767299999512,1.716,1321.821632700001,,,,,576,30,Man,Right,
,,,,,,,,,,,,,,,,,576,30,Man,Right,0,25,0.4,2,0,180,0,0.3642030999999406,['y'],0.8947031000006973,1.8439999999999999,1325.3550426000002,,,,,576,30,Man,Right,
,,,,,,,,,,,,,,,,,576,30,Man,Right,0,43,0.4,2,180,0,0,0.26359250000132306,['y'],0.9989411999995355,1.804,1329.0213218999997,,,,,576,30,Man,Right,
,,,,,,,,,,,,,,,,,576,30,Man,Right,0,58,0.15,1,180,-,0,0.5461679999989428,['n'],0.5509575999985827,1.794,1332.3888822999998,,,,,576,30,Man,Right,
,,,,,,,,,,,,,,,,,576,30,Man,Right,0,0,1,1,0,-,0,0.42065290000027744,['y'],0.8149658000002091,1.876,1336.1378454999995,,,,,576,30,Man,Right,
,,,,,,,,,,,,,,,,,576,30,Man,Right,0,7,1,2,180,0,0,0.5702376000008371,['y'],0.591225599999234,1.948,1340.504520800001,,,,,576,30,Man,Right,
,,,,,,,,,,,,,,,,,576,30,Man,Right,0,54,0.15,1,180,-,0,0.624164999999266,['n'],1.1917948000009346,1.776,1344.8378678999998,,,,,576,30,Man,Right,
,,,,,,,,,,,,,,,,,576,30,Man,Right,0,33,0.4,2,0,180,180,0.2994199999993725,['y'],0.583126399998946,1.8519999999999999,1348.2881213,,,,,576,30,Man,Right,
,,,,,,,,,,,,,,,,,576,30,Man,Right,0,6,1,1,180,-,0,0.5389732000003278,['y'],0.5832110999999713,1.822,1351.7545339000008,,,,,576,30,Man,Right,
,,,,,,,,,,,,,,,,,576,30,Man,Right,0,21,0.4,2,0,180,180,0.6062311999994563,['y'],0.5515295000004699,1.862,1355.2212068000008,,,,,576,30,Man,Right,
,,,,,,,,,,,,,,,,,576,30,Man,Right,0,31,0.4,2,180,0,0,0.3971856000007392,['y'],0.49487670000053186,1.776,1358.8043319000008,,,,,576,30,Man,Right,
,,,,,,,,,,,,,,,,,576,30,Man,Right,0,5,1,2,0,180,180,0.5047400000003108,['y'],0.4231300999999803,1.87,1362.4211999,,,,,576,30,Man,Right,
,,,,,,,,,,,,,,,,,576,30,Man,Right,0,9,0.4,2,0,180,180,0.36310579999917536,['y'],0.32716590000018186,1.8479999999999999,1365.4544628999993,,,,,576,30,Man,Right,
,,,,,,,,,,,,,,,,,576,30,Man,Right,0,39,0.4,2,180,0,0,0.3286160999996355,['y'],0.7667212000014842,1.8679999999999999,1368.9047685000005,,,,,576,30,Man,Right,
,,,,,,,,,,,,,,,,,576,30,Man,Right,0,63,0.15,2,180,0,180,0.5850750000008702,['y'],0.8873403999987204,1.8679999999999999,1372.8044257000001,,,,,576,30,Man,Right,
,,,,,,,,,,,,,,,,,576,30,Man,Right,0,53,0.15,2,0,180,0,0.32808180000029097,['y'],0.583221599999888,1.75,1377.0709428999999,,,,,576,30,Man,Right,
,,,,,,,,,,,,,,,,,576,30,Man,Right,0,69,0.15,2,0,180,0,0.8644262999987404,['n'],0.4388503000009223,1.78,1381.1876978,,,,,576,30,Man,Right,
,,,,,,,,,,,,,,,,,576,30,Man,Right,0,23,0.4,2,180,0,0,0.37170530000003055,['y'],0.6630165000005945,1.858,1384.7210426000001,,,,,576,30,Man,Right,
,,,,,,,,,,,,,,,,,576,30,Man,Right,0,44,0.15,1,0,-,0,0.8340021000003617,['n'],1.1349325999999564,1.8519999999999999,1389.4040982000006,,,,,576,30,Man,Right,
,,,,,,,,,,,,,,,,,576,30,Man,Right,0,29,0.4,2,0,180,180,0.44619629999942845,['y'],0.5190182000005734,1.858,1392.6878276000007,,,,,576,30,Man,Right,
,,,,,,,,,,,,,,,,,576,30,Man,Right,0,4,1,1,0,-,0,0.32160689999909664,['n'],1.1269562999987102,1.916,1397.121038700001,,,,,576,30,Man,Right,
,,,,,,,,,,,,,,,,,576,30,Man,Right,0,35,0.4,2,180,0,0,0.38542430000052263,['y'],0.4547433000007004,1.908,1400.2542515000005,,,,,576,30,Man,Right,
,,,,,,,,,,,,,,,,,576,30,Man,Right,0,18,0.4,1,180,-,180,0.8066317000011622,['n'],1.3671042999994825,1.962,1404.9209203999999,,,,,576,30,Man,Right,
,,,,,,,,,,,,,,,,,576,30,Man,Right,0,10,0.4,1,180,-,180,0.24001449999923352,['y'],0.9191998000005697,1.806,1408.4539707000004,,,,,576,30,Man,Right,
,,,,,,,,,,,,,,,,,576,30,Man,Right,1,46,0.15,1,180,-,180,1.3510478000007424,['n'],0.7588192000002891,1.822,1430.8036883999994,66.25,60.0,75.0,,576,30,Man,Right,
,,,,,,,,,,,,,,,,,576,30,Man,Right,1,27,0.4,2,180,0,0,0.5471605000002455,['y'],0.4549864000000525,1.888,1434.0703635999998,,,,,576,30,Man,Right,
,,,,,,,,,,,,,,,,,576,30,Man,Right,1,18,0.4,1,180,-,180,0.47617629999876954,['y'],0.5429132999997819,1.754,1437.5871339999994,,,,,576,30,Man,Right,
,,,,,,,,,,,,,,,,,576,30,Man,Right,1,0,1,1,0,-,0,0.2953354999990552,['y'],1.8628592999993998,1.774,1442.1371935999996,,,,,576,30,Man,Right,
,,,,,,,,,,,,,,,,,576,30,Man,Right,1,40,0.4,1,0,-,0,0.7074736000013218,['y'],0.9106560999989597,1.766,1446.1036698000007,,,,,576,30,Man,Right,
,,,,,,,,,,,,,,,,,576,30,Man,Right,1,29,0.4,2,0,180,180,0.2924059999986639,['y'],0.598994699999821,1.766,1449.2035737000006,,,,,576,30,Man,Right,
,,,,,,,,,,,,,,,,,576,30,Man,Right,1,37,0.4,2,0,180,180,0.310284799999863,['y'],0.4629401999991387,1.766,1452.386907600001,,,,,576,30,Man,Right,
,,,,,,,,,,,,,,,,,576,30,Man,Right,1,23,0.4,2,180,0,0,0.23794049999924027,['y'],0.830865799998719,1.83,1456.0034520000008,,,,,576,30,Man,Right,
,,,,,,,,,,,,,,,,,576,30,Man,Right,1,78,0.15,1,180,-,180,0.39681909999853815,['n'],0.8149303999998665,1.772,1460.2035211000002,,,,,576,30,Man,Right,
,,,,,,,,,,,,,,,,,576,30,Man,Right,1,73,0.15,2,0,180,0,0.34170110000013665,['n'],0.8230466000004526,1.764,1464.5701993000002,,,,,576,30,Man,Right,
,,,,,,,,,,,,,,,,,576,30,Man,Right,1,24,0.4,1,0,-,0,0.31861430000026303,['n'],1.5190058000007411,1.732,1468.7204755000002,,,,,576,30,Man,Right,
,,,,,,,,,,,,,,,,,576,30,Man,Right,1,74,0.15,1,180,-,0,0.7482104999999137,['n'],0.6870921999998245,1.714,1472.8369421000007,,,,,576,30,Man,Right,
,,,,,,,,,,,,,,,,,576,30,Man,Right,1,67,0.15,2,180,0,180,0.44508760000098846,['n'],0.7187888000007661,1.708,1476.4375719,,,,,576,30,Man,Right,
,,,,,,,,,,,,,,,,,576,30,Man,Right,1,7,1,2,180,0,0,0.24349570000049425,['y'],0.5510500999989745,1.76,1480.4199883,,,,,576,30,Man,Right,
,,,,,,,,,,,,,,,,,576,30,Man,Right,1,76,0.15,1,0,-,180,0.7797329000004538,['n'],0.7030326000003697,1.776,1484.2866625999995,,,,,576,30,Man,Right,
,,,,,,,,,,,,,,,,,576,30,Man,Right,1,75,0.15,2,180,0,0,1.11670420000155,['n'],0.7432780999988609,1.77,1488.9535326999994,,,,,576,30,Man,Right,
,,,,,,,,,,,,,,,,,576,30,Man,Right,1,41,0.4,2,0,180,180,0.3356216000011045,['y'],0.6149174999991374,1.784,1492.2032980000004,,,,,576,30,Man,Right,
,,,,,,,,,,,,,,,,,576,30,Man,Right,1,21,0.4,2,0,180,180,0.3243160000001808,['y'],0.5988969000009092,1.784,1495.3866730999998,,,,,576,30,Man,Right,
,,,,,,,,,,,,,,,,,576,30,Man,Right,1,19,0.4,2,180,0,0,0.3741933999990579,['n'],1.8228515999999217,1.182,1501.8039699,,,,,576,30,Man,Right,
,,,,,,,,,,,,,,,,,576,30,Man,Right,1,34,0.4,1,180,-,0,0.32053909999922325,['y'],1.0067799999997078,1.838,1505.7197424999995,,,,,576,30,Man,Right,
,,,,,,,,,,,,,,,,,576,30,Man,Right,1,39,0.4,2,180,0,0,0.21789939999871422,['y'],0.815443100000266,1.846,1509.1363720999998,,,,,576,30,Man,Right,
,,,,,,,,,,,,,,,,,576,30,Man,Right,1,45,0.15,2,0,180,0,0.2665874000012991,['n'],0.8631351000003633,1.842,1512.503009600001,,,,,576,30,Man,Right,
,,,,,,,,,,,,,,,,,576,30,Man,Right,1,55,0.15,2,180,0,180,0.9437717000000703,['n'],0.8388866000004782,1.8439999999999999,1516.9363496000005,,,,,576,30,Man,Right,
,,,,,,,,,,,,,,,,,576,30,Man,Right,1,12,0.4,1,0,-,0,0.27982630000042263,['y'],0.5910797000015009,1.812,1520.6364364,,,,,576,30,Man,Right,
,,,,,,,,,,,,,,,,,576,30,Man,Right,1,14,0.4,1,180,-,180,0.39129700000012235,['n'],0.7027256999990641,1.812,1524.2529316,,,,,576,30,Man,Right,
,,,,,,,,,,,,,,,,,576,30,Man,Right,1,79,0.15,2,180,0,0,0.416793599999437,['n'],0.8841895999994449,1.812,1527.8862086999998,,,,,576,30,Man,Right,
,,,,,,,,,,,,,,,,,576,30,Man,Right,1,9,0.4,2,0,180,180,0.4015889000002062,['y'],0.5745268000009673,1.812,1531.7199261999995,,,,,576,30,Man,Right,
,,,,,,,,,,,,,,,,,576,30,Man,Right,1,3,1,2,180,0,0,0.21401109999897017,['y'],0.5269064000003709,1.812,1534.8028472999995,,,,,576,30,Man,Right,
,,,,,,,,,,,,,,,,,576,30,Man,Right,1,38,0.4,1,180,-,180,0.7761157000004459,['n'],1.0231719999992492,1.822,1538.8527809999996,,,,,576,30,Man,Right,
,,,,,,,,,,,,,,,,,576,30,Man,Right,1,63,0.15,2,180,0,0,0.46256220000032044,['y'],0.5512559999988298,1.82,1542.0371109999996,,,,,576,30,Man,Right,
,,,,,,,,,,,,,,,,,576,30,Man,Right,1,35,0.4,2,180,0,0,0.3841370000009192,['y'],0.8311133999995945,1.82,1545.536237800001,,,,,576,30,Man,Right,
,,,,,,,,,,,,,,,,,576,30,Man,Right,1,2,1,1,180,-,0,0.2714421999990009,['y'],0.6555315000005066,1.82,1548.8194330000006,,,,,576,30,Man,Right,
,,,,,,,,,,,,,,,,,576,30,Man,Right,1,57,0.15,2,0,180,180,0.4445861000003788,['y'],0.8469799000013154,1.846,1552.4027139999998,,,,,576,30,Man,Right,
,,,,,,,,,,,,,,,,,576,30,Man,Right,1,77,0.15,2,0,180,0,0.14881680000144115,['y'],0.6629668999994465,1.846,1555.5359597000006,,,,,576,30,Man,Right,
,,,,,,,,,,,,,,,,,576,30,Man,Right,1,50,0.15,1,180,-,180,0.600680999999895,['n'],0.8069335000000137,1.846,1559.5859342999993,,,,,576,30,Man,Right,
,,,,,,,,,,,,,,,,,576,30,Man,Right,1,49,0.15,2,0,180,180,0.3723567999986699,['y'],0.43882729999859293,1.824,1562.7025871000005,,,,,576,30,Man,Right,
,,,,,,,,,,,,,,,,,576,30,Man,Right,1,47,0.15,2,180,0,0,0.29297589999987395,['y'],1.7669643999997788,1.822,1566.9525193000009,,,,,576,30,Man,Right,
,,,,,,,,,,,,,,,,,576,30,Man,Right,1,51,0.15,2,180,0,180,0.8178532000001724,['n'],0.7267708999988827,1.818,1571.0691566999994,,,,,576,30,Man,Right,
,,,,,,,,,,,,,,,,,576,30,Man,Right,1,60,0.15,1,0,-,0,0.26962859999912325,['y'],2.0470187999999325,1.796,1575.7523597,,,,,576,30,Man,Right,
,,,,,,,,,,,,,,,,,576,30,Man,Right,1,22,0.4,1,180,-,180,0.08905520000007527,['y'],0.8631996999993135,1.794,1579.1359262999995,,,,,576,30,Man,Right,
,,,,,,,,,,,,,,,,,576,30,Man,Right,1,8,0.4,1,0,-,0,0.3835196999989421,['n'],0.4171315000003233,1.792,1583.1857015000005,,,,,576,30,Man,Right,
,,,,,,,,,,,,,,,,,576,30,Man,Right,1,4,1,1,0,-,0,0.6166360999995959,['n'],0.8388155000011466,1.778,1586.935746000001,,,,,576,30,Man,Right,
,,,,,,,,,,,,,,,,,576,30,Man,Right,1,64,0.15,1,0,-,180,0.7185461999997642,['n'],0.9107311999996455,1.776,1590.9522564,,,,,576,30,Man,Right,
,,,,,,,,,,,,,,,,,576,30,Man,Right,1,30,0.4,1,180,-,0,0.9905312999999296,['n'],0.6708196999989013,1.772,1594.9359492999993,,,,,576,30,Man,Right,
,,,,,,,,,,,,,,,,,576,30,Man,Right,1,11,0.4,2,180,0,0,0.7876242999991518,['n'],0.4945531999983359,1.294,1599.2855280999993,,,,,576,30,Man,Right,
,,,,,,,,,,,,,,,,,576,30,Man,Right,1,32,0.4,1,0,-,180,0.1380449000007502,['n'],1.1588715000016236,1.67,1603.1190742,,,,,576,30,Man,Right,
,,,,,,,,,,,,,,,,,576,30,Man,Right,1,65,0.15,2,0,180,0,0.5855523000009271,['n'],0.7828017000010732,1.776,1606.9189700000006,,,,,576,30,Man,Right,
,,,,,,,,,,,,,,,,,576,30,Man,Right,1,54,0.15,1,180,-,180,0.3453715000014199,['y'],0.5114842999992106,1.722,1610.2523715000007,,,,,576,30,Man,Right,
,,,,,,,,,,,,,,,,,576,30,Man,Right,1,68,0.15,1,0,-,0,1.2992840999995678,['y'],0.510735100000602,1.722,1614.3858509000002,,,,,576,30,Man,Right,
,,,,,,,,,,,,,,,,,576,30,Man,Right,1,48,0.15,1,0,-,180,0.441280299999562,['n'],0.8469645000004675,1.72,1618.0187482000001,,,,,576,30,Man,Right,
,,,,,,,,,,,,,,,,,576,30,Man,Right,1,17,0.4,2,0,180,180,0.863424600000144,['y'],0.5909829000011086,1.72,1621.702260600001,,,,,576,30,Man,Right,
,,,,,,,,,,,,,,,,,576,30,Man,Right,1,71,0.15,2,180,0,180,0.690124000000651,['n'],0.686880299999757,1.72,1625.3354144000004,,,,,576,30,Man,Right,
,,,,,,,,,,,,,,,,,576,30,Man,Right,1,20,0.4,1,0,-,180,0.6015653999984352,['n'],1.0947810999987269,1.762,1629.5021990999994,,,,,576,30,Man,Right,
,,,,,,,,,,,,,,,,,576,30,Man,Right,1,44,0.15,1,0,-,180,0.40434100000129547,['n'],0.5822285000012926,1.74,1633.1688489999997,,,,,576,30,Man,Right,
,,,,,,,,,,,,,,,,,576,30,Man,Right,1,62,0.15,1,180,-,0,0.5447915000004286,['n'],1.247023199999603,1.736,1637.3019882999997,,,,,576,30,Man,Right,
,,,,,,,,,,,,,,,,,576,30,Man,Right,1,1,1,2,0,180,180,0.39715439999963564,['y'],0.5910353999988729,1.798,1640.6018769000002,,,,,576,30,Man,Right,
,,,,,,,,,,,,,,,,,576,30,Man,Right,1,13,0.4,2,0,180,180,0.5005459999993036,['y'],0.6946730999989086,1.814,1644.0852065,,,,,576,30,Man,Right,
,,,,,,,,,,,,,,,,,576,30,Man,Right,1,42,0.4,1,180,-,0,0.8167238999994879,['n'],0.5564597000011418,1.814,1647.6685247999994,,,,,576,30,Man,Right,
,,,,,,,,,,,,,,,,,576,30,Man,Right,1,6,1,1,180,-,0,0.6703890999997384,['y'],0.6152364000008674,1.834,1651.2518326000009,,,,,576,30,Man,Right,
,,,,,,,,,,,,,,,,,576,30,Man,Right,1,5,1,2,0,180,180,0.2723394999993616,['y'],0.5348371000000043,1.8719999999999999,1654.3688032999999,,,,,576,30,Man,Right,
,,,,,,,,,,,,,,,,,576,30,Man,Right,1,33,0.4,2,0,180,180,0.5245608000004722,['y'],0.43069310000100813,1.8599999999999999,1657.5018273999995,,,,,576,30,Man,Right,
,,,,,,,,,,,,,,,,,576,30,Man,Right,1,59,0.15,2,180,0,0,0.3751107000007323,['y'],0.47893239999939397,1.8599999999999999,1660.4685886000007,,,,,576,30,Man,Right,
,,,,,,,,,,,,,,,,,576,30,Man,Right,1,16,0.4,1,0,-,180,0.44741030000113824,['y'],1.0306509000001824,1.8599999999999999,1664.0685233000004,,,,,576,30,Man,Right,
,,,,,,,,,,,,,,,,,576,30,Man,Right,1,58,0.15,1,180,-,180,1.3112665000007837,['y'],0.42299459999958344,1.8599999999999999,1667.9851954999995,,,,,576,30,Man,Right,
,,,,,,,,,,,,,,,,,576,30,Man,Right,1,31,0.4,2,180,0,0,0.327916299998833,['y'],0.5990108999994845,1.8599999999999999,1671.1184064000008,,,,,576,30,Man,Right,
,,,,,,,,,,,,,,,,,576,30,Man,Right,1,69,0.15,2,0,180,180,0.18647489999966638,['n'],0.6711104000005435,1.8599999999999999,1674.1684557000008,,,,,576,30,Man,Right,
,,,,,,,,,,,,,,,,,576,30,Man,Right,1,15,0.4,2,180,0,0,0.2878696999996464,['y'],0.44755239999904006,1.8599999999999999,1677.2185332000008,,,,,576,30,Man,Right,
,,,,,,,,,,,,,,,,,576,30,Man,Right,1,56,0.15,1,0,-,0,0.6773131000009016,['n'],0.8788454999994428,1.8599999999999999,1681.235010800001,,,,,576,30,Man,Right,
,,,,,,,,,,,,,,,,,576,30,Man,Right,1,61,0.15,2,0,180,0,0.30941729999904055,['n'],0.7351436999997532,1.73,1684.4848968000006,,,,,576,30,Man,Right,
,,,,,,,,,,,,,,,,,576,30,Man,Right,1,26,0.4,1,180,-,0,0.278006299999106,['n'],0.535143799999787,1.728,1688.134830500001,,,,,576,30,Man,Right,
,,,,,,,,,,,,,,,,,576,30,Man,Right,1,53,0.15,2,0,180,0,1.3153022000005876,['n'],0.36691029999929015,1.72,1691.9847823,,,,,576,30,Man,Right,
,,,,,,,,,,,,,,,,,576,30,Man,Right,1,28,0.4,1,0,-,180,1.5033177999994223,['n'],0.6870115999990958,1.72,1696.418000900001,,,,,576,30,Man,Right,
,,,,,,,,,,,,,,,,,576,30,Man,Right,1,36,0.4,1,0,-,0,0.16868370000156574,['y'],0.6554099000004499,1.72,1699.468237000001,,,,,576,30,Man,Right,
,,,,,,,,,,,,,,,,,576,30,Man,Right,1,70,0.15,1,180,-,0,0.6166130999990855,['n'],0.8297306999993452,1.72,1703.384579900001,,,,,576,30,Man,Right,
,,,,,,,,,,,,,,,,,576,30,Man,Right,1,72,0.15,1,0,-,0,0.2688257000008889,['n'],0.6149207999987993,1.72,1706.5679497,,,,,576,30,Man,Right,
,,,,,,,,,,,,,,,,,576,30,Man,Right,1,10,0.4,1,180,-,0,0.27475159999994503,['n'],1.4550282000000152,1.72,1710.5521425999996,,,,,576,30,Man,Right,
,,,,,,,,,,,,,,,,,576,30,Man,Right,1,25,0.4,2,0,180,0,0.1374056999993627,['y'],0.8234283999991021,1.72,1713.6177939000008,,,,,576,30,Man,Right,
,,,,,,,,,,,,,,,,,576,30,Man,Right,1,52,0.15,1,0,-,0,1.4308571000001393,['n'],0.7342871999990166,1.76,1717.9511884000003,,,,,576,30,Man,Right,
,,,,,,,,,,,,,,,,,576,30,Man,Right,1,43,0.4,2,180,0,0,0.22647969999889028,['y'],0.4788411999998061,1.766,1720.8511674000001,,,,,576,30,Man,Right,
,,,,,,,,,,,,,,,,,576,30,Man,Right,1,66,0.15,1,180,-,180,0.46644199999900593,['n'],0.5908448999998654,1.766,1724.3850980000007,,,,,576,30,Man,Right,
,,,,,,,,,,,,,,,,,576,30,Man,Right,2,20,0.4,1,0,-,0,0.05054799999925308,['n'],1.2628420000000915,1.782,1730.7011648999996,63.75,65.0,65.0,,576,30,Man,Right,
,,,,,,,,,,,,,,,,,576,30,Man,Right,2,70,0.15,1,180,-,0,0.055377900000166846,['n'],0.8869477999996889,1.782,1733.8843001000005,,,,,576,30,Man,Right,
,,,,,,,,,,,,,,,,,576,30,Man,Right,2,73,0.15,2,0,180,0,0.07977179999943473,['n'],0.8312418999994406,1.782,1737.0013302000007,,,,,576,30,Man,Right,
,,,,,,,,,,,,,,,,,576,30,Man,Right,2,35,0.4,2,180,0,0,0.07924270000148681,['y'],0.7348278999998001,1.714,1740.0018191,,,,,576,30,Man,Right,
,,,,,,,,,,,,,,,,,576,30,Man,Right,2,12,0.4,1,0,-,0,0.41669269999874814,['y'],0.4951913000004424,1.7,1743.3510394000004,,,,,576,30,Man,Right,
,,,,,,,,,,,,,,,,,576,30,Man,Right,2,24,0.4,1,0,-,0,0.06053979999887815,['n'],0.5183156000002782,1.7,1748.4007972,,,,,576,30,Man,Right,
,,,,,,,,,,,,,,,,,576,30,Man,Right,2,46,0.15,1,180,-,0,0.09877549999873736,['n'],0.7188025000014022,1.7,1751.3842105000003,,,,,576,30,Man,Right,
,,,,,,,,,,,,,,,,,576,30,Man,Right,2,69,0.15,2,0,180,0,0.25813409999864234,['n'],1.7349052999998094,1.79,1756.1174886000008,,,,,576,30,Man,Right,
,,,,,,,,,,,,,,,,,576,30,Man,Right,2,4,1,1,0,-,180,0.7006410999983927,['y'],0.5032790999994177,1.79,1759.6679392000005,,,,,576,30,Man,Right,
,,,,,,,,,,,,,,,,,576,30,Man,Right,2,3,1,2,180,0,0,0.12104069999986677,['y'],0.4706754999988334,1.784,1762.4010837999995,,,,,576,30,Man,Right,
,,,,,,,,,,,,,,,,,576,30,Man,Right,2,15,0.4,2,180,0,0,0.2960547000002407,['y'],0.6469784999990225,1.822,1765.7674097,,,,,576,30,Man,Right,
,,,,,,,,,,,,,,,,,576,30,Man,Right,2,43,0.4,2,180,0,0,0.05952940000133822,['y'],0.8153787999999622,1.8439999999999999,1769.0340589999996,,,,,576,30,Man,Right,
,,,,,,,,,,,,,,,,,576,30,Man,Right,2,79,0.15,2,180,0,0,0.1893233999999211,['y'],1.1352132000010897,1.8439999999999999,1772.5840222000006,,,,,576,30,Man,Right,
,,,,,,,,,,,,,,,,,576,30,Man,Right,2,68,0.15,1,0,-,180,0.21573180000086722,['n'],0.6465545000010025,1.8439999999999999,1775.7009228999996,,,,,576,30,Man,Right,
,,,,,,,,,,,,,,,,,576,30,Man,Right,2,11,0.4,2,180,0,0,0.07022799999867857,['y'],0.8309172999997827,1.8439999999999999,1778.8339644999996,,,,,576,30,Man,Right,
,,,,,,,,,,,,,,,,,576,30,Man,Right,2,9,0.4,2,0,180,0,0.24951860000146553,['n'],0.45482500000071013,1.8439999999999999,1782.1509821,,,,,576,30,Man,Right,
,,,,,,,,,,,,,,,,,576,30,Man,Right,2,7,1,2,180,0,0,0.06747739999991609,['y'],0.42329549999885785,1.8439999999999999,1785.0174807000003,,,,,576,30,Man,Right,
,,,,,,,,,,,,,,,,,576,30,Man,Right,2,42,0.4,1,180,-,0,0.5861039999999775,['n'],0.7830236000008881,1.8439999999999999,1788.8010147999994,,,,,576,30,Man,Right,
,,,,,,,,,,,,,,,,,576,30,Man,Right,2,78,0.15,1,180,-,0,0.21561649999966903,['n'],0.8066980999992666,1.73,1792.5507357000006,,,,,576,30,Man,Right,
,,,,,,,,,,,,,,,,,576,30,Man,Right,2,21,0.4,2,0,180,180,0.3406107000009797,['y'],0.5827689999987342,1.71,1795.8510872999996,,,,,576,30,Man,Right,
,,,,,,,,,,,,,,,,,576,30,Man,Right,2,50,0.15,1,180,-,0,0.24223859999983688,['y'],1.031088900001123,1.75,1799.3505454999995,,,,,576,30,Man,Right,
,,,,,,,,,,,,,,,,,576,30,Man,Right,2,22,0.4,1,180,-,0,0.2543769000003522,['n'],0.7271744999998191,1.712,1802.7336553000005,,,,,576,30,Man,Right,
,,,,,,,,,,,,,,,,,576,30,Man,Right,2,0,1,1,0,-,0,0.17239239999980782,['y'],0.6630254000010609,1.752,1806.0006436000003,,,,,576,30,Man,Right,
,,,,,,,,,,,,,,,,,576,30,Man,Right,2,16,0.4,1,0,-,0,0.17252770000050077,['y'],0.6869514999998501,1.83,1808.9506012000002,,,,,576,30,Man,Right,
,,,,,,,,,,,,,,,,,576,30,Man,Right,2,55,0.15,2,180,0,0,0.3658498000004329,['y'],1.2549214999999094,1.83,1812.683633300001,,,,,576,30,Man,Right,
,,,,,,,,,,,,,,,,,576,30,Man,Right,2,13,0.4,2,0,180,180,0.3118880000001809,['y'],0.6468784000007872,1.83,1815.8336583,,,,,576,30,Man,Right,
,,,,,,,,,,,,,,,,,576,30,Man,Right,2,17,0.4,2,0,180,180,0.23327870000139228,['y'],0.5196684000002278,1.83,1818.7337571999997,,,,,576,30,Man,Right,
,,,,,,,,,,,,,,,,,576,30,Man,Right,2,75,0.15,2,180,0,180,0.22837230000004638,['y'],0.590906500001438,1.83,1821.7170879999994,,,,,576,30,Man,Right,
,,,,,,,,,,,,,,,,,576,30,Man,Right,2,72,0.15,1,0,-,0,0.6499942999998893,['n'],0.45621359999859123,1.83,1826.2168617999996,,,,,576,30,Man,Right,
,,,,,,,,,,,,,,,,,576,30,Man,Right,2,2,1,1,180,-,0,0.649449900000036,['y'],0.4231853000001138,1.768,1829.5004011,,,,,576,30,Man,Right,
,,,,,,,,,,,,,,,,,576,30,Man,Right,2,34,0.4,1,180,-,0,0.4314502999986871,['y'],0.47890410000036354,1.782,1832.5834231000008,,,,,576,30,Man,Right,
,,,,,,,,,,,,,,,,,576,30,Man,Right,2,31,0.4,2,180,0,0,0.2074838999997155,['y'],0.5590094999988651,1.708,1835.466689500001,,,,,576,30,Man,Right,
,,,,,,,,,,,,,,,,,576,30,Man,Right,2,14,0.4,1,180,-,0,0.19513740000002144,['y'],0.5345175999991625,1.77,1838.2834389,,,,,576,30,Man,Right,
,,,,,,,,,,,,,,,,,576,30,Man,Right,2,71,0.15,2,180,0,0,0.3516386999999668,['y'],0.6228437999998278,1.778,1841.400715400001,,,,,576,30,Man,Right,
,,,,,,,,,,,,,,,,,576,30,Man,Right,2,61,0.15,2,0,180,0,0.49079300000084913,['y'],0.5508902000001399,1.778,1845.1166391000006,,,,,576,30,Man,Right,
,,,,,,,,,,,,,,,,,576,30,Man,Right,2,63,0.15,2,180,0,0,0.22682399999939662,['y'],0.5508461999997962,1.734,1848.1668246999998,,,,,576,30,Man,Right,
,,,,,,,,,,,,,,,,,576,30,Man,Right,2,38,0.4,1,180,-,180,0.36353239999880316,['y'],0.42290049999974144,1.734,1851.5501602999993,,,,,576,30,Man,Right,
,,,,,,,,,,,,,,,,,576,30,Man,Right,2,30,0.4,1,180,-,0,0.22023079999962647,['n'],0.6872409999996307,1.734,1855.2834026,,,,,576,30,Man,Right,
,,,,,,,,,,,,,,,,,576,30,Man,Right,2,18,0.4,1,180,-,180,0.20031339999877673,['y'],0.4630010000000766,1.6,1858.0832857999994,,,,,576,30,Man,Right,
,,,,,,,,,,,,,,,,,576,30,Man,Right,2,52,0.15,1,0,-,0,0.20624919999863778,['y'],1.2068996999987576,1.692,1862.217750400001,,,,,576,30,Man,Right,
,,,,,,,,,,,,,,,,,576,30,Man,Right,2,6,1,1,180,-,0,0.2249988999992638,['y'],0.5029083000008541,1.768,1865.2168488000007,,,,,576,30,Man,Right,
,,,,,,,,,,,,,,,,,576,30,Man,Right,2,51,0.15,2,180,0,180,0.20587110000087705,['y'],0.3666982000013377,1.768,1868.1667675000008,,,,,576,30,Man,Right,
,,,,,,,,,,,,,,,,,576,30,Man,Right,2,40,0.4,1,0,-,0,0.17320209999888903,['n'],0.5749660999990738,1.768,1871.2830835000004,,,,,576,30,Man,Right,
,,,,,,,,,,,,,,,,,576,30,Man,Right,2,41,0.4,2,0,180,180,0.2698640000016894,['y'],0.5350964999997814,1.768,1874.2166875000003,,,,,576,30,Man,Right,
,,,,,,,,,,,,,,,,,576,30,Man,Right,2,19,0.4,2,180,0,0,0.16029619999972056,['n'],0.5989769000007072,1.282,1878.1831579999998,,,,,576,30,Man,Right,
,,,,,,,,,,,,,,,,,576,30,Man,Right,2,10,0.4,1,180,-,180,0.33642020000115735,['y'],0.38283450000017183,1.714,1881.9330855999997,,,,,576,30,Man,Right,
,,,,,,,,,,,,,,,,,576,30,Man,Right,2,1,1,2,0,180,180,0.27789920000032,['y'],0.3990923000001203,1.842,1885.1165187000006,,,,,576,30,Man,Right,
,,,,,,,,,,,,,,,,,576,30,Man,Right,2,53,0.15,2,0,180,0,0.2232523000002402,['n'],0.8308835999996518,1.722,1888.5497035999997,,,,,576,30,Man,Right,
,,,,,,,,,,,,,,,,,576,30,Man,Right,2,60,0.15,1,0,-,0,0.22728820000156702,['n'],0.5034300000006624,1.6680000000000001,1891.5338515000003,,,,,576,30,Man,Right,
,,,,,,,,,,,,,,,,,576,30,Man,Right,2,62,0.15,1,180,-,0,0.7006287000003795,['n'],0.34320169999955397,1.6680000000000001,1895.132886200001,,,,,576,30,Man,Right,
,,,,,,,,,,,,,,,,,576,30,Man,Right,2,56,0.15,1,0,-,0,0.017154899998786277,['n'],0.42579440000008617,1.75,1898.1829340000004,,,,,576,30,Man,Right,
,,,,,,,,,,,,,,,,,576,30,Man,Right,2,48,0.15,1,0,-,180,0.17807950000133133,['n'],0.5672606000007363,1.748,1901.4329656999998,,,,,576,30,Man,Right,
,,,,,,,,,,,,,,,,,576,30,Man,Right,2,44,0.15,1,0,-,0,0.09800769999856129,['n'],0.583002999999735,1.748,1904.4838314000008,,,,,576,30,Man,Right,
,,,,,,,,,,,,,,,,,576,30,Man,Right,2,65,0.15,2,0,180,180,0.15861149999909685,['n'],0.7669562999999471,1.756,1908.316146700001,,,,,576,30,Man,Right,
,,,,,,,,,,,,,,,,,576,30,Man,Right,2,37,0.4,2,0,180,180,0.3975398000002315,['y'],0.5110394999992423,1.74,1911.3995302000003,,,,,576,30,Man,Right,
,,,,,,,,,,,,,,,,,576,30,Man,Right,2,64,0.15,1,0,-,0,0.2695699000014429,['y'],0.9831026000010752,1.8780000000000001,1914.9327279000008,,,,,576,30,Man,Right,
,,,,,,,,,,,,,,,,,576,30,Man,Right,2,54,0.15,1,180,-,0,0.23233470000013767,['n'],0.7027397999991081,1.776,1918.0329621,,,,,576,30,Man,Right,
,,,,,,,,,,,,,,,,,576,30,Man,Right,2,39,0.4,2,180,0,0,0.3847057000002678,['y'],0.5509555999997247,1.804,1921.1664132999995,,,,,576,30,Man,Right,
,,,,,,,,,,,,,,,,,576,30,Man,Right,2,49,0.15,2,0,180,180,0.3595898000003217,['y'],0.93483279999964,1.816,1924.599373000001,,,,,576,30,Man,Right,
,,,,,,,,,,,,,,,,,576,30,Man,Right,2,28,0.4,1,0,-,0,0.3488809999998921,['n'],0.47896369999944,1.81,1927.5493349000008,,,,,576,30,Man,Right,
,,,,,,,,,,,,,,,,,576,30,Man,Right,2,32,0.4,1,0,-,0,0.26081430000158434,['n'],0.6152533999993466,1.726,1930.532662900001,,,,,576,30,Man,Right,
,,,,,,,,,,,,,,,,,576,30,Man,Right,2,8,0.4,1,0,-,0,0.37894149999920046,['n'],0.34318610000082117,1.726,1933.5327171999998,,,,,576,30,Man,Right,
,,,,,,,,,,,,,,,,,576,30,Man,Right,2,74,0.15,1,180,-,180,0.33358210000005784,['y'],0.4633169999997335,1.736,1936.666158600001,,,,,576,30,Man,Right,
,,,,,,,,,,,,,,,,,576,30,Man,Right,2,47,0.15,2,180,0,0,0.5505338999992091,['n'],0.3350614000009955,1.818,1939.6825566000007,,,,,576,30,Man,Right,
,,,,,,,,,,,,,,,,,576,30,Man,Right,2,59,0.15,2,180,0,0,0.20502200000009907,['n'],0.5429316999998264,1.818,1942.6325108,,,,,576,30,Man,Right,
,,,,,,,,,,,,,,,,,576,30,Man,Right,2,26,0.4,1,180,-,180,0.29699129999971774,['n'],0.4792531000002782,1.818,1945.9494142000003,,,,,576,30,Man,Right,
,,,,,,,,,,,,,,,,,576,30,Man,Right,2,36,0.4,1,0,-,0,0.2209450000009383,['n'],0.37588959999993676,1.742,1949.1660522000002,,,,,576,30,Man,Right,
,,,,,,,,,,,,,,,,,576,30,Man,Right,2,67,0.15,2,180,0,0,0.8078808999998728,['n'],0.5427493999995932,1.738,1952.8826647000005,,,,,576,30,Man,Right,
,,,,,,,,,,,,,,,,,576,30,Man,Right,2,58,0.15,1,180,-,0,0.732343800000308,['y'],0.6229141999992862,1.738,1956.6326711000002,,,,,576,30,Man,Right,
,,,,,,,,,,,,,,,,,576,30,Man,Right,2,76,0.15,1,0,-,0,0.4818672000001243,['y'],0.8227160999995249,1.738,1960.1493348000004,,,,,576,30,Man,Right,
,,,,,,,,,,,,,,,,,576,30,Man,Right,2,33,0.4,2,0,180,180,0.6527222999993683,['y'],0.7506059000006644,1.738,1963.882585200001,,,,,576,30,Man,Right,
,,,,,,,,,,,,,,,,,576,30,Man,Right,2,29,0.4,2,0,180,0,0.9042943000004016,['y'],0.3829953000004025,1.736,1967.298972300001,,,,,576,30,Man,Right,
,,,,,,,,,,,,,,,,,576,30,Man,Right,2,66,0.15,1,180,-,0,0.2785739000009926,['y'],0.8389853999997285,1.774,1970.6157433999997,,,,,576,30,Man,Right,
,,,,,,,,,,,,,,,,,576,30,Man,Right,2,27,0.4,2,180,0,0,1.213185099999464,['y'],2.0869548000009672,1.8,1976.7159857000006,,,,,576,30,Man,Right,
,,,,,,,,,,,,,,,,,576,30,Man,Right,2,5,1,2,0,180,180,0.2787469999984751,['y'],0.48729050000110874,1.8,1980.2824151999994,,,,,576,30,Man,Right,
,,,,,,,,,,,,,,,,,576,30,Man,Right,2,23,0.4,2,180,0,0,0.3493826000012632,['y'],0.6471896000002744,1.826,1983.5999677,,,,,576,30,Man,Right,
,,,,,,,,,,,,,,,,,576,30,Man,Right,2,77,0.15,2,0,180,180,0.5968194999986736,['y'],0.5347738999989815,1.846,1986.949237500001,,,,,576,30,Man,Right,
,,,,,,,,,,,,,,,,,576,30,Man,Right,2,45,0.15,2,0,180,180,0.4625409000000218,['y'],0.5989866999989317,1.8780000000000001,1990.3821153999997,,,,,576,30,Man,Right,
,,,,,,,,,,,,,,,,,576,30,Man,Right,2,25,0.4,2,0,180,0,0.46669310000106634,['y'],0.7830582999995386,1.954,1993.8153382,,,,,576,30,Man,Right,
,,,,,,,,,,,,,,,,,576,30,Man,Right,2,57,0.15,2,0,180,180,1.5087380999993911,['y'],0.49525920000087353,1.768,1998.3987601000008,,,,,576,30,Man,Right,
,,,,,,,,,,,,,,,,,576,30,Man,Right,3,71,0.15,2,180,0,180,0.43558520000078715,['y'],0.34308729999975185,1.828,2005.8986642,66.25,55.0,77.5,,576,30,Man,Right,
,,,,,,,,,,,,,,,,,576,30,Man,Right,3,53,0.15,2,0,180,180,0.23160079999979644,['y'],0.41565409999930125,1.812,2008.6995097,,,,,576,30,Man,Right,
,,,,,,,,,,,,,,,,,576,30,Man,Right,3,21,0.4,2,0,180,180,0.26231640000150946,['y'],0.33495220000077097,1.922,2012.416202800001,,,,,576,30,Man,Right,
,,,,,,,,,,,,,,,,,576,30,Man,Right,3,58,0.15,1,180,-,180,0.3852078999989317,['y'],0.3747697999988304,1.8860000000000001,2015.4820648999994,,,,,576,30,Man,Right,
,,,,,,,,,,,,,,,,,576,30,Man,Right,3,70,0.15,1,180,-,180,0.30326570000033826,['y'],0.49495260000003327,1.962,2018.5818865,,,,,576,30,Man,Right,
,,,,,,,,,,,,,,,,,576,30,Man,Right,3,38,0.4,1,180,-,0,0.36767150000014226,['n'],0.6788182999989658,1.874,2022.1820585000005,,,,,576,30,Man,Right,
,,,,,,,,,,,,,,,,,576,30,Man,Right,3,73,0.15,2,0,180,180,0.4200003000005381,['y'],0.39078580000023067,1.758,2025.5820549,,,,,576,30,Man,Right,
,,,,,,,,,,,,,,,,,576,30,Man,Right,3,61,0.15,2,0,180,180,0.504550300000119,['y'],0.6791087000001426,1.8599999999999999,2029.0484281000008,,,,,576,30,Man,Right,
,,,,,,,,,,,,,,,,,576,30,Man,Right,3,77,0.15,2,0,180,180,0.41910920000009355,['y'],0.5670030000001134,1.936,2032.2318558000006,,,,,576,30,Man,Right,
,,,,,,,,,,,,,,,,,576,30,Man,Right,3,6,1,1,180,-,0,0.47769289999996545,['n'],0.5025798000006034,1.18,2036.4324885999995,,,,,576,30,Man,Right,
,,,,,,,,,,,,,,,,,576,30,Man,Right,3,68,0.15,1,0,-,180,0.31011560000115423,['y'],0.5507760000000417,1.83,2039.8483085000007,,,,,576,30,Man,Right,
,,,,,,,,,,,,,,,,,576,30,Man,Right,3,50,0.15,1,180,-,0,0.28993199999968056,['y'],0.9111159000003681,1.8559999999999999,2043.2486055000008,,,,,576,30,Man,Right,
,,,,,,,,,,,,,,,,,576,30,Man,Right,3,16,0.4,1,0,-,180,0.17465329999868118,['y'],0.45487490000050457,1.8780000000000001,2046.2151262000007,,,,,576,30,Man,Right,
,,,,,,,,,,,,,,,,,576,30,Man,Right,3,55,0.15,2,180,0,180,0.3219590999997308,['y'],0.43093899999985297,1.922,2049.4649826999994,,,,,576,30,Man,Right,
,,,,,,,,,,,,,,,,,576,30,Man,Right,3,3,1,2,180,0,0,0.5368006999997306,['y'],0.39107789999980014,1.908,2052.5816283999993,,,,,576,30,Man,Right,
,,,,,,,,,,,,,,,,,576,30,Man,Right,3,15,0.4,2,180,0,0,0.5847263999985444,['y'],0.49489879999964614,1.954,2056.0815937000007,,,,,576,30,Man,Right,
,,,,,,,,,,,,,,,,,576,30,Man,Right,3,11,0.4,2,180,0,0,0.3695138000002771,['y'],0.566752799999449,1.932,2059.2650376,,,,,576,30,Man,Right,
,,,,,,,,,,,,,,,,,576,30,Man,Right,3,66,0.15,1,180,-,0,0.3840858000003209,['y'],0.3907760000001872,1.934,2062.3314506000006,,,,,576,30,Man,Right,
,,,,,,,,,,,,,,,,,576,30,Man,Right,3,51,0.15,2,180,0,0,0.4836128999995708,['y'],0.40820329999951355,1.932,2065.481380700001,,,,,576,30,Man,Right,
,,,,,,,,,,,,,,,,,576,30,Man,Right,3,42,0.4,1,180,-,0,0.49019440000120085,['y'],0.4869312999999238,1.836,2068.6150139,,,,,576,30,Man,Right,
,,,,,,,,,,,,,,,,,576,30,Man,Right,3,62,0.15,1,180,-,0,0.19279180000012275,['n'],0.6311800000003132,1.84,2071.7649882999995,,,,,576,30,Man,Right,
,,,,,,,,,,,,,,,,,576,30,Man,Right,3,24,0.4,1,0,-,0,0.4901238000002195,['n'],0.6549216999992495,1.816,2075.4646709999997,,,,,576,30,Man,Right,
,,,,,,,,,,,,,,,,,576,30,Man,Right,3,45,0.15,2,0,180,0,0.312981300001411,['y'],0.5827762000008079,1.816,2078.8647953,,,,,576,30,Man,Right,
,,,,,,,,,,,,,,,,,576,30,Man,Right,3,30,0.4,1,180,-,0,0.3949631000014051,['n'],0.45526239999890095,1.814,2082.2312003999996,,,,,576,30,Man,Right,
,,,,,,,,,,,,,,,,,576,30,Man,Right,3,23,0.4,2,180,0,0,0.3537453999997524,['n'],0.7028800999996747,1.72,2085.6145816999997,,,,,576,30,Man,Right,
,,,,,,,,,,,,,,,,,576,30,Man,Right,3,7,1,2,180,0,0,0.27446899999995367,['y'],0.6949071000017284,1.748,2089.1312830999996,,,,,576,30,Man,Right,
,,,,,,,,,,,,,,,,,576,30,Man,Right,3,28,0.4,1,0,-,0,0.37306549999993877,['y'],1.4711312999988877,1.75,2093.2479468,,,,,576,30,Man,Right,
,,,,,,,,,,,,,,,,,576,30,Man,Right,3,69,0.15,2,0,180,0,0.09976479999932053,['y'],0.9273268999986612,1.748,2096.731171900001,,,,,576,30,Man,Right,
,,,,,,,,,,,,,,,,,576,30,Man,Right,3,5,1,2,0,180,180,0.3359166999998706,['y'],0.39081979999900796,1.896,2099.7311702000006,,,,,576,30,Man,Right,
,,,,,,,,,,,,,,,,,576,30,Man,Right,3,35,0.4,2,180,0,0,0.27780189999975846,['y'],1.2148815999989893,1.996,2103.9143127000007,,,,,576,30,Man,Right,
,,,,,,,,,,,,,,,,,576,30,Man,Right,3,76,0.15,1,0,-,0,0.7732173000003968,['n'],0.4149510999995982,1.98,2107.4648557,,,,,576,30,Man,Right,
,,,,,,,,,,,,,,,,,576,30,Man,Right,3,49,0.15,2,0,180,0,0.3377065999993647,['n'],1.2549696999994921,1.88,2111.8647999000004,,,,,576,30,Man,Right,
,,,,,,,,,,,,,,,,,576,30,Man,Right,3,59,0.15,2,180,0,180,0.5765563000004477,['y'],0.7192723999996815,1.84,2115.6975982000004,,,,,576,30,Man,Right,
,,,,,,,,,,,,,,,,,576,30,Man,Right,3,64,0.15,1,0,-,180,1.0567991000007169,['y'],0.3106203999996069,1.792,2119.2976087999996,,,,,576,30,Man,Right,
,,,,,,,,,,,,,,,,,576,30,Man,Right,3,72,0.15,1,0,-,0,0.43474310000055993,['n'],0.886688000000504,1.808,2124.4308812,,,,,576,30,Man,Right,
,,,,,,,,,,,,,,,,,576,30,Man,Right,3,65,0.15,2,0,180,0,0.7500345000007655,['n'],0.7982885000001261,1.766,2128.6308265999996,,,,,576,30,Man,Right,
,,,,,,,,,,,,,,,,,576,30,Man,Right,3,19,0.4,2,180,0,0,0.3007307999996556,['y'],0.42320269999981974,1.766,2132.0809991000006,,,,,576,30,Man,Right,
,,,,,,,,,,,,,,,,,576,30,Man,Right,3,31,0.4,2,180,0,0,0.19671560000097088,['y'],0.4711585999993986,1.77,2135.0476498999997,,,,,576,30,Man,Right,
,,,,,,,,,,,,,,,,,576,30,Man,Right,3,36,0.4,1,0,-,0,0.3828997000000527,['y'],0.535160100000212,1.81,2138.197672800001,,,,,576,30,Man,Right,
,,,,,,,,,,,,,,,,,576,30,Man,Right,3,47,0.15,2,180,0,0,0.01672350000080769,['y'],0.44224129999929573,1.81,2141.3474628999993,,,,,576,30,Man,Right,
,,,,,,,,,,,,,,,,,576,30,Man,Right,3,48,0.15,1,0,-,0,0.09222369999952207,['y'],0.3508080000010523,1.81,2144.614301400001,,,,,576,30,Man,Right,
,,,,,,,,,,,,,,,,,576,30,Man,Right,3,0,1,1,0,-,180,1.1855992999990121,['y'],0.550988299999517,1.85,2149.347361600001,,,,,576,30,Man,Right,
,,,,,,,,,,,,,,,,,576,30,Man,Right,3,33,0.4,2,0,180,0,0.016717299999072566,['y'],0.761508400000821,1.928,2152.330725,,,,,576,30,Man,Right,
,,,,,,,,,,,,,,,,,576,30,Man,Right,3,14,0.4,1,180,-,0,0.08040430000073684,['n'],0.7188502999997581,1.928,2155.3473801,,,,,576,30,Man,Right,
,,,,,,,,,,,,,,,,,576,30,Man,Right,3,4,1,1,0,-,0,0.43621949999942444,['n'],1.0869332999991457,1.928,2159.1638585,,,,,576,30,Man,Right,
,,,,,,,,,,,,,,,,,576,30,Man,Right,3,13,0.4,2,0,180,180,0.31356489999961923,['y'],0.36731030000009923,1.87,2162.3316006000005,,,,,576,30,Man,Right,
,,,,,,,,,,,,,,,,,576,30,Man,Right,3,74,0.15,1,180,-,0,1.0276348000006692,['n'],0.7989589999997406,1.958,2166.497278500001,,,,,576,30,Man,Right,
,,,,,,,,,,,,,,,,,576,30,Man,Right,3,78,0.15,1,180,-,180,0.42576829999961774,['y'],0.4392872999997053,1.854,2169.7137246,,,,,576,30,Man,Right,
,,,,,,,,,,,,,,,,,576,30,Man,Right,3,67,0.15,2,180,0,0,0.03417509999962931,['n'],0.614501800000653,1.832,2172.9137544000005,,,,,576,30,Man,Right,
,,,,,,,,,,,,,,,,,576,30,Man,Right,3,18,0.4,1,180,-,180,0.09286390000124811,['y'],0.4068647999993118,1.832,2175.6806729,,,,,576,30,Man,Right,
,,,,,,,,,,,,,,,,,576,30,Man,Right,3,41,0.4,2,0,180,0,0.016631000000415952,['y'],0.7901072000004206,1.832,2178.613779200001,,,,,576,30,Man,Right,
,,,,,,,,,,,,,,,,,576,30,Man,Right,3,60,0.15,1,0,-,180,0.16627859999971406,['y'],0.41481890000068233,1.816,2181.381217,,,,,576,30,Man,Right,
,,,,,,,,,,,,,,,,,576,30,Man,Right,3,25,0.4,2,0,180,180,0.13182600000072853,['y'],0.40685259999918344,1.842,2184.2637053,,,,,576,30,Man,Right,
,,,,,,,,,,,,,,,,,576,30,Man,Right,3,34,0.4,1,180,-,180,0.3965354000010848,['y'],0.3590323000007629,1.8599999999999999,2187.230371400001,,,,,576,30,Man,Right,
,,,,,,,,,,,,,,,,,576,30,Man,Right,3,57,0.15,2,0,180,180,0.07974160000048869,['y'],1.1989300000004732,1.8599999999999999,2190.680466,,,,,576,30,Man,Right,
,,,,,,,,,,,,,,,,,576,30,Man,Right,3,63,0.15,2,180,0,0,0.5260106999994605,['n'],0.4389639000000898,1.8599999999999999,2194.046988100001,,,,,576,30,Man,Right,
,,,,,,,,,,,,,,,,,576,30,Man,Right,3,22,0.4,1,180,-,180,0.01705240000046615,['n'],0.6796899000000849,1.8599999999999999,2196.9811360999993,,,,,576,30,Man,Right,
,,,,,,,,,,,,,,,,,576,30,Man,Right,3,2,1,1,180,-,0,1.1655790000004345,['y'],0.3433448000014323,1.858,2200.6970089999995,,,,,576,30,Man,Right,
,,,,,,,,,,,,,,,,,576,30,Man,Right,3,75,0.15,2,180,0,180,0.023463200001060613,['y'],0.47086570000101347,1.858,2203.5471516,,,,,576,30,Man,Right,
,,,,,,,,,,,,,,,,,576,30,Man,Right,3,54,0.15,1,180,-,180,0.09883819999959087,['y'],0.9827350999985356,1.858,2208.2804104999996,,,,,576,30,Man,Right,
,,,,,,,,,,,,,,,,,576,30,Man,Right,3,46,0.15,1,180,-,180,1.264070700000957,['n'],0.11930560000109836,1.784,2212.5136547,,,,,576,30,Man,Right,
,,,,,,,,,,,,,,,,,576,30,Man,Right,3,8,0.4,1,0,-,0,0.3869099000003189,['n'],0.631175999998959,1.784,2215.7133458000008,,,,,576,30,Man,Right,
,,,,,,,,,,,,,,,,,576,30,Man,Right,3,20,0.4,1,0,-,0,0.7067430000006425,['n'],0.4549870999999257,1.778,2218.8969806999994,,,,,576,30,Man,Right,
,,,,,,,,,,,,,,,,,576,30,Man,Right,3,26,0.4,1,180,-,0,0.22491599999921164,['n'],0.5512108000002627,1.778,2221.996765600001,,,,,576,30,Man,Right,
,,,,,,,,,,,,,,,,,576,30,Man,Right,3,1,1,2,0,180,0,0.01672340000004624,['y'],0.5661474000007729,1.778,2224.613264400001,,,,,576,30,Man,Right,
,,,,,,,,,,,,,,,,,576,30,Man,Right,3,27,0.4,2,180,0,0,0.8088947999985976,['n'],0.6142482000013842,1.812,2228.5465707000003,,,,,576,30,Man,Right,
,,,,,,,,,,,,,,,,,576,30,Man,Right,3,44,0.15,1,0,-,180,0.2936099999988073,['n'],0.5829225999987102,1.798,2231.7132167,,,,,576,30,Man,Right,
,,,,,,,,,,,,,,,,,576,30,Man,Right,3,29,0.4,2,0,180,180,0.18371880000086094,['y'],0.6229289999992034,1.798,2234.6801701000004,,,,,576,30,Man,Right,
,,,,,,,,,,,,,,,,,576,30,Man,Right,3,37,0.4,2,0,180,180,0.4805329000009806,['y'],0.2707406000008632,2.0,2237.8632889,,,,,576,30,Man,Right,
,,,,,,,,,,,,,,,,,576,30,Man,Right,3,39,0.4,2,180,0,0,0.2876962000009371,['n'],0.4870253999997658,1.15,2242.179880400001,,,,,576,30,Man,Right,
,,,,,,,,,,,,,,,,,576,30,Man,Right,3,10,0.4,1,180,-,0,0.2532640999997966,['n'],0.6234581999997317,1.638,2245.6131301000005,,,,,576,30,Man,Right,
,,,,,,,,,,,,,,,,,576,30,Man,Right,3,17,0.4,2,0,180,180,0.2839543000009144,['y'],0.5427631999991718,2.0,2248.6466695,,,,,576,30,Man,Right,
,,,,,,,,,,,,,,,,,576,30,Man,Right,3,9,0.4,2,0,180,180,0.2030386999995244,['y'],0.41502589999981865,1.99,2251.5296688,,,,,576,30,Man,Right,
,,,,,,,,,,,,,,,,,576,30,Man,Right,3,56,0.15,1,0,-,180,0.44193860000086715,['y'],0.37508600000001024,1.988,2254.7966584000005,,,,,576,30,Man,Right,
,,,,,,,,,,,,,,,,,576,30,Man,Right,3,43,0.4,2,180,0,0,0.03530030000001716,['y'],0.6473079999996116,1.98,2257.6797755000007,,,,,576,30,Man,Right,
,,,,,,,,,,,,,,,,,576,30,Man,Right,3,32,0.4,1,0,-,180,0.10731090000081167,['y'],1.0548405999998067,1.8559999999999999,2261.0630299000004,,,,,576,30,Man,Right,
,,,,,,,,,,,,,,,,,576,30,Man,Right,3,40,0.4,1,0,-,0,0.18857269999898563,['n'],0.36684040000000095,1.8559999999999999,2264.0797578,,,,,576,30,Man,Right,
,,,,,,,,,,,,,,,,,576,30,Man,Right,3,79,0.15,2,180,0,0,0.37593829999968875,['n'],0.447348100000454,1.8479999999999999,2267.4628924999997,,,,,576,30,Man,Right,
,,,,,,,,,,,,,,,,,576,30,Man,Right,3,12,0.4,1,0,-,180,0.11937399999987974,['y'],0.7351739999994606,1.834,2270.5131048000003,,,,,576,30,Man,Right,
,,,,,,,,,,,,,,,,,576,30,Man,Right,3,52,0.15,1,0,-,0,0.025256099999751314,['y'],0.48667139999997744,1.832,2273.1295427999994,,,,,576,30,Man,Right,
,,,,,,,,,,,,,,,,,576,30,Man,Right,4,40,0.4,1,0,-,0,0.8026441000001796,['n'],0.7429502999984834,1.832,2278.7461497000004,60.0,45.0,80.0,,576,30,Man,Right,
,,,,,,,,,,,,,,,,,576,30,Man,Right,4,13,0.4,2,0,180,180,0.09944829999949434,['y'],0.4788726000006136,1.832,2281.3295564,,,,,576,30,Man,Right,
,,,,,,,,,,,,,,,,,576,30,Man,Right,4,12,0.4,1,0,-,0,0.3036692999994557,['n'],0.4549590000005992,1.792,2284.5296125000004,,,,,576,30,Man,Right,
,,,,,,,,,,,,,,,,,576,30,Man,Right,4,38,0.4,1,180,-,180,0.07921209999949497,['y'],0.4869073000008939,1.792,2287.4295626000003,,,,,576,30,Man,Right,
,,,,,,,,,,,,,,,,,576,30,Man,Right,4,54,0.15,1,180,-,0,0.27683219999926223,['y'],1.0708378999988781,1.792,2290.9135972000004,,,,,576,30,Man,Right,
,,,,,,,,,,,,,,,,,576,30,Man,Right,4,75,0.15,2,180,0,180,0.23264150000068184,['y'],0.2548724999996921,1.792,2293.6626711999997,,,,,576,30,Man,Right,
,,,,,,,,,,,,,,,,,576,30,Man,Right,4,4,1,1,0,-,0,0.38956639999923937,['y'],0.42303139999967243,1.9,2296.6293191000004,,,,,576,30,Man,Right,
,,,,,,,,,,,,,,,,,576,30,Man,Right,4,47,0.15,2,180,0,180,0.05555780000031518,['y'],0.5430505000003905,1.826,2299.5295915000006,,,,,576,30,Man,Right,
,,,,,,,,,,,,,,,,,576,30,Man,Right,4,60,0.15,1,0,-,180,0.5216801999995369,['y'],0.3911406999995961,1.836,2302.646936000001,,,,,576,30,Man,Right,
,,,,,,,,,,,,,,,,,576,30,Man,Right,4,8,0.4,1,0,-,0,0.7268108000007487,['n'],0.6466037999998662,1.842,2306.129240800001,,,,,576,30,Man,Right,
,,,,,,,,,,,,,,,,,576,30,Man,Right,4,31,0.4,2,180,0,180,0.016555500000322354,['y'],0.7353624000006675,1.8940000000000001,2309.3128651000006,,,,,576,30,Man,Right,
,,,,,,,,,,,,,,,,,576,30,Man,Right,4,32,0.4,1,0,-,180,0.5357683000001998,['y'],0.3510913999998593,1.932,2312.4628613999994,,,,,576,30,Man,Right,
,,,,,,,,,,,,,,,,,576,30,Man,Right,4,56,0.15,1,0,-,180,0.5342831999987538,['n'],0.4469702000005782,1.794,2315.462643500001,,,,,576,30,Man,Right,
,,,,,,,,,,,,,,,,,576,30,Man,Right,4,48,0.15,1,0,-,0,0.31384580000121787,['y'],0.7672385999994731,1.6139999999999999,2318.8127705999996,,,,,576,30,Man,Right,
,,,,,,,,,,,,,,,,,576,30,Man,Right,4,25,0.4,2,0,180,180,0.3765727000009065,['y'],0.4147264000002906,1.802,2322.5293648000006,,,,,576,30,Man,Right,
,,,,,,,,,,,,,,,,,576,30,Man,Right,4,58,0.15,1,180,-,180,0.9292593999998644,['y'],0.4148624999997992,1.866,2326.179001800001,,,,,576,30,Man,Right,
,,,,,,,,,,,,,,,,,576,30,Man,Right,4,6,1,1,180,-,0,0.27248599999984435,['y'],0.5749598000002152,1.91,2329.1467204,,,,,576,30,Man,Right,
,,,,,,,,,,,,,,,,,576,30,Man,Right,4,7,1,2,180,0,0,0.2814202999998088,['y'],0.5986532999995688,1.928,2332.1792461000005,,,,,576,30,Man,Right,
,,,,,,,,,,,,,,,,,576,30,Man,Right,4,57,0.15,2,0,180,0,0.2953382000014244,['y'],0.6790154999998776,1.9,2335.212601700001,,,,,576,30,Man,Right,
,,,,,,,,,,,,,,,,,576,30,Man,Right,4,63,0.15,2,180,0,0,0.5665036999998847,['y'],0.37507490000098187,1.9,2338.2792431,,,,,576,30,Man,Right,
,,,,,,,,,,,,,,,,,576,30,Man,Right,4,49,0.15,2,0,180,180,0.4980782000002364,['y'],0.34299599999940256,1.938,2341.4623159000002,,,,,576,30,Man,Right,
,,,,,,,,,,,,,,,,,576,30,Man,Right,4,76,0.15,1,0,-,0,0.4131427000011172,['y'],0.33489279999957944,1.938,2344.329130600001,,,,,576,30,Man,Right,
,,,,,,,,,,,,,,,,,576,30,Man,Right,4,68,0.15,1,0,-,0,0.15280550000170479,['y'],0.3669759999993403,1.936,2347.0124994,,,,,576,30,Man,Right,
,,,,,,,,,,,,,,,,,576,30,Man,Right,4,65,0.15,2,0,180,0,0.285649999999805,['y'],0.39893210000082036,1.936,2349.9289195,,,,,576,30,Man,Right,
,,,,,,,,,,,,,,,,,576,30,Man,Right,4,64,0.15,1,0,-,0,0.30449850000150036,['y'],0.3590855999991618,1.928,2352.7957903000006,,,,,576,30,Man,Right,
,,,,,,,,,,,,,,,,,576,30,Man,Right,4,17,0.4,2,0,180,180,0.6527053000008891,['y'],0.4712779000001319,1.928,2356.1289214000008,,,,,576,30,Man,Right,
,,,,,,,,,,,,,,,,,576,30,Man,Right,4,19,0.4,2,180,0,0,0.30814099999952305,['y'],0.3750996999988274,1.928,2359.3620969999993,,,,,576,30,Man,Right,
,,,,,,,,,,,,,,,,,576,30,Man,Right,4,77,0.15,2,0,180,0,0.16529369999989285,['y'],0.38286859999971057,1.928,2362.4954201,,,,,576,30,Man,Right,
,,,,,,,,,,,,,,,,,576,30,Man,Right,4,46,0.15,1,180,-,0,0.16685900000084075,['y'],0.3770946999993612,1.928,2365.895328300001,,,,,576,30,Man,Right,
,,,,,,,,,,,,,,,,,576,30,Man,Right,4,20,0.4,1,0,-,180,0.18763880000005884,['y'],0.39120509999884234,1.928,2368.9121367000007,,,,,576,30,Man,Right,
,,,,,,,,,,,,,,,,,576,30,Man,Right,4,73,0.15,2,0,180,0,0.29234639999958745,['y'],0.2707929000007425,1.928,2371.4621134999998,,,,,576,30,Man,Right,
,,,,,,,,,,,,,,,,,576,30,Man,Right,4,29,0.4,2,0,180,0,0.07301619999998366,['y'],0.9432842999995046,1.924,2374.6954196999995,,,,,576,30,Man,Right,
,,,,,,,,,,,,,,,,,576,30,Man,Right,4,52,0.15,1,0,-,180,0.46118530000057945,['y'],0.4148927000005642,1.932,2377.7121442000007,,,,,576,30,Man,Right,
,,,,,,,,,,,,,,,,,576,30,Man,Right,4,67,0.15,2,180,0,180,0.5880247999994026,['y'],0.3265815999984625,1.932,2380.8119382999994,,,,,576,30,Man,Right,
,,,,,,,,,,,,,,,,,576,30,Man,Right,4,11,0.4,2,180,0,180,0.2791402000002563,['y'],0.25477930000124616,1.884,2384.4619839999996,,,,,576,30,Man,Right,
,,,,,,,,,,,,,,,,,576,30,Man,Right,4,34,0.4,1,180,-,0,0.11779919999935373,['y'],0.3748271999993449,1.8940000000000001,2387.2452777,,,,,576,30,Man,Right,
,,,,,,,,,,,,,,,,,576,30,Man,Right,4,27,0.4,2,180,0,0,0.0837587000005442,['y'],0.4392141999996966,1.8940000000000001,2389.9453771000008,,,,,576,30,Man,Right,
,,,,,,,,,,,,,,,,,576,30,Man,Right,4,59,0.15,2,180,0,180,0.24867559999984223,['y'],0.35110209999947983,1.956,2392.729222600001,,,,,576,30,Man,Right,
,,,,,,,,,,,,,,,,,576,30,Man,Right,4,69,0.15,2,0,180,0,0.09852679999858083,['y'],0.3831449999997858,1.854,2395.295236,,,,,576,30,Man,Right,
,,,,,,,,,,,,,,,,,576,30,Man,Right,4,16,0.4,1,0,-,180,0.09183239999947546,['y'],0.3111655000011524,1.854,2397.8953727000007,,,,,576,30,Man,Right,
,,,,,,,,,,,,,,,,,576,30,Man,Right,4,70,0.15,1,180,-,0,0.1384966000005079,['y'],0.35119850000046426,1.858,2400.511994800001,,,,,576,30,Man,Right,
,,,,,,,,,,,,,,,,,576,30,Man,Right,4,5,1,2,0,180,180,0.07845330000054673,['y'],0.3029759000000922,1.926,2403.195646,,,,,576,30,Man,Right,
,,,,,,,,,,,,,,,,,576,30,Man,Right,4,39,0.4,2,180,0,0,0.01659250000011525,['y'],0.32636509999974805,1.948,2405.728610600001,,,,,576,30,Man,Right,
,,,,,,,,,,,,,,,,,576,30,Man,Right,4,62,0.15,1,180,-,0,0.24273659999926167,['y'],0.3668342000000848,1.91,2408.3455221000004,,,,,576,30,Man,Right,
,,,,,,,,,,,,,,,,,576,30,Man,Right,4,37,0.4,2,0,180,180,0.2399848999993992,['y'],0.20667299999877287,1.924,2411.6452415000003,,,,,576,30,Man,Right,
,,,,,,,,,,,,,,,,,576,30,Man,Right,4,18,0.4,1,180,-,0,0.07008390000009967,['y'],0.28698609999992186,1.924,2414.2284118000007,,,,,576,30,Man,Right,
,,,,,,,,,,,,,,,,,576,30,Man,Right,4,44,0.15,1,0,-,0,0.0994513999994524,['n'],0.7029044999999314,1.924,2417.1284961,,,,,576,30,Man,Right,
,,,,,,,,,,,,,,,,,576,30,Man,Right,4,41,0.4,2,0,180,180,0.6478854999986652,['y'],0.7990071000003809,1.832,2420.7615800999993,,,,,576,30,Man,Right,
,,,,,,,,,,,,,,,,,576,30,Man,Right,4,3,1,2,180,0,0,0.01678350000111095,['n'],0.3897906000001967,1.166,2424.4284098999997,,,,,576,30,Man,Right,
,,,,,,,,,,,,,,,,,576,30,Man,Right,4,23,0.4,2,180,0,0,0.07933029999912833,['y'],0.3753806999993685,1.698,2427.2451753999994,,,,,576,30,Man,Right,
,,,,,,,,,,,,,,,,,576,30,Man,Right,4,9,0.4,2,0,180,180,0.22034650000023248,['y'],0.3266887999998289,1.786,2430.0458579999995,,,,,576,30,Man,Right,
,,,,,,,,,,,,,,,,,576,30,Man,Right,4,22,0.4,1,180,-,0,0.09300550000079966,['y'],0.3428134999994654,1.8599999999999999,2432.7949781000007,,,,,576,30,Man,Right,
,,,,,,,,,,,,,,,,,576,30,Man,Right,4,53,0.15,2,0,180,0,0.06949569999960659,['y'],0.4072080999994796,1.862,2435.6120947,,,,,576,30,Man,Right,
,,,,,,,,,,,,,,,,,576,30,Man,Right,4,30,0.4,1,180,-,0,0.017003599999952712,['y'],0.33638150000115274,1.928,2438.3280357999993,,,,,576,30,Man,Right,
,,,,,,,,,,,,,,,,,576,30,Man,Right,4,14,0.4,1,180,-,0,0.09833780000008119,['y'],0.31920809999974153,1.958,2441.0947951,,,,,576,30,Man,Right,
,,,,,,,,,,,,,,,,,576,30,Man,Right,4,55,0.15,2,180,0,180,1.1195136999995157,['n'],0.5830243000000337,1.958,2445.6450764,,,,,576,30,Man,Right,
,,,,,,,,,,,,,,,,,576,30,Man,Right,4,1,1,2,0,180,180,0.2781291000010242,['y'],0.5830351000004157,1.962,2448.84491,,,,,576,30,Man,Right,
,,,,,,,,,,,,,,,,,576,30,Man,Right,4,51,0.15,2,180,0,0,0.07156849999955739,['y'],0.6309373999993113,1.976,2452.1282051,,,,,576,30,Man,Right,
,,,,,,,,,,,,,,,,,576,30,Man,Right,4,26,0.4,1,180,-,180,0.24374919999900158,['n'],0.6152540999992198,1.818,2455.094734800001,,,,,576,30,Man,Right,
,,,,,,,,,,,,,,,,,576,30,Man,Right,4,79,0.15,2,180,0,0,0.07440680000036082,['y'],0.3348494000001665,1.77,2457.6946203999996,,,,,576,30,Man,Right,
,,,,,,,,,,,,,,,,,576,30,Man,Right,4,0,1,1,0,-,0,0.31634110000049986,['n'],1.2309675000014977,1.782,2461.4287860000004,,,,,576,30,Man,Right,
,,,,,,,,,,,,,,,,,576,30,Man,Right,4,21,0.4,2,0,180,180,0.3317607999997563,['y'],0.35074680000070657,1.918,2464.3945323000007,,,,,576,30,Man,Right,
,,,,,,,,,,,,,,,,,576,30,Man,Right,4,66,0.15,1,180,-,0,0.40045269999973243,['n'],0.4552289000002929,1.8639999999999999,2467.4280603000007,,,,,576,30,Man,Right,
,,,,,,,,,,,,,,,,,576,30,Man,Right,4,43,0.4,2,180,0,0,0.1391834000005474,['n'],0.3668577999997069,1.8639999999999999,2470.8445575000005,,,,,576,30,Man,Right,
,,,,,,,,,,,,,,,,,576,30,Man,Right,4,50,0.15,1,180,-,0,0.13455729999986943,['y'],0.47919739999997546,1.956,2473.8448092,,,,,576,30,Man,Right,
,,,,,,,,,,,,,,,,,576,30,Man,Right,4,78,0.15,1,180,-,0,0.09373730000152136,['n'],0.8631143000002339,1.786,2477.0777584000007,,,,,576,30,Man,Right,
,,,,,,,,,,,,,,,,,576,30,Man,Right,4,36,0.4,1,0,-,0,0.2052057999990211,['n'],0.27879439999924216,1.786,2479.7445669999997,,,,,576,30,Man,Right,
,,,,,,,,,,,,,,,,,576,30,Man,Right,4,28,0.4,1,0,-,0,0.3471491000000242,['n'],0.5911891000014293,1.786,2483.1444979000007,,,,,576,30,Man,Right,
,,,,,,,,,,,,,,,,,576,30,Man,Right,4,61,0.15,2,0,180,0,0.21669219999967027,['n'],0.32857610000064597,1.786,2486.311230700001,,,,,576,30,Man,Right,
,,,,,,,,,,,,,,,,,576,30,Man,Right,4,2,1,1,180,-,0,0.5378569000004063,['n'],0.5590387000011106,1.786,2489.4611239999995,,,,,576,30,Man,Right,
,,,,,,,,,,,,,,,,,576,30,Man,Right,4,71,0.15,2,180,0,0,0.09403989999918849,['n'],2.3748323999989225,1.786,2494.3778299000005,,,,,576,30,Man,Right,
,,,,,,,,,,,,,,,,,576,30,Man,Right,4,24,0.4,1,0,-,180,0.3368656999991799,['n'],0.518980200000442,1.744,2497.2778240999996,,,,,576,30,Man,Right,
,,,,,,,,,,,,,,,,,576,30,Man,Right,4,10,0.4,1,180,-,180,0.13755349999883038,['n'],0.5748089000007894,1.782,2500.1941329,,,,,576,30,Man,Right,
,,,,,,,,,,,,,,,,,576,30,Man,Right,4,15,0.4,2,180,0,0,0.33598799999890616,['y'],0.7514386999991984,1.874,2503.4942216,,,,,576,30,Man,Right,
,,,,,,,,,,,,,,,,,576,30,Man,Right,4,42,0.4,1,180,-,0,0.103399099998569,['n'],0.49509260000013455,1.876,2506.2777435999997,,,,,576,30,Man,Right,
,,,,,,,,,,,,,,,,,576,30,Man,Right,4,45,0.15,2,0,180,0,0.09312859999954526,['y'],0.7750470999999379,1.876,2509.4108521,,,,,576,30,Man,Right,
,,,,,,,,,,,,,,,,,576,30,Man,Right,4,74,0.15,1,180,-,0,0.29688440000063565,['n'],0.5909035000004224,1.876,2512.377460400001,,,,,576,30,Man,Right,
,,,,,,,,,,,,,,,,,576,30,Man,Right,4,33,0.4,2,0,180,180,0.0875555999991775,['y'],0.463219699999172,1.876,2515.4273974999996,,,,,576,30,Man,Right,
,,,,,,,,,,,,,,,,,576,30,Man,Right,4,35,0.4,2,180,0,0,0.23960129999977653,['n'],0.4629216000012093,1.876,2518.277863700001,,,,,576,30,Man,Right,
,,,,,,,,,,,,,,,,,576,30,Man,Right,4,72,0.15,1,0,-,180,1.3337417999991885,['y'],0.7428994999991119,1.876,2522.6275614999995,,,,,576,30,Man,Right,
,,,,,,,,,,,,,,,,,576,30,Man,Right,5,70,0.15,1,180,-,0,0.18505069999991974,['n'],0.5911238999997295,1.876,2526.7939277999994,50.0,40.0,85.0,,576,30,Man,Right,
,,,,,,,,,,,,,,,,,576,30,Man,Right,5,79,0.15,2,180,0,0,0.12774480000007316,['n'],0.7427661000001535,1.812,2529.9609175999994,,,,,576,30,Man,Right,
,,,,,,,,,,,,,,,,,576,30,Man,Right,5,65,0.15,2,0,180,180,0.810322700001052,['n'],0.7030656000006275,1.812,2533.7611271999995,,,,,576,30,Man,Right,
,,,,,,,,,,,,,,,,,576,30,Man,Right,5,27,0.4,2,180,0,0,0.18439430000034918,['n'],0.631121999998868,1.184,2537.5939512999994,,,,,576,30,Man,Right,
,,,,,,,,,,,,,,,,,576,30,Man,Right,5,0,1,1,0,-,0,0.0565150000002177,['y'],0.631230000000869,1.8940000000000001,2540.577398900001,,,,,576,30,Man,Right,
,,,,,,,,,,,,,,,,,576,30,Man,Right,5,33,0.4,2,0,180,180,0.300003000000288,['y'],0.3267961000001378,1.936,2543.3440193999995,,,,,576,30,Man,Right,
,,,,,,,,,,,,,,,,,576,30,Man,Right,5,10,0.4,1,180,-,0,0.1335096999991947,['y'],0.34135040000001027,1.8900000000000001,2545.9604696999995,,,,,576,30,Man,Right,
,,,,,,,,,,,,,,,,,576,30,Man,Right,5,16,0.4,1,0,-,0,0.26460210000004736,['y'],0.38278790000003937,1.888,2548.6949803000007,,,,,576,30,Man,Right,
,,,,,,,,,,,,,,,,,576,30,Man,Right,5,54,0.15,1,180,-,0,0.039852500000051805,['y'],0.39130289999957313,1.888,2552.2108855000006,,,,,576,30,Man,Right,
,,,,,,,,,,,,,,,,,576,30,Man,Right,5,69,0.15,2,0,180,180,0.26250140000047395,['y'],0.5271988999993482,1.888,2555.1936669999996,,,,,576,30,Man,Right,
,,,,,,,,,,,,,,,,,576,30,Man,Right,5,50,0.15,1,180,-,0,0.01682540000001609,['y'],0.48103230000015174,1.8860000000000001,2557.7439286999997,,,,,576,30,Man,Right,
,,,,,,,,,,,,,,,,,576,30,Man,Right,5,58,0.15,1,180,-,180,0.2534859999996115,['y'],0.38310570000066946,1.8860000000000001,2560.5604722000007,,,,,576,30,Man,Right,
,,,,,,,,,,,,,,,,,576,30,Man,Right,5,48,0.15,1,0,-,0,0.016738999998779036,['y'],0.42762129999937315,1.8860000000000001,2563.3106807000004,,,,,576,30,Man,Right,
,,,,,,,,,,,,,,,,,576,30,Man,Right,5,31,0.4,2,180,0,0,0.3009824999990087,['y'],0.5111938999998529,1.8860000000000001,2566.293634400001,,,,,576,30,Man,Right,
,,,,,,,,,,,,,,,,,576,30,Man,Right,5,5,1,2,0,180,180,0.09401919999982056,['y'],0.2950658999998268,1.842,2568.793636800001,,,,,576,30,Man,Right,
,,,,,,,,,,,,,,,,,576,30,Man,Right,5,66,0.15,1,180,-,180,0.305487900001026,['n'],0.6468722000008711,1.842,2571.9104879000006,,,,,576,30,Man,Right,
,,,,,,,,,,,,,,,,,576,30,Man,Right,5,23,0.4,2,180,0,0,0.29349590000128956,['y'],0.3434145000010176,1.8519999999999999,2574.9105598000006,,,,,576,30,Man,Right,
,,,,,,,,,,,,,,,,,576,30,Man,Right,5,34,0.4,1,180,-,180,0.24812349999956496,['n'],0.5188364000005095,1.8519999999999999,2578.0434692,,,,,576,30,Man,Right,
,,,,,,,,,,,,,,,,,576,30,Man,Right,5,37,0.4,2,0,180,0,0.41402630000084173,['y'],0.4229128999995737,1.8479999999999999,2581.0269248999994,,,,,576,30,Man,Right,
,,,,,,,,,,,,,,,,,576,30,Man,Right,5,24,0.4,1,0,-,180,0.1922271000003093,['y'],0.310814799999207,1.8479999999999999,2583.6934526999994,,,,,576,30,Man,Right,
,,,,,,,,,,,,,,,,,576,30,Man,Right,5,7,1,2,180,0,0,0.09485139999924286,['y'],0.5273562999991555,1.8519999999999999,2586.4434131,,,,,576,30,Man,Right,
,,,,,,,,,,,,,,,,,576,30,Man,Right,5,78,0.15,1,180,-,0,0.27974840000024415,['n'],0.6635289000005287,1.896,2589.6267965000006,,,,,576,30,Man,Right,
,,,,,,,,,,,,,,,,,576,30,Man,Right,5,61,0.15,2,0,180,180,0.21715149999909045,['n'],0.5510204000001977,1.9,2593.2267904,,,,,576,30,Man,Right,
,,,,,,,,,,,,,,,,,576,30,Man,Right,5,53,0.15,2,0,180,0,0.5603059999994002,['n'],0.5196341000009852,1.976,2596.4435298000008,,,,,576,30,Man,Right,
,,,,,,,,,,,,,,,,,576,30,Man,Right,5,56,0.15,1,0,-,180,0.3298649000007572,['n'],0.4786989000003814,1.8439999999999999,2599.2933868,,,,,576,30,Man,Right,
,,,,,,,,,,,,,,,,,576,30,Man,Right,5,75,0.15,2,180,0,180,0.3043078999999125,['n'],0.4151304999995773,1.8439999999999999,2602.2933171999994,,,,,576,30,Man,Right,
,,,,,,,,,,,,,,,,,576,30,Man,Right,5,19,0.4,2,180,0,180,0.6671215000005759,['y'],0.5987891999993735,1.91,2606.0599471000005,,,,,576,30,Man,Right,
,,,,,,,,,,,,,,,,,576,30,Man,Right,5,21,0.4,2,0,180,180,0.16713909999998577,['y'],0.4869696000005206,1.91,2609.0100404999994,,,,,576,30,Man,Right,
,,,,,,,,,,,,,,,,,576,30,Man,Right,5,15,0.4,2,180,0,0,0.2492235999998229,['y'],0.5748706000013044,1.838,2611.9600902,,,,,576,30,Man,Right,
,,,,,,,,,,,,,,,,,576,30,Man,Right,5,62,0.15,1,180,-,0,0.1909810999986803,['y'],0.38293160000102944,1.838,2614.6601195000003,,,,,576,30,Man,Right,
,,,,,,,,,,,,,,,,,576,30,Man,Right,5,11,0.4,2,180,0,0,0.37592440000116767,['y'],0.510917800000243,1.838,2617.6764824,,,,,576,30,Man,Right,
,,,,,,,,,,,,,,,,,576,30,Man,Right,5,35,0.4,2,180,0,0,0.28785659999994095,['y'],0.350965499999802,1.838,2620.6264513000006,,,,,576,30,Man,Right,
,,,,,,,,,,,,,,,,,576,30,Man,Right,5,44,0.15,1,0,-,180,0.11333860000013374,['y'],0.34268539999902714,1.838,2623.7266973999995,,,,,576,30,Man,Right,
,,,,,,,,,,,,,,,,,576,30,Man,Right,5,36,0.4,1,0,-,0,0.16405739999936486,['y'],0.43080319999899075,1.838,2626.760222500001,,,,,576,30,Man,Right,
,,,,,,,,,,,,,,,,,576,30,Man,Right,5,20,0.4,1,0,-,180,0.016946800000368967,['y'],0.3611094999996567,1.838,2629.3598225999995,,,,,576,30,Man,Right,
,,,,,,,,,,,,,,,,,576,30,Man,Right,5,1,1,2,0,180,180,0.23438379999970493,['y'],0.24685540000064066,1.838,2632.3097245999998,,,,,576,30,Man,Right,
,,,,,,,,,,,,,,,,,576,30,Man,Right,5,60,0.15,1,0,-,0,0.13333609999972396,['y'],0.49493749999965075,1.838,2634.9764104000005,,,,,576,30,Man,Right,
,,,,,,,,,,,,,,,,,576,30,Man,Right,5,3,1,2,180,0,0,0.10663709999971616,['y'],0.4390990000010788,1.838,2637.6262731999996,,,,,576,30,Man,Right,
,,,,,,,,,,,,,,,,,576,30,Man,Right,5,43,0.4,2,180,0,0,0.08053079999990587,['y'],0.3747495000006893,1.966,2640.4265333000003,,,,,576,30,Man,Right,
,,,,,,,,,,,,,,,,,576,30,Man,Right,5,64,0.15,1,0,-,180,0.23960140000053798,['n'],0.4949393000006239,1.822,2643.4929950000005,,,,,576,30,Man,Right,
,,,,,,,,,,,,,,,,,576,30,Man,Right,5,74,0.15,1,180,-,0,0.09291519999896991,['y'],0.46334120000028634,1.928,2646.1762261000003,,,,,576,30,Man,Right,
,,,,,,,,,,,,,,,,,576,30,Man,Right,5,29,0.4,2,0,180,180,0.3548492999998416,['y'],0.4069448000009288,1.992,2649.2428839999993,,,,,576,30,Man,Right,
,,,,,,,,,,,,,,,,,576,30,Man,Right,5,55,0.15,2,180,0,0,0.24028639999960433,['n'],0.390813199999684,1.8519999999999999,2652.0270939,,,,,576,30,Man,Right,
,,,,,,,,,,,,,,,,,576,30,Man,Right,5,71,0.15,2,180,0,180,0.14422530000047118,['y'],0.29507469999953173,1.8519999999999999,2654.7095737,,,,,576,30,Man,Right,
,,,,,,,,,,,,,,,,,576,30,Man,Right,5,77,0.15,2,0,180,180,0.23333590000038384,['y'],0.3509995999993407,1.8519999999999999,2657.7762568,,,,,576,30,Man,Right,
,,,,,,,,,,,,,,,,,576,30,Man,Right,5,76,0.15,1,0,-,0,0.10820020000028308,['n'],0.46296299999994517,1.8519999999999999,2660.7927751999996,,,,,576,30,Man,Right,
,,,,,,,,,,,,,,,,,576,30,Man,Right,5,72,0.15,1,0,-,0,0.04695470000115165,['y'],0.5269779000009294,1.8519999999999999,2663.559687500001,,,,,576,30,Man,Right,
,,,,,,,,,,,,,,,,,576,30,Man,Right,5,40,0.4,1,0,-,180,0.1498871000003419,['n'],0.4666661999999633,1.8519999999999999,2666.2594155000006,,,,,576,30,Man,Right,
,,,,,,,,,,,,,,,,,576,30,Man,Right,5,17,0.4,2,0,180,180,0.18833989999984624,['y'],0.24684909999996307,1.928,2669.0761115000005,,,,,576,30,Man,Right,
,,,,,,,,,,,,,,,,,576,30,Man,Right,5,25,0.4,2,0,180,180,0.14244300000063959,['y'],0.3429835999995703,1.896,2671.7927469000006,,,,,576,30,Man,Right,
,,,,,,,,,,,,,,,,,576,30,Man,Right,5,51,0.15,2,180,0,180,0.5049816000009741,['n'],0.27115749999939,1.8820000000000001,2674.6760864000007,,,,,576,30,Man,Right,
,,,,,,,,,,,,,,,,,576,30,Man,Right,5,59,0.15,2,180,0,180,0.3041083999996772,['n'],0.41485170000123617,1.814,2677.6094176000006,,,,,576,30,Man,Right,
,,,,,,,,,,,,,,,,,576,30,Man,Right,5,39,0.4,2,180,0,0,0.263037799999438,['n'],0.7189675999998144,1.934,2680.8259147999997,,,,,576,30,Man,Right,
,,,,,,,,,,,,,,,,,576,30,Man,Right,5,9,0.4,2,0,180,180,0.15993239999988873,['y'],0.43127529999947,1.984,2683.6425366000003,,,,,576,30,Man,Right,
,,,,,,,,,,,,,,,,,576,30,Man,Right,5,57,0.15,2,0,180,180,0.23385880000023462,['n'],0.2791453999998339,1.904,2686.6093758000006,,,,,576,30,Man,Right,
,,,,,,,,,,,,,,,,,576,30,Man,Right,5,4,1,1,0,-,0,0.2773068000005878,['n'],0.5907719999995606,1.904,2690.1094388,,,,,576,30,Man,Right,
,,,,,,,,,,,,,,,,,576,30,Man,Right,5,41,0.4,2,0,180,180,0.33975239999927,['y'],0.3593086000000767,1.904,2693.0925577,,,,,576,30,Man,Right,
,,,,,,,,,,,,,,,,,576,30,Man,Right,5,42,0.4,1,180,-,180,0.12972699999954784,['y'],0.3674432000007073,1.904,2695.9591999999993,,,,,576,30,Man,Right,
,,,,,,,,,,,,,,,,,576,30,Man,Right,5,6,1,1,180,-,180,0.4211033999999927,['y'],0.27927120000094874,1.904,2698.8761369999993,,,,,576,30,Man,Right,
,,,,,,,,,,,,,,,,,576,30,Man,Right,5,52,0.15,1,0,-,0,0.3373037999990629,['n'],1.5592780000006314,1.904,2703.0761211999998,,,,,576,30,Man,Right,
,,,,,,,,,,,,,,,,,576,30,Man,Right,5,45,0.15,2,0,180,180,0.02267769999889424,['y'],0.3670864000014262,1.904,2705.8258212,,,,,576,30,Man,Right,
,,,,,,,,,,,,,,,,,576,30,Man,Right,5,30,0.4,1,180,-,0,0.37595109999892884,['n'],0.3352739999991172,1.754,2708.6593212999996,,,,,576,30,Man,Right,
,,,,,,,,,,,,,,,,,576,30,Man,Right,5,12,0.4,1,0,-,180,0.4480299000006198,['n'],0.39121499999964726,1.802,2711.659109100001,,,,,576,30,Man,Right,
,,,,,,,,,,,,,,,,,576,30,Man,Right,5,49,0.15,2,0,180,0,0.3206540999999561,['n'],0.9909024000007776,1.712,2715.0256640000007,,,,,576,30,Man,Right,
,,,,,,,,,,,,,,,,,576,30,Man,Right,5,13,0.4,2,0,180,0,0.017288900000494323,['y'],0.7305830000004789,1.958,2718.4256736999996,,,,,576,30,Man,Right,
,,,,,,,,,,,,,,,,,576,30,Man,Right,5,63,0.15,2,180,0,180,0.3763790000011795,['n'],0.3024878999985958,1.8780000000000001,2721.2091469999996,,,,,576,30,Man,Right,
,,,,,,,,,,,,,,,,,576,30,Man,Right,5,22,0.4,1,180,-,180,0.2970342000007804,['n'],0.4706332999994629,1.91,2724.1257776,,,,,576,30,Man,Right,
,,,,,,,,,,,,,,,,,576,30,Man,Right,5,38,0.4,1,180,-,0,0.4333378999999695,['n'],0.4927069000004849,1.928,2727.2589671000005,,,,,576,30,Man,Right,
,,,,,,,,,,,,,,,,,576,30,Man,Right,5,73,0.15,2,0,180,180,0.11315389999981562,['n'],0.2951690999998391,1.928,2729.992129,,,,,576,30,Man,Right,
,,,,,,,,,,,,,,,,,576,30,Man,Right,5,26,0.4,1,180,-,0,0.29915470000014466,['n'],0.5105208000004495,1.736,2733.0588989000007,,,,,576,30,Man,Right,
,,,,,,,,,,,,,,,,,576,30,Man,Right,5,8,0.4,1,0,-,180,0.059324300000298535,['n'],0.5825296000002709,1.752,2736.6255409999994,,,,,576,30,Man,Right,
,,,,,,,,,,,,,,,,,576,30,Man,Right,5,46,0.15,1,180,-,180,0.516442600001028,['n'],0.22272999999950116,1.708,2739.4089628,,,,,576,30,Man,Right,
,,,,,,,,,,,,,,,,,576,30,Man,Right,5,68,0.15,1,0,-,0,0.3513679999996384,['n'],1.2070463000000018,1.79,2743.1421334999995,,,,,576,30,Man,Right,
,,,,,,,,,,,,,,,,,576,30,Man,Right,5,18,0.4,1,180,-,180,0.38809149999906367,['n'],0.2950217000015982,1.784,2745.9423638000007,,,,,576,30,Man,Right,
,,,,,,,,,,,,,,,,,576,30,Man,Right,5,47,0.15,2,180,0,0,0.15274789999966742,['n'],0.27885819999937667,1.76,2749.7422408,,,,,576,30,Man,Right,
,,,,,,,,,,,,,,,,,576,30,Man,Right,5,14,0.4,1,180,-,180,0.16160110000055283,['n'],1.1113726000003226,1.766,2753.3925738,,,,,576,30,Man,Right,
,,,,,,,,,,,,,,,,,576,30,Man,Right,5,2,1,1,180,-,180,0.833287500001461,['n'],0.3276519000010012,1.766,2757.4253826000004,,,,,576,30,Man,Right,
,,,,,,,,,,,,,,,,,576,30,Man,Right,5,32,0.4,1,0,-,0,0.2958749000008538,['n'],0.3587541000015335,1.84,2760.325254200001,,,,,576,30,Man,Right,
,,,,,,,,,,,,,,,,,576,30,Man,Right,5,67,0.15,2,180,0,180,0.07746580000093672,['n'],0.38241740000012214,1.8439999999999999,2764.4418160999994,,,,,576,30,Man,Right,
,,,,,,,,,,,,,,,,,576,30,Man,Right,5,28,0.4,1,0,-,180,0.13458650000029593,['y'],0.5189407999987452,1.996,2767.608777900001,,,,,576,30,Man,Right,
,,,,,,,,,,,,,,,,,,,,,,,,,,,,,,,,,62.5,55.0,60.0,1675.096707399999,,,,,
