p_block,p_section,p_coherence,p_direction1,p_direction2,p_direction_response,p_direction_RT,p_change_response,p_change_RT,p_confidence,p_full_correct,p_without5_correct,p_full_total,p_without5_total,p_full_avg,p_witout5_avg,p_total_time,sub,age,sex,handedness,loop,trial randomization,coherence,condition,direction1,direction2,direction_response,direction_RT,change_response,change_RT,change_confidence,change_confidence_RT,block_direction_avg,block_stable_avg,block_change_avg,total_time,sub,age,sex,handedness,
1,1,1.0,0,-,0,1.686948399999892,-,-,-,,,,,,,,529,19,Woman,Right,,,,,,,,,,,,,,,,,529,19,Woman,Right,
1,1,1.0,0,-,0,0.06946979999997893,-,-,-,,,,,,,,529,19,Woman,Right,,,,,,,,,,,,,,,,,529,19,Woman,Right,
1,1,1.0,0,-,0,1.412822799999958,-,-,-,,,,,,,,529,19,Woman,Right,,,,,,,,,,,,,,,,,529,19,Woman,Right,
1,1,1.0,0,-,0,1.2475910999999087,-,-,-,,,,,,,,529,19,Woman,Right,,,,,,,,,,,,,,,,,529,19,Woman,Right,
1,1,1.0,0,-,0,0.016558199999963108,-,-,-,,,,,,,,529,19,Woman,Right,,,,,,,,,,,,,,,,,529,19,Woman,Right,
1,1,1.0,0,-,0,0.521800199999916,-,-,-,,,,,,,,529,19,Woman,Right,,,,,,,,,,,,,,,,,529,19,Woman,Right,
1,1,1.0,180,-,180,0.3282624000000851,-,-,-,,,,,,,,529,19,Woman,Right,,,,,,,,,,,,,,,,,529,19,Woman,Right,
1,1,1.0,0,-,0,0.07019869999999173,-,-,-,,,,,,,,529,19,Woman,Right,,,,,,,,,,,,,,,,,529,19,Woman,Right,
1,1,1.0,0,-,0,0.4372406999998475,-,-,-,,,,,,,,529,19,Woman,Right,,,,,,,,,,,,,,,,,529,19,Woman,Right,
1,1,1.0,0,-,0,0.12663930000007895,-,-,-,10,10,10,10,1.0,1.0,,529,19,Woman,Right,,,,,,,,,,,,,,,,,529,19,Woman,Right,
2,1,0.4,0,-,0,0.22071440000013354,-,-,-,,,,,,,,529,19,Woman,Right,,,,,,,,,,,,,,,,,529,19,Woman,Right,
2,1,0.4,0,-,0,0.5586475000000064,-,-,-,,,,,,,,529,19,Woman,Right,,,,,,,,,,,,,,,,,529,19,Woman,Right,
2,1,0.4,180,-,180,0.08318750000012187,-,-,-,,,,,,,,529,19,Woman,Right,,,,,,,,,,,,,,,,,529,19,Woman,Right,
2,1,0.4,0,-,0,0.12967550000007577,-,-,-,,,,,,,,529,19,Woman,Right,,,,,,,,,,,,,,,,,529,19,Woman,Right,
2,1,0.4,0,-,0,0.08760099999994964,-,-,-,,,,,,,,529,19,Woman,Right,,,,,,,,,,,,,,,,,529,19,Woman,Right,
2,1,0.4,0,-,0,0.09371590000000651,-,-,-,,,,,,,,529,19,Woman,Right,,,,,,,,,,,,,,,,,529,19,Woman,Right,
2,1,0.15,0,-,180,0.5489148999999998,-,-,-,,,,,,,,529,19,Woman,Right,,,,,,,,,,,,,,,,,529,19,Woman,Right,
2,1,0.15,180,-,180,0.40970419999985097,-,-,-,,,,,,,,529,19,Woman,Right,,,,,,,,,,,,,,,,,529,19,Woman,Right,
2,1,0.15,0,-,0,0.31562830000007125,-,-,-,,,,,,,,529,19,Woman,Right,,,,,,,,,,,,,,,,,529,19,Woman,Right,
2,1,0.4,180,-,180,0.016757099999949787,-,-,-,9,7,10,7,0.9,1.0,,529,19,Woman,Right,,,,,,,,,,,,,,,,,529,19,Woman,Right,
3,2,1.0,180,0,180,2.903396100000009,['y'],8.801603099999966,1.748,,,,,,,,529,19,Woman,Right,,,,,,,,,,,,,,,,,529,19,Woman,Right,
3,2,1.0,180,0,0,0.8483707000000322,['y'],1.1110323999998855,1.92,,,,,,,,529,19,Woman,Right,,,,,,,,,,,,,,,,,529,19,Woman,Right,
3,2,1.0,0,180,180,1.3437455999999202,['y'],1.3946915000001354,1.932,,,,,,,,529,19,Woman,Right,,,,,,,,,,,,,,,,,529,19,Woman,Right,
3,2,1.0,0,180,180,0.9133438999999726,['y'],0.9502838999999312,1.96,,,,,,,,529,19,Woman,Right,,,,,,,,,,,,,,,,,529,19,Woman,Right,
3,2,1.0,180,0,0,0.7998479000000316,['y'],0.46688739999990503,1.988,,,,,,,,529,19,Woman,Right,,,,,,,,,,,,,,,,,529,19,Woman,Right,
3,2,1.0,0,180,180,0.5355271999999331,['y'],0.30141170000001694,1.982,,,,,,,,529,19,Woman,Right,,,,,,,,,,,,,,,,,529,19,Woman,Right,
3,2,1.0,180,0,0,0.5427887000000737,['y'],0.31816840000010416,1.982,,,,,,,,529,19,Woman,Right,,,,,,,,,,,,,,,,,529,19,Woman,Right,
3,2,1.0,0,180,180,0.9474778999999671,['y'],0.4318570999998883,1.982,,,,,,,,529,19,Woman,Right,,,,,,,,,,,,,,,,,529,19,Woman,Right,
3,2,1.0,0,180,180,0.47415079999996124,['y'],0.9333928999999443,1.982,,,,,,,,529,19,Woman,Right,,,,,,,,,,,,,,,,,529,19,Woman,Right,
3,2,1.0,180,0,0,0.38640350000014223,['y'],0.2983408000000054,1.982,9,9,10,10,0.9,0.9,,529,19,Woman,Right,,,,,,,,,,,,,,,,,529,19,Woman,Right,
4,2,0.15,180,0,180,5.967788800000108,['n'],2.179627400000072,1.134,,,,,,,,529,19,Woman,Right,,,,,,,,,,,,,,,,,529,19,Woman,Right,
4,2,0.4,0,180,180,1.1752252000001135,['y'],0.9393084999999246,1.99,,,,,,,,529,19,Woman,Right,,,,,,,,,,,,,,,,,529,19,Woman,Right,
4,2,0.15,180,0,180,6.172642200000155,['n'],1.2592901999998958,1.258,,,,,,,,529,19,Woman,Right,,,,,,,,,,,,,,,,,529,19,Woman,Right,
4,2,0.15,0,180,0,2.844377300000133,['n'],4.057743300000084,1.3319999999999999,,,,,,,,529,19,Woman,Right,,,,,,,,,,,,,,,,,529,19,Woman,Right,
4,2,0.15,180,0,0,2.6570220000000973,['y'],1.301700799999935,1.994,,,,,,,,529,19,Woman,Right,,,,,,,,,,,,,,,,,529,19,Woman,Right,
4,2,0.15,0,180,180,2.1667297999999846,['y'],0.9414193000000068,1.998,,,,,,,,529,19,Woman,Right,,,,,,,,,,,,,,,,,529,19,Woman,Right,
4,2,0.15,180,0,0,1.4545522000000801,['y'],2.2157830999999533,1.99,,,,,,,,529,19,Woman,Right,,,,,,,,,,,,,,,,,529,19,Woman,Right,
4,2,0.4,180,0,0,1.058503399999836,['y'],1.779666299999917,1.984,,,,,,,,529,19,Woman,Right,,,,,,,,,,,,,,,,,529,19,Woman,Right,
4,2,0.4,0,180,180,0.38991119999991497,['y'],1.115840199999866,1.978,,,,,,,,529,19,Woman,Right,,,,,,,,,,,,,,,,,529,19,Woman,Right,
4,2,0.15,0,180,180,2.0629721999998765,['y'],1.0035639999998693,1.978,7,3,10,3,0.7,1.0,,529,19,Woman,Right,,,,,,,,,,,,,,,,,529,19,Woman,Right,
5,3,0.4,180,0,0,2.607198100000005,['y'],0.7792378999999983,1.996,,,,,,,,529,19,Woman,Right,,,,,,,,,,,,,,,,,529,19,Woman,Right,
5,3,0.15,180,0,0,1.9652846999999838,['y'],0.3714471999999205,1.996,,,,,,,,529,19,Woman,Right,,,,,,,,,,,,,,,,,529,19,Woman,Right,
5,3,0.4,0,180,180,0.5277271999998447,['y'],1.1279693000001316,1.996,,,,,,,,529,19,Woman,Right,,,,,,,,,,,,,,,,,529,19,Woman,Right,
5,3,0.4,180,0,0,0.7642762000000403,['y'],1.1644352000000708,1.996,,,,,,,,529,19,Woman,Right,,,,,,,,,,,,,,,,,529,19,Woman,Right,
5,3,0.15,180,-,0,3.1061001000000488,['y'],2.2307964999999967,1.19,,,,,,,,529,19,Woman,Right,,,,,,,,,,,,,,,,,529,19,Woman,Right,
5,3,0.15,180,-,180,1.4093442000000778,['y'],0.32334259999993265,1.374,,,,,,,,529,19,Woman,Right,,,,,,,,,,,,,,,,,529,19,Woman,Right,
5,3,1.0,180,0,0,0.7031469000000925,['y'],0.5498211999999967,2.0,,,,,,,,529,19,Woman,Right,,,,,,,,,,,,,,,,,529,19,Woman,Right,
5,3,0.15,0,180,0,2.126353199999812,['y'],0.7563124999999218,1.698,,,,,,,,529,19,Woman,Right,,,,,,,,,,,,,,,,,529,19,Woman,Right,
5,3,1.0,0,-,180,1.2946179000000484,['y'],1.567303000000038,1.588,,,,,,,,529,19,Woman,Right,,,,,,,,,,,,,,,,,529,19,Woman,Right,
5,3,0.15,0,-,0,0.6469285000000582,['y'],0.4509663000001183,1.874,7,4,10,5,0.7,0.8,,529,19,Woman,Right,,,,,,,,,,,,,,,,,529,19,Woman,Right,
,,,,,,,,,,,,,,,,4.500000159168849e-06,529,19,Woman,Right,,,,,,,,,,,,,,,,,529,19,Woman,Right,
,,,,,,,,,,,,,,,,,529,19,Woman,Right,0,28,0.4,1,0,-,180,1.6118235000001278,['y'],1.6865194999998039,1.992,362.01531810000006,,,,,529,19,Woman,Right,
,,,,,,,,,,,,,,,,,529,19,Woman,Right,0,41,0.4,2,0,180,180,0.5209919000001264,['y'],1.1271761999998944,1.992,367.51507190000007,,,,,529,19,Woman,Right,
,,,,,,,,,,,,,,,,,529,19,Woman,Right,0,48,0.15,1,0,-,180,4.697171200000184,['y'],1.760342000000037,1.972,377.29797180000014,,,,,529,19,Woman,Right,
,,,,,,,,,,,,,,,,,529,19,Woman,Right,0,75,0.15,2,180,0,0,5.117263200000025,['n'],1.978646499999968,1.704,387.615458,,,,,529,19,Woman,Right,
,,,,,,,,,,,,,,,,,529,19,Woman,Right,0,64,0.15,1,0,-,180,3.100436400000035,['n'],1.2342866000001322,1.8900000000000001,397.6145107,,,,,529,19,Woman,Right,
,,,,,,,,,,,,,,,,,529,19,Woman,Right,0,39,0.4,2,180,0,0,1.183068800000001,['y'],1.2996367999999165,1.99,403.63106430000016,,,,,529,19,Woman,Right,
,,,,,,,,,,,,,,,,,529,19,Woman,Right,0,51,0.15,2,180,0,0,1.9437173999999686,['y'],0.9962041000001136,1.904,410.2319764000001,,,,,529,19,Woman,Right,
,,,,,,,,,,,,,,,,,529,19,Woman,Right,0,18,0.4,1,180,-,0,1.9090794000001097,['y'],2.1180486999999175,1.958,420.21511480000004,,,,,529,19,Woman,Right,
,,,,,,,,,,,,,,,,,529,19,Woman,Right,0,6,1,1,180,-,0,0.5412108000000444,['y'],1.2307782000000316,1.99,425.7315711000001,,,,,529,19,Woman,Right,
,,,,,,,,,,,,,,,,,529,19,Woman,Right,0,65,0.15,2,0,180,180,0.5769523999999819,['y'],0.998846199999889,1.994,430.71491920000017,,,,,529,19,Woman,Right,
,,,,,,,,,,,,,,,,,529,19,Woman,Right,0,23,0.4,2,180,0,0,0.3302073999998356,['y'],0.7196747000000414,1.96,434.7977692000002,,,,,529,19,Woman,Right,
,,,,,,,,,,,,,,,,,529,19,Woman,Right,0,29,0.4,2,0,180,180,0.9196881000000303,['y'],0.9681241000000682,1.966,439.7974613000001,,,,,529,19,Woman,Right,
,,,,,,,,,,,,,,,,,529,19,Woman,Right,0,17,0.4,2,0,180,180,0.628621399999929,['y'],1.4413692000000538,1.974,445.0315019000002,,,,,529,19,Woman,Right,
,,,,,,,,,,,,,,,,,529,19,Woman,Right,0,53,0.15,2,0,180,180,2.0542093999999906,['y'],0.6013026999999056,1.974,450.3473279,,,,,529,19,Woman,Right,
,,,,,,,,,,,,,,,,,529,19,Woman,Right,0,36,0.4,1,0,-,180,0.6029900999999427,['y'],1.3461725000001934,1.8820000000000001,456.38060600000017,,,,,529,19,Woman,Right,
,,,,,,,,,,,,,,,,,529,19,Woman,Right,0,21,0.4,2,0,180,180,1.7331146999999874,['y'],0.8985715999999684,1.876,462.4475,,,,,529,19,Woman,Right,
,,,,,,,,,,,,,,,,,529,19,Woman,Right,0,46,0.15,1,180,-,0,3.0181325999999444,['n'],1.6525086999999985,1.752,470.2472,,,,,529,19,Woman,Right,
,,,,,,,,,,,,,,,,,529,19,Woman,Right,0,78,0.15,1,180,-,0,0.8390334999999141,['n'],2.900351899999805,1.692,478.63121120000005,,,,,529,19,Woman,Right,
,,,,,,,,,,,,,,,,,529,19,Woman,Right,0,47,0.15,2,180,0,0,1.0340151000000333,['n'],1.2212637000000086,1.824,483.9137204000001,,,,,529,19,Woman,Right,
,,,,,,,,,,,,,,,,,529,19,Woman,Right,0,8,0.4,1,0,-,180,1.1574411000001419,['y'],1.2141117000001032,1.916,491.2469761,,,,,529,19,Woman,Right,
,,,,,,,,,,,,,,,,,529,19,Woman,Right,0,20,0.4,1,0,-,180,0.45889240000019527,['y'],1.462960300000077,1.784,496.0811040000001,,,,,529,19,Woman,Right,
,,,,,,,,,,,,,,,,,529,19,Woman,Right,0,59,0.15,2,180,0,0,1.8184180000000651,['n'],1.2317597000001115,1.7,502.63101010000014,,,,,529,19,Woman,Right,
,,,,,,,,,,,,,,,,,529,19,Woman,Right,0,76,0.15,1,0,-,0,2.067350499999975,['n'],9.536906699999918,1.6059999999999999,517.1808537000002,,,,,529,19,Woman,Right,
,,,,,,,,,,,,,,,,,529,19,Woman,Right,0,61,0.15,2,0,180,180,0.4501765999998497,['n'],1.1060797000000093,1.866,522.2467290000002,,,,,529,19,Woman,Right,
,,,,,,,,,,,,,,,,,529,19,Woman,Right,0,73,0.15,2,0,180,180,0.52792989999989,['y'],1.6263627000000724,1.918,528.6641586000001,,,,,529,19,Woman,Right,
,,,,,,,,,,,,,,,,,529,19,Woman,Right,0,67,0.15,2,180,0,0,1.2807716000002074,['n'],1.4753433000000769,1.8439999999999999,534.6467182000001,,,,,529,19,Woman,Right,
,,,,,,,,,,,,,,,,,529,19,Woman,Right,0,37,0.4,2,0,180,180,0.5811504000000696,['y'],2.988391800000045,1.968,541.4134539000001,,,,,529,19,Woman,Right,
,,,,,,,,,,,,,,,,,529,19,Woman,Right,0,9,0.4,2,0,180,180,1.1378182000000834,['y'],1.165056899999854,1.964,546.4306381000001,,,,,529,19,Woman,Right,
,,,,,,,,,,,,,,,,,529,19,Woman,Right,0,24,0.4,1,0,-,180,0.793846399999893,['y'],1.6298335999999836,1.974,551.797327,,,,,529,19,Woman,Right,
,,,,,,,,,,,,,,,,,529,19,Woman,Right,0,60,0.15,1,0,-,0,0.826344600000084,['y'],1.7184416000000056,1.972,556.8806694,,,,,529,19,Woman,Right,
,,,,,,,,,,,,,,,,,529,19,Woman,Right,0,43,0.4,2,180,0,0,0.29772430000002714,['y'],1.5834608000000117,1.99,561.5972161000002,,,,,529,19,Woman,Right,
,,,,,,,,,,,,,,,,,529,19,Woman,Right,0,30,0.4,1,180,-,180,1.2559398999999303,['n'],1.1431362999999237,1.688,566.8798567000001,,,,,529,19,Woman,Right,
,,,,,,,,,,,,,,,,,529,19,Woman,Right,0,26,0.4,1,180,-,180,2.649569200000087,['n'],0.9763651000000664,1.792,573.2306396000001,,,,,529,19,Woman,Right,
,,,,,,,,,,,,,,,,,529,19,Woman,Right,0,38,0.4,1,180,-,0,0.34001809999995203,['y'],1.4481228999998166,1.892,578.0131669,,,,,529,19,Woman,Right,
,,,,,,,,,,,,,,,,,529,19,Woman,Right,0,49,0.15,2,0,180,180,1.2217980999998872,['n'],1.8175446000000193,1.716,585.6296339,,,,,529,19,Woman,Right,
,,,,,,,,,,,,,,,,,529,19,Woman,Right,0,57,0.15,2,0,180,0,0.8322960000000421,['y'],1.4509926000000632,1.646,593.5970427000002,,,,,529,19,Woman,Right,
,,,,,,,,,,,,,,,,,529,19,Woman,Right,0,74,0.15,1,180,-,0,0.5256741000000602,['y'],6.0758987000001525,1.6560000000000001,606.8461360000001,,,,,529,19,Woman,Right,
,,,,,,,,,,,,,,,,,529,19,Woman,Right,0,31,0.4,2,180,0,0,0.2834301000000323,['y'],1.3652735999999095,1.862,611.9294154000002,,,,,529,19,Woman,Right,
,,,,,,,,,,,,,,,,,529,19,Woman,Right,0,63,0.15,2,180,0,180,1.5291459000000032,['n'],1.46137049999993,1.748,618.2627755000001,,,,,529,19,Woman,Right,
,,,,,,,,,,,,,,,,,529,19,Woman,Right,0,19,0.4,2,180,0,0,0.43147030000000086,['y'],5.102336500000092,1.832,627.4468027999999,,,,,529,19,Woman,Right,
,,,,,,,,,,,,,,,,,529,19,Woman,Right,0,32,0.4,1,0,-,0,0.8742215000002034,['n'],1.6883788000000095,1.866,634.1299099,,,,,529,19,Woman,Right,
,,,,,,,,,,,,,,,,,529,19,Woman,Right,0,50,0.15,1,180,-,180,0.9852177000002484,['n'],1.3119768999999906,1.728,639.5793989000001,,,,,529,19,Woman,Right,
,,,,,,,,,,,,,,,,,529,19,Woman,Right,0,16,0.4,1,0,-,0,0.8520975000001272,['y'],1.5210366000001159,1.8599999999999999,645.2793494,,,,,529,19,Woman,Right,
,,,,,,,,,,,,,,,,,529,19,Woman,Right,0,56,0.15,1,0,-,0,0.8066014999999425,['y'],1.1374542000003203,1.95,651.1630919000002,,,,,529,19,Woman,Right,
,,,,,,,,,,,,,,,,,529,19,Woman,Right,0,33,0.4,2,0,180,180,0.49417189999985567,['y'],0.849885500000255,1.994,655.5957968999999,,,,,529,19,Woman,Right,
,,,,,,,,,,,,,,,,,529,19,Woman,Right,0,35,0.4,2,180,0,0,0.5390299999999115,['y'],1.7869003000000703,1.964,660.5798434999999,,,,,529,19,Woman,Right,
,,,,,,,,,,,,,,,,,529,19,Woman,Right,0,3,1,2,180,0,0,0.3914973999999347,['y'],1.4039016000001538,1.966,665.6463670999999,,,,,529,19,Woman,Right,
,,,,,,,,,,,,,,,,,529,19,Woman,Right,0,5,1,2,0,180,180,0.2946796000001086,['y'],1.4200314999998227,1.966,670.6290065000001,,,,,529,19,Woman,Right,
,,,,,,,,,,,,,,,,,529,19,Woman,Right,0,71,0.15,2,180,0,0,0.45396419999997306,['y'],1.3330384000000777,1.964,675.4790168000002,,,,,529,19,Woman,Right,
,,,,,,,,,,,,,,,,,529,19,Woman,Right,0,55,0.15,2,180,0,0,0.46143549999987954,['y'],1.2534403999998176,1.99,680.0630551000002,,,,,529,19,Woman,Right,
,,,,,,,,,,,,,,,,,529,19,Woman,Right,0,79,0.15,2,180,0,180,2.934334300000046,['y'],0.9664853999997831,1.892,687.5292341000002,,,,,529,19,Woman,Right,
,,,,,,,,,,,,,,,,,529,19,Woman,Right,0,69,0.15,2,0,180,180,0.7109826999999314,['y'],1.7753523999999743,1.958,693.1629255,,,,,529,19,Woman,Right,
,,,,,,,,,,,,,,,,,529,19,Woman,Right,0,1,1,2,0,180,180,0.26937869999983377,['y'],1.0877881999999772,1.94,696.8962286000003,,,,,529,19,Woman,Right,
,,,,,,,,,,,,,,,,,529,19,Woman,Right,0,0,1,1,0,-,0,1.6173706999998103,['n'],1.2501075000000128,1.962,702.9620783000003,,,,,529,19,Woman,Right,
,,,,,,,,,,,,,,,,,529,19,Woman,Right,0,72,0.15,1,0,-,180,8.385816500000146,['y'],0.4251513999997769,1.862,716.8454280000003,,,,,529,19,Woman,Right,
,,,,,,,,,,,,,,,,,529,19,Woman,Right,0,22,0.4,1,180,-,0,0.5667912999997498,['y'],1.5069523000001936,1.796,722.1619201000001,,,,,529,19,Woman,Right,
,,,,,,,,,,,,,,,,,529,19,Woman,Right,0,45,0.15,2,0,180,180,1.5472435000001497,['y'],1.587329200000113,1.734,728.5129991000001,,,,,529,19,Woman,Right,
,,,,,,,,,,,,,,,,,529,19,Woman,Right,0,13,0.4,2,0,180,180,1.257287599999927,['y'],0.5957344000003104,1.8479999999999999,733.5454766,,,,,529,19,Woman,Right,
,,,,,,,,,,,,,,,,,529,19,Woman,Right,0,11,0.4,2,180,0,0,0.4346734999999171,['y'],10.757055799999762,1.73,748.1958794,,,,,529,19,Woman,Right,
,,,,,,,,,,,,,,,,,529,19,Woman,Right,0,4,1,1,0,-,0,0.5279728000000432,['n'],1.2147507999998197,1.8559999999999999,753.2784202999999,,,,,529,19,Woman,Right,
,,,,,,,,,,,,,,,,,529,19,Woman,Right,0,44,0.15,1,0,-,0,2.633527299999969,['n'],2.047246399999949,1.686,762.6616967000002,,,,,529,19,Woman,Right,
,,,,,,,,,,,,,,,,,529,19,Woman,Right,0,12,0.4,1,0,-,0,1.2666926000001695,['n'],1.53801489999978,1.5979999999999999,768.2450317,,,,,529,19,Woman,Right,
,,,,,,,,,,,,,,,,,529,19,Woman,Right,0,58,0.15,1,180,-,0,1.2189588999999614,['n'],1.2812013999996452,1.772,775.3115645,,,,,529,19,Woman,Right,
,,,,,,,,,,,,,,,,,529,19,Woman,Right,0,25,0.4,2,0,180,180,0.6041525000000547,['y'],1.873731399999997,1.6179999999999999,781.9624575,,,,,529,19,Woman,Right,
,,,,,,,,,,,,,,,,,529,19,Woman,Right,0,10,0.4,1,180,-,0,0.815968100000191,['n'],10.059429499999624,1.446,798.0114040999999,,,,,529,19,Woman,Right,
,,,,,,,,,,,,,,,,,529,19,Woman,Right,0,15,0.4,2,180,0,0,1.003143899999941,['y'],1.1561567000003379,1.804,804.395354,,,,,529,19,Woman,Right,
,,,,,,,,,,,,,,,,,529,19,Woman,Right,0,34,0.4,1,180,-,0,2.3161866999998892,['y'],0.5894680999999764,1.87,810.7115432000003,,,,,529,19,Woman,Right,
,,,,,,,,,,,,,,,,,529,19,Woman,Right,0,68,0.15,1,0,-,180,1.317522899999858,['n'],1.645329099999799,1.796,818.5960956000001,,,,,529,19,Woman,Right,
,,,,,,,,,,,,,,,,,529,19,Woman,Right,0,54,0.15,1,180,-,0,1.1463824000002205,['n'],1.7826035999996748,1.73,824.4948379,,,,,529,19,Woman,Right,
,,,,,,,,,,,,,,,,,529,19,Woman,Right,0,2,1,1,180,-,180,0.5993376000001263,['n'],2.2958479000003535,1.87,832.6953381000001,,,,,529,19,Woman,Right,
,,,,,,,,,,,,,,,,,529,19,Woman,Right,0,14,0.4,1,180,-,0,5.7500497999999425,['n'],3.897494700000152,1.5819999999999999,847.6280776000001,,,,,529,19,Woman,Right,
,,,,,,,,,,,,,,,,,529,19,Woman,Right,0,42,0.4,1,180,-,0,2.7686585999999807,['y'],2.2022683000000143,1.4020000000000001,856.0777065,,,,,529,19,Woman,Right,
,,,,,,,,,,,,,,,,,529,19,Woman,Right,0,77,0.15,2,0,180,180,0.7272491000003356,['y'],1.4585787999999411,1.6560000000000001,861.7775947000002,,,,,529,19,Woman,Right,
,,,,,,,,,,,,,,,,,529,19,Woman,Right,0,66,0.15,1,180,-,0,3.9364817000000585,['n'],2.636445900000126,1.732,871.5275281000002,,,,,529,19,Woman,Right,
,,,,,,,,,,,,,,,,,529,19,Woman,Right,0,62,0.15,1,180,-,0,0.7892216999998709,['y'],1.4848191000000952,1.8639999999999999,876.9110893,,,,,529,19,Woman,Right,
,,,,,,,,,,,,,,,,,529,19,Woman,Right,0,40,0.4,1,0,-,0,0.6006225000000995,['n'],1.305062999999791,1.6600000000000001,882.7448661000001,,,,,529,19,Woman,Right,
,,,,,,,,,,,,,,,,,529,19,Woman,Right,0,7,1,2,180,0,0,0.7112176000000545,['y'],2.095303999999942,1.866,891.0275753000003,,,,,529,19,Woman,Right,
,,,,,,,,,,,,,,,,,529,19,Woman,Right,0,27,0.4,2,180,0,0,2.0489966999998614,['y'],2.0558538000000226,1.746,899.1446447999999,,,,,529,19,Woman,Right,
,,,,,,,,,,,,,,,,,529,19,Woman,Right,0,52,0.15,1,0,-,0,7.690687900000285,['y'],1.345268699999906,1.5899999999999999,914.0940274000002,,,,,529,19,Woman,Right,
,,,,,,,,,,,,,,,,,529,19,Woman,Right,0,70,0.15,1,180,-,180,0.4854749000000993,['y'],1.2105415999999423,1.8559999999999999,918.9112065000002,,,,,529,19,Woman,Right,
,,,,,,,,,,,,,,,,,529,19,Woman,Right,1,18,0.4,1,180,-,0,0.4769648000001325,['y'],1.2057823000000099,1.866,950.7268578999999,66.25,50.0,82.5,,529,19,Woman,Right,
,,,,,,,,,,,,,,,,,529,19,Woman,Right,1,50,0.15,1,180,-,0,1.6326828000001115,['y'],0.6151420000001053,1.866,955.6272507000001,,,,,529,19,Woman,Right,
,,,,,,,,,,,,,,,,,529,19,Woman,Right,1,29,0.4,2,0,180,180,0.5558015000001433,['y'],1.150981899999806,1.948,960.6771362000002,,,,,529,19,Woman,Right,
,,,,,,,,,,,,,,,,,529,19,Woman,Right,1,65,0.15,2,0,180,0,1.0154437000001053,['y'],0.47206210000013016,1.9020000000000001,965.0271798000001,,,,,529,19,Woman,Right,
,,,,,,,,,,,,,,,,,529,19,Woman,Right,1,61,0.15,2,0,180,180,0.7284006999998383,['y'],0.9683491999999205,1.846,970.4953090000001,,,,,529,19,Woman,Right,
,,,,,,,,,,,,,,,,,529,19,Woman,Right,1,42,0.4,1,180,-,0,0.5174117999999908,['y'],0.8177463000001808,1.776,975.7440403000003,,,,,529,19,Woman,Right,
,,,,,,,,,,,,,,,,,529,19,Woman,Right,1,55,0.15,2,180,0,180,3.9255121000001054,['n'],1.5712524000000485,1.6400000000000001,984.5274897000002,,,,,529,19,Woman,Right,
,,,,,,,,,,,,,,,,,529,19,Woman,Right,1,64,0.15,1,0,-,0,2.0133379999997487,['y'],1.7391180999998141,1.854,991.0609305,,,,,529,19,Woman,Right,
,,,,,,,,,,,,,,,,,529,19,Woman,Right,1,2,1,1,180,-,0,0.45741099999986545,['y'],1.2357276000002457,1.804,995.6102851000003,,,,,529,19,Woman,Right,
,,,,,,,,,,,,,,,,,529,19,Woman,Right,1,6,1,1,180,-,0,0.38056060000008074,['y'],1.9725484999999026,1.8439999999999999,1001.2106549000002,,,,,529,19,Woman,Right,
,,,,,,,,,,,,,,,,,529,19,Woman,Right,1,51,0.15,2,180,0,0,3.100151399999959,['y'],1.911395800000264,1.8780000000000001,1009.3264967000002,,,,,529,19,Woman,Right,
,,,,,,,,,,,,,,,,,529,19,Woman,Right,1,75,0.15,2,180,0,0,0.5091605999996318,['y'],1.4536260999998376,1.9,1016.0283480999999,,,,,529,19,Woman,Right,
,,,,,,,,,,,,,,,,,529,19,Woman,Right,1,25,0.4,2,0,180,180,2.2331490999999914,['y'],1.9426267999997435,1.812,1023.9271688000001,,,,,529,19,Woman,Right,
,,,,,,,,,,,,,,,,,529,19,Woman,Right,1,69,0.15,2,0,180,180,0.5511572000000342,['y'],0.7348564999997507,1.836,1028.4765064,,,,,529,19,Woman,Right,
,,,,,,,,,,,,,,,,,529,19,Woman,Right,1,78,0.15,1,180,-,0,2.2282602999998744,['n'],0.9123279999998886,1.722,1034.7263512000002,,,,,529,19,Woman,Right,
,,,,,,,,,,,,,,,,,529,19,Woman,Right,1,36,0.4,1,0,-,180,11.88550669999995,['y'],1.138251400000172,1.804,1051.1094921000001,,,,,529,19,Woman,Right,
,,,,,,,,,,,,,,,,,529,19,Woman,Right,1,14,0.4,1,180,-,0,0.38912359999994806,['y'],0.6351306999999906,1.938,1054.6766537,,,,,529,19,Woman,Right,
,,,,,,,,,,,,,,,,,529,19,Woman,Right,1,62,0.15,1,180,-,0,3.1390983000001142,['n'],1.0512563999996019,1.688,1062.9768095000002,,,,,529,19,Woman,Right,
,,,,,,,,,,,,,,,,,529,19,Woman,Right,1,71,0.15,2,180,0,0,1.38443529999995,['n'],1.5093474000000242,1.626,1068.5260481000003,,,,,529,19,Woman,Right,
,,,,,,,,,,,,,,,,,529,19,Woman,Right,1,39,0.4,2,180,0,0,0.7075144999998884,['y'],0.9493939000003593,1.742,1072.9767530000001,,,,,529,19,Woman,Right,
,,,,,,,,,,,,,,,,,529,19,Woman,Right,1,47,0.15,2,180,0,0,1.2120399000000361,['y'],1.821899399999893,1.784,1078.676435,,,,,529,19,Woman,Right,
,,,,,,,,,,,,,,,,,529,19,Woman,Right,1,23,0.4,2,180,0,180,0.6514986000001954,['y'],1.0945139000000381,1.9,1084.6106789000003,,,,,529,19,Woman,Right,
,,,,,,,,,,,,,,,,,529,19,Woman,Right,1,54,0.15,1,180,-,180,3.450959100000091,['n'],3.1352912000002107,1.426,1094.1432539,,,,,529,19,Woman,Right,
,,,,,,,,,,,,,,,,,529,19,Woman,Right,1,31,0.4,2,180,0,0,0.4094955000000482,['y'],1.2964791999997942,1.76,1098.5264202,,,,,529,19,Woman,Right,
,,,,,,,,,,,,,,,,,529,19,Woman,Right,1,40,0.4,1,0,-,180,0.8329036000000087,['y'],1.0650501000000077,1.798,1102.8099021,,,,,529,19,Woman,Right,
,,,,,,,,,,,,,,,,,529,19,Woman,Right,1,17,0.4,2,0,180,180,0.40981009999995877,['y'],1.4650315000003502,1.814,1107.6589545,,,,,529,19,Woman,Right,
,,,,,,,,,,,,,,,,,529,19,Woman,Right,1,59,0.15,2,180,0,0,0.4354902000000038,['y'],0.6020478999998886,1.798,1112.1762913,,,,,529,19,Woman,Right,
,,,,,,,,,,,,,,,,,529,19,Woman,Right,1,70,0.15,1,180,-,0,2.311436699999831,['n'],1.2583632999999281,1.862,1118.5755729,,,,,529,19,Woman,Right,
,,,,,,,,,,,,,,,,,529,19,Woman,Right,1,74,0.15,1,180,-,0,0.3504656000000068,['y'],1.2596416000001227,1.862,1122.5426806000003,,,,,529,19,Woman,Right,
,,,,,,,,,,,,,,,,,529,19,Woman,Right,1,28,0.4,1,0,-,180,0.4441871999997602,['y'],4.116416299999855,1.208,1130.4762534,,,,,529,19,Woman,Right,
,,,,,,,,,,,,,,,,,529,19,Woman,Right,1,46,0.15,1,180,-,180,0.8042968999998266,['y'],1.0048639999999978,1.756,1138.0597376000003,,,,,529,19,Woman,Right,
,,,,,,,,,,,,,,,,,529,19,Woman,Right,1,9,0.4,2,0,180,180,0.5676565999997365,['y'],0.9260845000003428,1.87,1142.3920933000002,,,,,529,19,Woman,Right,
,,,,,,,,,,,,,,,,,529,19,Woman,Right,1,76,0.15,1,0,-,0,0.7583088999999745,['n'],1.1179127999998855,1.8780000000000001,1147.0761848,,,,,529,19,Woman,Right,
,,,,,,,,,,,,,,,,,529,19,Woman,Right,1,52,0.15,1,0,-,180,0.9060797000001912,['y'],1.702519399999801,1.712,1152.6761619000001,,,,,529,19,Woman,Right,
,,,,,,,,,,,,,,,,,529,19,Woman,Right,1,37,0.4,2,0,180,0,1.5781574000002365,['y'],3.528202599999986,1.6600000000000001,1160.9587175,,,,,529,19,Woman,Right,
,,,,,,,,,,,,,,,,,529,19,Woman,Right,1,44,0.15,1,0,-,0,1.2605679000002965,['n'],1.4406136000002334,1.762,1166.8932110000003,,,,,529,19,Woman,Right,
,,,,,,,,,,,,,,,,,529,19,Woman,Right,1,21,0.4,2,0,180,180,0.4464770999998109,['y'],4.777745700000196,1.854,1176.5925275000002,,,,,529,19,Woman,Right,
,,,,,,,,,,,,,,,,,529,19,Woman,Right,1,5,1,2,0,180,180,3.859307799999897,['y'],1.2832988000000114,1.812,1184.9585498,,,,,529,19,Woman,Right,
,,,,,,,,,,,,,,,,,529,19,Woman,Right,1,4,1,1,0,-,0,0.962127799999962,['n'],1.179601299999831,1.73,1189.5583421,,,,,529,19,Woman,Right,
,,,,,,,,,,,,,,,,,529,19,Woman,Right,1,35,0.4,2,180,0,0,0.3230985000000146,['y'],0.9639911999997821,1.932,1195.2424526000002,,,,,529,19,Woman,Right,
,,,,,,,,,,,,,,,,,529,19,Woman,Right,1,79,0.15,2,180,0,0,0.6546826000003421,['n'],1.6999625000003107,1.68,1200.4425572000002,,,,,529,19,Woman,Right,
,,,,,,,,,,,,,,,,,529,19,Woman,Right,1,24,0.4,1,0,-,180,1.952730700000302,['y'],1.2612724999999045,1.8639999999999999,1207.0583389,,,,,529,19,Woman,Right,
,,,,,,,,,,,,,,,,,529,19,Woman,Right,1,68,0.15,1,0,-,0,1.481744400000025,['y'],0.7665877999997974,1.834,1213.3915646000003,,,,,529,19,Woman,Right,
,,,,,,,,,,,,,,,,,529,19,Woman,Right,1,1,1,2,0,180,180,0.5574596999999812,['y'],3.5346511000002465,1.928,1222.3081818000003,,,,,529,19,Woman,Right,
,,,,,,,,,,,,,,,,,529,19,Woman,Right,1,41,0.4,2,0,180,180,0.6806016999998974,['y'],1.8560034999995878,1.95,1227.92491,,,,,529,19,Woman,Right,
,,,,,,,,,,,,,,,,,529,19,Woman,Right,1,49,0.15,2,0,180,180,4.284084899999925,['y'],2.3204531000001225,1.83,1237.3414086,,,,,529,19,Woman,Right,
,,,,,,,,,,,,,,,,,529,19,Woman,Right,1,77,0.15,2,0,180,180,8.349833899999794,['y'],2.029269999999997,1.568,1253.774631,,,,,529,19,Woman,Right,
,,,,,,,,,,,,,,,,,529,19,Woman,Right,1,19,0.4,2,180,0,0,0.4180311000000074,['y'],1.9789407000002939,1.782,1260.141264,,,,,529,19,Woman,Right,
,,,,,,,,,,,,,,,,,529,19,Woman,Right,1,8,0.4,1,0,-,180,3.586355100000219,['y'],6.644849299999805,1.766,1275.0422229000003,,,,,529,19,Woman,Right,
,,,,,,,,,,,,,,,,,529,19,Woman,Right,1,16,0.4,1,0,-,180,5.829101400000127,['y'],1.6065709999998035,1.68,1286.7417729000001,,,,,529,19,Woman,Right,
,,,,,,,,,,,,,,,,,529,19,Woman,Right,1,63,0.15,2,180,0,180,6.439846299999772,['y'],10.073192399999698,1.6099999999999999,1306.2909164999999,,,,,529,19,Woman,Right,
,,,,,,,,,,,,,,,,,529,19,Woman,Right,1,73,0.15,2,0,180,0,4.201826600000004,['n'],1.4584129999998368,1.666,1316.3741324,,,,,529,19,Woman,Right,
,,,,,,,,,,,,,,,,,529,19,Woman,Right,1,45,0.15,2,0,180,0,1.2226670000000013,['n'],0.8433709999999337,1.712,1321.1246875,,,,,529,19,Woman,Right,
,,,,,,,,,,,,,,,,,529,19,Woman,Right,1,43,0.4,2,180,0,0,0.33776540000008026,['y'],1.0592883000003894,1.794,1325.3249666,,,,,529,19,Woman,Right,
,,,,,,,,,,,,,,,,,529,19,Woman,Right,1,27,0.4,2,180,0,0,0.4030185999999958,['y'],3.1004486000001634,1.8900000000000001,1331.9409473000003,,,,,529,19,Woman,Right,
,,,,,,,,,,,,,,,,,529,19,Woman,Right,1,56,0.15,1,0,-,180,1.2476235000003726,['y'],4.253489699999591,1.876,1340.5072462,,,,,529,19,Woman,Right,
,,,,,,,,,,,,,,,,,529,19,Woman,Right,1,3,1,2,180,0,0,0.41045639999993,['y'],1.31906650000019,1.936,1345.8421237,,,,,529,19,Woman,Right,
,,,,,,,,,,,,,,,,,529,19,Woman,Right,1,0,1,1,0,-,0,1.1891193000001294,['n'],1.4628036999997676,1.72,1351.9073899000002,,,,,529,19,Woman,Right,
,,,,,,,,,,,,,,,,,529,19,Woman,Right,1,34,0.4,1,180,-,0,0.6853533000003154,['y'],1.1269936999997299,1.798,1357.2913533000003,,,,,529,19,Woman,Right,
,,,,,,,,,,,,,,,,,529,19,Woman,Right,1,11,0.4,2,180,0,0,0.6278257000003578,['y'],1.4322190999996565,1.918,1362.1070824,,,,,529,19,Woman,Right,
,,,,,,,,,,,,,,,,,529,19,Woman,Right,1,58,0.15,1,180,-,180,7.814301300000352,['y'],12.554741899999954,1.108,1389.8569410000002,,,,,529,19,Woman,Right,
,,,,,,,,,,,,,,,,,529,19,Woman,Right,1,10,0.4,1,180,-,0,1.0282376999998633,['n'],2.148823900000025,1.706,1396.9241486000003,,,,,529,19,Woman,Right,
,,,,,,,,,,,,,,,,,529,19,Woman,Right,1,66,0.15,1,180,-,180,2.3773606999998265,['n'],8.125348900000063,1.6400000000000001,1410.4237044,,,,,529,19,Woman,Right,
,,,,,,,,,,,,,,,,,529,19,Woman,Right,1,15,0.4,2,180,0,0,0.6520669999999882,['y'],4.239414600000146,1.718,1423.5402111,,,,,529,19,Woman,Right,
,,,,,,,,,,,,,,,,,529,19,Woman,Right,1,32,0.4,1,0,-,0,0.4666773999997531,['y'],1.1960556000003635,1.816,1429.8906812000002,,,,,529,19,Woman,Right,
,,,,,,,,,,,,,,,,,529,19,Woman,Right,1,30,0.4,1,180,-,0,0.402736399999867,['y'],1.5609276000000136,1.6320000000000001,1439.6231617,,,,,529,19,Woman,Right,
,,,,,,,,,,,,,,,,,529,19,Woman,Right,1,7,1,2,180,0,0,0.2360593000003064,['y'],0.946727699999883,1.962,1450.4571932000001,,,,,529,19,Woman,Right,
,,,,,,,,,,,,,,,,,529,19,Woman,Right,1,38,0.4,1,180,-,180,3.8062402000000475,['n'],0.451611800000137,1.6219999999999999,1458.4572974,,,,,529,19,Woman,Right,
,,,,,,,,,,,,,,,,,529,19,Woman,Right,1,72,0.15,1,0,-,180,0.5232690000002549,['y'],1.6997744000000239,1.82,1463.5070784000002,,,,,529,19,Woman,Right,
,,,,,,,,,,,,,,,,,529,19,Woman,Right,1,67,0.15,2,180,0,0,0.2356448000000455,['y'],12.446049399999993,1.838,1479.0072109999999,,,,,529,19,Woman,Right,
,,,,,,,,,,,,,,,,,529,19,Woman,Right,1,48,0.15,1,0,-,0,0.330855000000156,['y'],10.087342499999977,1.778,1492.6568918,,,,,529,19,Woman,Right,
,,,,,,,,,,,,,,,,,529,19,Woman,Right,1,53,0.15,2,0,180,180,9.816946299999927,['y'],5.618434400000297,1.592,1516.7392118,,,,,529,19,Woman,Right,
,,,,,,,,,,,,,,,,,529,19,Woman,Right,1,20,0.4,1,0,-,0,0.5365013000000545,['n'],2.7721096999998736,1.6360000000000001,1523.0233339,,,,,529,19,Woman,Right,
,,,,,,,,,,,,,,,,,529,19,Woman,Right,1,26,0.4,1,180,-,0,3.317480600000181,['n'],1.6369418999997833,1.572,1532.1565424000003,,,,,529,19,Woman,Right,
,,,,,,,,,,,,,,,,,529,19,Woman,Right,1,22,0.4,1,180,-,180,1.4905737000003683,['y'],0.9816086000000723,1.782,1537.772412,,,,,529,19,Woman,Right,
,,,,,,,,,,,,,,,,,529,19,Woman,Right,1,57,0.15,2,0,180,180,1.7844958000000588,['y'],1.8632026000000224,1.808,1544.4891532,,,,,529,19,Woman,Right,
,,,,,,,,,,,,,,,,,529,19,Woman,Right,1,33,0.4,2,0,180,180,10.492063000000144,['y'],1.2486338999997315,1.836,1558.9889221,,,,,529,19,Woman,Right,
,,,,,,,,,,,,,,,,,529,19,Woman,Right,1,60,0.15,1,0,-,0,0.4384534999999232,['y'],1.2401935000002595,1.8900000000000001,1563.5229409,,,,,529,19,Woman,Right,
,,,,,,,,,,,,,,,,,529,19,Woman,Right,1,12,0.4,1,0,-,0,9.743027900000016,['y'],1.362082399999963,1.812,1577.9888286000003,,,,,529,19,Woman,Right,
,,,,,,,,,,,,,,,,,529,19,Woman,Right,1,13,0.4,2,0,180,180,2.623240800000076,['y'],1.170888499999819,1.95,1585.1554653,,,,,529,19,Woman,Right,
,,,,,,,,,,,,,,,,,529,19,Woman,Right,2,70,0.15,1,180,-,0,4.549225600000227,['n'],1.856973200000084,1.704,1633.7723148000002,62.5,32.5,87.5,,529,19,Woman,Right,
,,,,,,,,,,,,,,,,,529,19,Woman,Right,2,7,1,2,180,0,0,0.5540486999998393,['y'],5.322112299999844,1.824,1642.8549851,,,,,529,19,Woman,Right,
,,,,,,,,,,,,,,,,,529,19,Woman,Right,2,31,0.4,2,180,0,0,0.6713799999997718,['y'],2.123236100000213,1.916,1648.6221482000003,,,,,529,19,Woman,Right,
,,,,,,,,,,,,,,,,,529,19,Woman,Right,2,26,0.4,1,180,-,180,1.3988866000004236,['y'],0.7152848000000631,1.764,1654.0056279000003,,,,,529,19,Woman,Right,
,,,,,,,,,,,,,,,,,529,19,Woman,Right,2,53,0.15,2,0,180,180,0.954442900000231,['y'],3.853805299999749,1.72,1661.5882022000003,,,,,529,19,Woman,Right,
,,,,,,,,,,,,,,,,,529,19,Woman,Right,2,65,0.15,2,0,180,0,8.128528000000188,['n'],3.8133069000000432,1.27,1676.8053297,,,,,529,19,Woman,Right,
,,,,,,,,,,,,,,,,,529,19,Woman,Right,2,46,0.15,1,180,-,180,0.7837608999998338,['y'],1.6393229999998766,1.72,1683.1046837000001,,,,,529,19,Woman,Right,
,,,,,,,,,,,,,,,,,529,19,Woman,Right,2,50,0.15,1,180,-,180,4.28100110000014,['n'],1.223160900000039,1.634,1695.7545444,,,,,529,19,Woman,Right,
,,,,,,,,,,,,,,,,,529,19,Woman,Right,2,8,0.4,1,0,-,0,6.2019687000001795,['y'],3.6339027999997597,1.5899999999999999,1709.1879021000002,,,,,529,19,Woman,Right,
,,,,,,,,,,,,,,,,,529,19,Woman,Right,2,22,0.4,1,180,-,0,0.392207899999903,['y'],2.7387755999998262,1.6099999999999999,1718.6380328000002,,,,,529,19,Woman,Right,
,,,,,,,,,,,,,,,,,529,19,Woman,Right,2,49,0.15,2,0,180,0,0.9714987999996083,['n'],1.7076575000000958,1.78,1723.9875851,,,,,529,19,Woman,Right,
,,,,,,,,,,,,,,,,,529,19,Woman,Right,2,59,0.15,2,180,0,0,0.6904209999997875,['y'],9.109626700000263,1.694,1738.9215684000003,,,,,529,19,Woman,Right,
,,,,,,,,,,,,,,,,,529,19,Woman,Right,2,30,0.4,1,180,-,180,0.4740086000001611,['n'],1.054272100000162,1.6280000000000001,1744.0709476,,,,,529,19,Woman,Right,
,,,,,,,,,,,,,,,,,529,19,Woman,Right,2,2,1,1,180,-,180,0.5728167999996003,['y'],5.391804699999739,1.4100000000000001,1762.4210122000002,,,,,529,19,Woman,Right,
,,,,,,,,,,,,,,,,,529,19,Woman,Right,2,64,0.15,1,0,-,0,6.588404900000114,['y'],1.1384119999997893,1.71,1773.8212807000002,,,,,529,19,Woman,Right,
,,,,,,,,,,,,,,,,,529,19,Woman,Right,2,13,0.4,2,0,180,0,2.1589146999999684,['y'],1.2023166000003584,1.708,1780.2044536,,,,,529,19,Woman,Right,
,,,,,,,,,,,,,,,,,529,19,Woman,Right,2,77,0.15,2,0,180,0,1.1551054000001386,['y'],1.8832746000002771,1.774,1786.1206519,,,,,529,19,Woman,Right,
,,,,,,,,,,,,,,,,,529,19,Woman,Right,2,51,0.15,2,180,0,180,6.075924400000076,['y'],1.5889046000002054,1.762,1796.6538215000003,,,,,529,19,Woman,Right,
,,,,,,,,,,,,,,,,,529,19,Woman,Right,2,56,0.15,1,0,-,180,4.849380999999994,['n'],1.877860999999939,1.782,1806.3881481,,,,,529,19,Woman,Right,
,,,,,,,,,,,,,,,,,529,19,Woman,Right,2,40,0.4,1,0,-,0,2.2101175000002513,['y'],1.0629112999999961,1.94,1813.1547265000002,,,,,529,19,Woman,Right,
,,,,,,,,,,,,,,,,,529,19,Woman,Right,2,36,0.4,1,0,-,180,1.0419629000002715,['y'],0.7192503999999644,1.804,1817.7038086,,,,,529,19,Woman,Right,
,,,,,,,,,,,,,,,,,529,19,Woman,Right,2,75,0.15,2,180,0,0,0.6410629000001791,['y'],1.400249299999814,1.846,1822.3871308999999,,,,,529,19,Woman,Right,
,,,,,,,,,,,,,,,,,529,19,Woman,Right,2,48,0.15,1,0,-,0,5.1390464000000975,['n'],1.2563661999997748,1.826,1832.1208763000002,,,,,529,19,Woman,Right,
,,,,,,,,,,,,,,,,,529,19,Woman,Right,2,14,0.4,1,180,-,180,2.348243899999943,['n'],7.1158126999998785,1.564,1845.6533792000002,,,,,529,19,Woman,Right,
,,,,,,,,,,,,,,,,,529,19,Woman,Right,2,76,0.15,1,0,-,180,2.7000076999997873,['y'],0.983767700000044,1.764,1851.8207666,,,,,529,19,Woman,Right,
,,,,,,,,,,,,,,,,,529,19,Woman,Right,2,72,0.15,1,0,-,0,0.5686967000001459,['y'],1.3953176999998504,1.904,1856.5200345,,,,,529,19,Woman,Right,
,,,,,,,,,,,,,,,,,529,19,Woman,Right,2,19,0.4,2,180,0,0,10.936182299999928,['y'],3.894091799999842,1.408,1874.2532179000002,,,,,529,19,Woman,Right,
,,,,,,,,,,,,,,,,,529,19,Woman,Right,2,73,0.15,2,0,180,180,1.2682214999999815,['y'],1.998849699999937,1.576,1889.1704949000002,,,,,529,19,Woman,Right,
,,,,,,,,,,,,,,,,,529,19,Woman,Right,2,6,1,1,180,-,180,1.1748046999996404,['y'],1.5924663999999211,1.702,1895.3703480000001,,,,,529,19,Woman,Right,
,,,,,,,,,,,,,,,,,529,19,Woman,Right,2,27,0.4,2,180,0,0,0.6691123999999036,['y'],1.7129217000001518,1.83,1901.0034467000003,,,,,529,19,Woman,Right,
,,,,,,,,,,,,,,,,,529,19,Woman,Right,2,10,0.4,1,180,-,180,2.464014899999711,['n'],1.0738897999999608,1.892,1907.3036383,,,,,529,19,Woman,Right,
,,,,,,,,,,,,,,,,,529,19,Woman,Right,2,37,0.4,2,0,180,180,0.5716851000001952,['y'],2.4024097999999867,1.88,1913.0536043,,,,,529,19,Woman,Right,
,,,,,,,,,,,,,,,,,529,19,Woman,Right,2,44,0.15,1,0,-,180,13.733246400000098,['y'],1.820312400000148,1.1059999999999999,1931.5194522,,,,,529,19,Woman,Right,
,,,,,,,,,,,,,,,,,529,19,Woman,Right,2,68,0.15,1,0,-,180,3.1309157999999115,['n'],1.2459316000004037,1.564,1939.8699856,,,,,529,19,Woman,Right,
,,,,,,,,,,,,,,,,,529,19,Woman,Right,2,1,1,2,0,180,180,0.6520481000002292,['y'],1.2223782000000938,1.69,1945.270076,,,,,529,19,Woman,Right,
,,,,,,,,,,,,,,,,,529,19,Woman,Right,2,35,0.4,2,180,0,0,0.527540499999759,['y'],1.0795659000000342,1.85,1950.169694,,,,,529,19,Woman,Right,
,,,,,,,,,,,,,,,,,529,19,Woman,Right,2,25,0.4,2,0,180,180,0.42549490000010337,['y'],1.0560489999998026,1.884,1954.8532867000001,,,,,529,19,Woman,Right,
,,,,,,,,,,,,,,,,,529,19,Woman,Right,2,71,0.15,2,180,0,0,0.5976057999996556,['y'],1.5689347000002272,1.8719999999999999,1960.335973,,,,,529,19,Woman,Right,
,,,,,,,,,,,,,,,,,529,19,Woman,Right,2,54,0.15,1,180,-,0,4.726437799999985,['y'],2.0023785000003045,1.88,1972.703116,,,,,529,19,Woman,Right,
,,,,,,,,,,,,,,,,,529,19,Woman,Right,2,9,0.4,2,0,180,0,6.423350699999901,['n'],2.371140700000069,1.19,1985.1690151999999,,,,,529,19,Woman,Right,
,,,,,,,,,,,,,,,,,529,19,Woman,Right,2,45,0.15,2,0,180,180,2.5296023999999306,['n'],3.4926321000002645,1.6099999999999999,1994.2689238,,,,,529,19,Woman,Right,
,,,,,,,,,,,,,,,,,529,19,Woman,Right,2,24,0.4,1,0,-,0,2.8875529000001734,['n'],0.37291480000021693,1.858,1999.8689293,,,,,529,19,Woman,Right,
,,,,,,,,,,,,,,,,,529,19,Woman,Right,2,21,0.4,2,0,180,180,0.673051199999918,['y'],1.0385357999998632,1.8679999999999999,2004.3023974999999,,,,,529,19,Woman,Right,
,,,,,,,,,,,,,,,,,529,19,Woman,Right,2,5,1,2,0,180,180,0.5678109999998924,['y'],1.0622316000003593,1.8900000000000001,2008.7198495,,,,,529,19,Woman,Right,
,,,,,,,,,,,,,,,,,529,19,Woman,Right,2,12,0.4,1,0,-,180,4.27523710000014,['y'],0.5834170000002814,1.96,2016.3862562000002,,,,,529,19,Woman,Right,
,,,,,,,,,,,,,,,,,529,19,Woman,Right,2,29,0.4,2,0,180,180,0.8092920999997659,['y'],1.5841448999999557,1.8,2021.3694456,,,,,529,19,Woman,Right,
,,,,,,,,,,,,,,,,,529,19,Woman,Right,2,0,1,1,0,-,0,0.5825607000001582,['n'],1.1286651000000347,1.922,2026.2027683,,,,,529,19,Woman,Right,
,,,,,,,,,,,,,,,,,529,19,Woman,Right,2,17,0.4,2,0,180,180,3.5006241999999475,['y'],2.8870253999998567,1.814,2035.1852740000002,,,,,529,19,Woman,Right,
,,,,,,,,,,,,,,,,,529,19,Woman,Right,2,61,0.15,2,0,180,180,0.5369633999998769,['y'],7.322210999999697,1.73,2045.5352114,,,,,529,19,Woman,Right,
,,,,,,,,,,,,,,,,,529,19,Woman,Right,2,43,0.4,2,180,0,0,0.3815893999999389,['y'],1.579138999999941,1.812,2050.1022134000004,,,,,529,19,Woman,Right,
,,,,,,,,,,,,,,,,,529,19,Woman,Right,2,60,0.15,1,0,-,0,0.28257480000002033,['n'],1.0275861000000077,1.874,2054.1024644999998,,,,,529,19,Woman,Right,
,,,,,,,,,,,,,,,,,529,19,Woman,Right,2,33,0.4,2,0,180,180,3.162580700000035,['y'],1.285364099999697,1.92,2063.5022293,,,,,529,19,Woman,Right,
,,,,,,,,,,,,,,,,,529,19,Woman,Right,2,47,0.15,2,180,0,180,3.3331155999999282,['n'],1.326004699999885,1.732,2071.1184377,,,,,529,19,Woman,Right,
,,,,,,,,,,,,,,,,,529,19,Woman,Right,2,66,0.15,1,180,-,0,0.6989753999996537,['y'],5.8402320000000145,1.6520000000000001,2082.0356192,,,,,529,19,Woman,Right,
,,,,,,,,,,,,,,,,,529,19,Woman,Right,2,11,0.4,2,180,0,0,0.5119779999999992,['y'],2.776653200000055,1.774,2091.5848926,,,,,529,19,Woman,Right,
,,,,,,,,,,,,,,,,,529,19,Woman,Right,2,55,0.15,2,180,0,0,0.5783049000001483,['y'],0.9458233000000291,1.73,2096.9181678000004,,,,,529,19,Woman,Right,
,,,,,,,,,,,,,,,,,529,19,Woman,Right,2,18,0.4,1,180,-,0,0.32371589999956996,['y'],1.7700122000001102,1.822,2102.2195186,,,,,529,19,Woman,Right,
,,,,,,,,,,,,,,,,,529,19,Woman,Right,2,79,0.15,2,180,0,0,8.246253599999818,['n'],1.7077621999997064,1.4060000000000001,2119.8355195000004,,,,,529,19,Woman,Right,
,,,,,,,,,,,,,,,,,529,19,Woman,Right,2,15,0.4,2,180,0,0,1.7248652000002949,['y'],0.5086710999999013,1.77,2125.08468,,,,,529,19,Woman,Right,
,,,,,,,,,,,,,,,,,529,19,Woman,Right,2,4,1,1,0,-,0,0.8126274000001104,['n'],0.8130307999999786,1.984,2134.8853336,,,,,529,19,Woman,Right,
,,,,,,,,,,,,,,,,,529,19,Woman,Right,2,16,0.4,1,0,-,0,7.225932199999988,['n'],1.6317610999999488,1.072,2148.5020105000003,,,,,529,19,Woman,Right,
,,,,,,,,,,,,,,,,,529,19,Woman,Right,2,32,0.4,1,0,-,0,1.4002285000001393,['n'],0.9050833000001148,1.588,2155.3509593999997,,,,,529,19,Woman,Right,
,,,,,,,,,,,,,,,,,529,19,Woman,Right,2,39,0.4,2,180,0,0,0.4254252999999153,['y'],1.1608879000000343,1.678,2159.6850775000003,,,,,529,19,Woman,Right,
,,,,,,,,,,,,,,,,,529,19,Woman,Right,2,58,0.15,1,180,-,0,0.4472145999998247,['y'],1.1777058000002398,1.944,2164.0676221000003,,,,,529,19,Woman,Right,
,,,,,,,,,,,,,,,,,529,19,Woman,Right,2,28,0.4,1,0,-,0,0.14892779999991035,['y'],2.7947558000000754,1.81,2169.5674682,,,,,529,19,Woman,Right,
,,,,,,,,,,,,,,,,,529,19,Woman,Right,2,38,0.4,1,180,-,180,0.7058134999997492,['n'],1.8028291000000536,1.774,2175.8175421000005,,,,,529,19,Woman,Right,
,,,,,,,,,,,,,,,,,529,19,Woman,Right,2,3,1,2,180,0,0,0.5283637000002273,['y'],2.18780310000011,1.994,2183.6348219,,,,,529,19,Woman,Right,
,,,,,,,,,,,,,,,,,529,19,Woman,Right,2,74,0.15,1,180,-,0,3.797498600000381,['y'],1.3410942999998952,1.6179999999999999,2192.1173796000003,,,,,529,19,Woman,Right,
,,,,,,,,,,,,,,,,,529,19,Woman,Right,2,20,0.4,1,0,-,0,6.529269000000113,['n'],2.302352400000018,1.764,2204.0008924000003,,,,,529,19,Woman,Right,
,,,,,,,,,,,,,,,,,529,19,Woman,Right,2,42,0.4,1,180,-,0,2.1768173999998908,['y'],0.519539999999779,1.854,2211.5183417999997,,,,,529,19,Woman,Right,
,,,,,,,,,,,,,,,,,529,19,Woman,Right,2,52,0.15,1,0,-,0,0.4436759999998685,['y'],1.1919450999998844,1.966,2216.1176228000004,,,,,529,19,Woman,Right,
,,,,,,,,,,,,,,,,,529,19,Woman,Right,2,41,0.4,2,0,180,180,0.4877731000001404,['y'],4.463906299999962,1.938,2225.867625,,,,,529,19,Woman,Right,
,,,,,,,,,,,,,,,,,529,19,Woman,Right,2,23,0.4,2,180,0,0,3.0079476999999315,['y'],1.225852500000201,1.758,2233.0838492000003,,,,,529,19,Woman,Right,
,,,,,,,,,,,,,,,,,529,19,Woman,Right,2,63,0.15,2,180,0,180,2.5066515000003164,['n'],9.180222400000275,1.062,2248.7670226,,,,,529,19,Woman,Right,
,,,,,,,,,,,,,,,,,529,19,Woman,Right,2,67,0.15,2,180,0,0,4.439461200000096,['y'],2.212964800000009,1.692,2259.5838642,,,,,529,19,Woman,Right,
,,,,,,,,,,,,,,,,,529,19,Woman,Right,2,78,0.15,1,180,-,180,3.7002830000001268,['n'],1.1413855999999214,1.592,2267.7335257000004,,,,,529,19,Woman,Right,
,,,,,,,,,,,,,,,,,529,19,Woman,Right,2,57,0.15,2,0,180,0,0.9371216999998069,['y'],3.3911571000003278,1.314,2276.9010137000005,,,,,529,19,Woman,Right,
,,,,,,,,,,,,,,,,,529,19,Woman,Right,2,34,0.4,1,180,-,0,3.7541063000003305,['y'],0.6557030000003579,1.77,2284.2007202000004,,,,,529,19,Woman,Right,
,,,,,,,,,,,,,,,,,529,19,Woman,Right,2,69,0.15,2,0,180,0,0.48962070000015956,['y'],1.1286151999997855,1.874,2288.3344830000005,,,,,529,19,Woman,Right,
,,,,,,,,,,,,,,,,,529,19,Woman,Right,2,62,0.15,1,180,-,0,0.509477699999934,['y'],1.416915599999811,1.708,2293.3172976000005,,,,,529,19,Woman,Right,
,,,,,,,,,,,,,,,,,529,19,Woman,Right,3,34,0.4,1,180,-,180,1.1382124000001568,['n'],1.149103599999762,1.728,2327.4997319000004,67.5,42.5,82.5,,529,19,Woman,Right,
,,,,,,,,,,,,,,,,,529,19,Woman,Right,3,26,0.4,1,180,-,0,0.07809480000014446,['y'],4.270050999999967,1.6099999999999999,2335.2496867,,,,,529,19,Woman,Right,
,,,,,,,,,,,,,,,,,529,19,Woman,Right,3,41,0.4,2,0,180,180,0.8594100000000253,['y'],1.1995938999998543,1.798,2341.1664011000003,,,,,529,19,Woman,Right,
,,,,,,,,,,,,,,,,,529,19,Woman,Right,3,14,0.4,1,180,-,180,0.7660713000000214,['n'],0.9349104000002626,1.838,2345.8495924,,,,,529,19,Woman,Right,
,,,,,,,,,,,,,,,,,529,19,Woman,Right,3,58,0.15,1,180,-,0,3.710249499999918,['y'],1.3608303999999407,1.908,2353.7335658,,,,,529,19,Woman,Right,
,,,,,,,,,,,,,,,,,529,19,Woman,Right,3,11,0.4,2,180,0,0,0.3548092999999426,['y'],1.0083956000003127,2.0,2357.7510043,,,,,529,19,Woman,Right,
,,,,,,,,,,,,,,,,,529,19,Woman,Right,3,19,0.4,2,180,0,0,0.3782213999998021,['y'],1.8657161999999516,1.766,2375.3334713000004,,,,,529,19,Woman,Right,
,,,,,,,,,,,,,,,,,529,19,Woman,Right,3,29,0.4,2,0,180,180,0.5107861999999841,['y'],0.9076297000001432,1.884,2379.7995724,,,,,529,19,Woman,Right,
,,,,,,,,,,,,,,,,,529,19,Woman,Right,3,75,0.15,2,180,0,0,0.38359410000020944,['y'],1.3031096999998226,1.646,2383.9493558000004,,,,,529,19,Woman,Right,
,,,,,,,,,,,,,,,,,529,19,Woman,Right,3,52,0.15,1,0,-,180,1.1965578999997888,['y'],11.101918400000159,1.734,2398.7328294,,,,,529,19,Woman,Right,
,,,,,,,,,,,,,,,,,529,19,Woman,Right,3,39,0.4,2,180,0,0,0.34202000000004773,['y'],0.9904956000000311,1.8900000000000001,2402.6833750000005,,,,,529,19,Woman,Right,
,,,,,,,,,,,,,,,,,529,19,Woman,Right,3,8,0.4,1,0,-,180,12.95197270000017,['n'],1.7758563999996113,1.124,2423.9993833999997,,,,,529,19,Woman,Right,
,,,,,,,,,,,,,,,,,529,19,Woman,Right,3,20,0.4,1,0,-,0,0.43122330000005604,['y'],1.7851098999999522,1.798,2429.8829136000004,,,,,529,19,Woman,Right,
,,,,,,,,,,,,,,,,,529,19,Woman,Right,3,33,0.4,2,0,180,180,0.5108500999999706,['y'],1.7622999000000164,1.842,2435.9488606000004,,,,,529,19,Woman,Right,
,,,,,,,,,,,,,,,,,529,19,Woman,Right,3,63,0.15,2,180,0,0,0.5417413000000124,['n'],0.7709431999996923,1.954,2439.8662385,,,,,529,19,Woman,Right,
,,,,,,,,,,,,,,,,,529,19,Woman,Right,3,2,1,1,180,-,0,0.3669057000001885,['y'],0.894354900000053,1.728,2444.232048,,,,,529,19,Woman,Right,
,,,,,,,,,,,,,,,,,529,19,Woman,Right,3,3,1,2,180,0,0,0.22770420000006197,['y'],0.7954058000000259,1.8439999999999999,2447.7488223,,,,,529,19,Woman,Right,
,,,,,,,,,,,,,,,,,529,19,Woman,Right,3,17,0.4,2,0,180,180,0.45258590000003096,['y'],1.260408600000119,1.9060000000000001,2452.0320895000004,,,,,529,19,Woman,Right,
,,,,,,,,,,,,,,,,,529,19,Woman,Right,3,44,0.15,1,0,-,0,0.8086535999996158,['n'],0.9654049000000668,1.6139999999999999,2457.0492460000005,,,,,529,19,Woman,Right,
,,,,,,,,,,,,,,,,,529,19,Woman,Right,3,1,1,2,0,180,180,0.8948362999999517,['y'],0.33340580000003683,1.754,2461.8831787,,,,,529,19,Woman,Right,
,,,,,,,,,,,,,,,,,529,19,Woman,Right,3,48,0.15,1,0,-,180,2.237332199999855,['y'],1.934497900000224,1.634,2469.2320093999997,,,,,529,19,Woman,Right,
,,,,,,,,,,,,,,,,,529,19,Woman,Right,3,25,0.4,2,0,180,0,4.315760499999669,['n'],1.4712921000000279,1.3319999999999999,2480.8320017000005,,,,,529,19,Woman,Right,
,,,,,,,,,,,,,,,,,529,19,Woman,Right,3,71,0.15,2,180,0,180,5.11266680000017,['y'],1.8654936999996607,1.67,2493.2984623,,,,,529,19,Woman,Right,
,,,,,,,,,,,,,,,,,529,19,Woman,Right,3,0,1,1,0,-,0,1.1579679000001306,['n'],0.7298222999997961,1.8719999999999999,2499.5817093000005,,,,,529,19,Woman,Right,
,,,,,,,,,,,,,,,,,529,19,Woman,Right,3,53,0.15,2,0,180,180,1.413715400000001,['n'],2.0342320999998265,1.662,2505.4983635999997,,,,,529,19,Woman,Right,
,,,,,,,,,,,,,,,,,529,19,Woman,Right,3,21,0.4,2,0,180,180,0.34728610000001936,['y'],0.8836669000002075,1.854,2509.5160856,,,,,529,19,Woman,Right,
,,,,,,,,,,,,,,,,,529,19,Woman,Right,3,57,0.15,2,0,180,0,0.20723229999975956,['n'],1.4206081000002087,1.302,2516.0816454000005,,,,,529,19,Woman,Right,
,,,,,,,,,,,,,,,,,529,19,Woman,Right,3,32,0.4,1,0,-,0,1.3040132000000995,['n'],0.7409221999996589,1.696,2520.6816221999998,,,,,529,19,Woman,Right,
,,,,,,,,,,,,,,,,,529,19,Woman,Right,3,12,0.4,1,0,-,180,0.7842333999997209,['n'],0.5412004000004345,1.8900000000000001,2524.7822237,,,,,529,19,Woman,Right,
,,,,,,,,,,,,,,,,,529,19,Woman,Right,3,10,0.4,1,180,-,180,1.1155413000001317,['n'],1.4296267999998236,1.6520000000000001,2529.9322686000005,,,,,529,19,Woman,Right,
,,,,,,,,,,,,,,,,,529,19,Woman,Right,3,61,0.15,2,0,180,0,0.4073201999999583,['y'],4.607107900000301,1.736,2540.1148163,,,,,529,19,Woman,Right,
,,,,,,,,,,,,,,,,,529,19,Woman,Right,3,31,0.4,2,180,0,180,5.680116200000157,['y'],8.169381799999883,1.154,2556.8479746000003,,,,,529,19,Woman,Right,
,,,,,,,,,,,,,,,,,529,19,Woman,Right,3,51,0.15,2,180,0,180,1.0416567000002033,['y'],1.5457320000000436,1.5979999999999999,2563.6152402,,,,,529,19,Woman,Right,
,,,,,,,,,,,,,,,,,529,19,Woman,Right,3,50,0.15,1,180,-,0,0.4166826000000583,['n'],1.4335285999995904,1.712,2568.1153593999998,,,,,529,19,Woman,Right,
,,,,,,,,,,,,,,,,,529,19,Woman,Right,3,24,0.4,1,0,-,0,0.6104245000001356,['n'],1.1550489000001107,1.768,2572.1645917000005,,,,,529,19,Woman,Right,
,,,,,,,,,,,,,,,,,529,19,Woman,Right,3,36,0.4,1,0,-,0,0.30025990000012825,['n'],0.9169762999999875,1.8519999999999999,2575.6818605999997,,,,,529,19,Woman,Right,
,,,,,,,,,,,,,,,,,529,19,Woman,Right,3,7,1,2,180,0,0,1.0802757999999812,['y'],0.8121665000003304,1.94,2580.1644508,,,,,529,19,Woman,Right,
,,,,,,,,,,,,,,,,,529,19,Woman,Right,3,59,0.15,2,180,0,0,0.4378375999999662,['n'],0.827706500000204,1.828,2583.8653186,,,,,529,19,Woman,Right,
,,,,,,,,,,,,,,,,,529,19,Woman,Right,3,60,0.15,1,0,-,0,0.7764637000000221,['y'],6.8699406999999155,1.846,2594.8150652000004,,,,,529,19,Woman,Right,
,,,,,,,,,,,,,,,,,529,19,Woman,Right,3,30,0.4,1,180,-,180,0.4783007999999427,['y'],1.1504934999998113,1.616,2601.9479954,,,,,529,19,Woman,Right,
,,,,,,,,,,,,,,,,,529,19,Woman,Right,3,70,0.15,1,180,-,0,0.3455228000002535,['y'],1.1990547999998853,1.784,2606.8649997,,,,,529,19,Woman,Right,
,,,,,,,,,,,,,,,,,529,19,Woman,Right,3,79,0.15,2,180,0,0,0.6366156999997656,['y'],1.1511658999997962,1.702,2611.3150016,,,,,529,19,Woman,Right,
,,,,,,,,,,,,,,,,,529,19,Woman,Right,3,45,0.15,2,0,180,0,0.0962944000002608,['n'],0.9125420000000304,1.822,2614.6474104999998,,,,,529,19,Woman,Right,
,,,,,,,,,,,,,,,,,529,19,Woman,Right,3,49,0.15,2,0,180,0,0.03638420000015685,['y'],1.1285331999997652,1.842,2618.6474829999997,,,,,529,19,Woman,Right,
,,,,,,,,,,,,,,,,,529,19,Woman,Right,3,18,0.4,1,180,-,180,0.30747870000004696,['n'],1.8253945999999814,1.202,2625.1474612,,,,,529,19,Woman,Right,
,,,,,,,,,,,,,,,,,529,19,Woman,Right,3,68,0.15,1,0,-,0,0.11722539999982473,['n'],1.1295147000000725,1.708,2628.9322140000004,,,,,529,19,Woman,Right,
,,,,,,,,,,,,,,,,,529,19,Woman,Right,3,35,0.4,2,180,0,0,0.5442591999999422,['y'],0.8670017999997981,1.712,2632.9140668,,,,,529,19,Woman,Right,
,,,,,,,,,,,,,,,,,529,19,Woman,Right,3,62,0.15,1,180,-,180,0.4536790000001929,['n'],0.8906638000003113,1.84,2636.5973314000003,,,,,529,19,Woman,Right,
,,,,,,,,,,,,,,,,,529,19,Woman,Right,3,37,0.4,2,0,180,180,0.5467899000000216,['y'],1.834932999999637,1.836,2641.6313474999997,,,,,529,19,Woman,Right,
,,,,,,,,,,,,,,,,,529,19,Woman,Right,3,67,0.15,2,180,0,180,0.5150158999999803,['n'],0.8752807999999277,1.5739999999999998,2645.7972325,,,,,529,19,Woman,Right,
,,,,,,,,,,,,,,,,,529,19,Woman,Right,3,78,0.15,1,180,-,180,1.450580500000342,['n'],1.4852318999996896,1.81,2651.5146741999997,,,,,529,19,Woman,Right,
,,,,,,,,,,,,,,,,,529,19,Woman,Right,3,6,1,1,180,-,180,0.2970860000000357,['n'],2.212519600000178,1.8479999999999999,2657.9812313,,,,,529,19,Woman,Right,
,,,,,,,,,,,,,,,,,529,19,Woman,Right,3,16,0.4,1,0,-,0,0.2106072999999924,['n'],1.678817799999706,1.832,2662.4148367,,,,,529,19,Woman,Right,
,,,,,,,,,,,,,,,,,529,19,Woman,Right,3,73,0.15,2,0,180,180,0.32200669999974707,['y'],1.3901894000000539,1.5859999999999999,2668.7645751,,,,,529,19,Woman,Right,
,,,,,,,,,,,,,,,,,529,19,Woman,Right,3,69,0.15,2,0,180,180,0.5824774000002435,['n'],3.3431492999998227,1.768,2675.1304811,,,,,529,19,Woman,Right,
,,,,,,,,,,,,,,,,,529,19,Woman,Right,3,72,0.15,1,0,-,0,0.3911520000001474,['n'],2.2637267999998585,1.788,2680.4312538000004,,,,,529,19,Woman,Right,
,,,,,,,,,,,,,,,,,529,19,Woman,Right,3,65,0.15,2,0,180,0,0.31674480000037875,['n'],0.7445413000004919,1.8780000000000001,2683.9972931,,,,,529,19,Woman,Right,
,,,,,,,,,,,,,,,,,529,19,Woman,Right,3,66,0.15,1,180,-,0,0.8509083999997529,['n'],3.121858599999541,1.702,2690.6640609000005,,,,,529,19,Woman,Right,
,,,,,,,,,,,,,,,,,529,19,Woman,Right,3,43,0.4,2,180,0,0,0.5581274000005578,['y'],0.8737684999996418,1.828,2694.4973957,,,,,529,19,Woman,Right,
,,,,,,,,,,,,,,,,,529,19,Woman,Right,3,40,0.4,1,0,-,0,0.5187144000001354,['n'],0.8417942000005496,1.85,2699.5809166,,,,,529,19,Woman,Right,
,,,,,,,,,,,,,,,,,529,19,Woman,Right,3,27,0.4,2,180,0,0,0.34339970000019093,['y'],0.9542475000007471,1.624,2703.2809246000006,,,,,529,19,Woman,Right,
,,,,,,,,,,,,,,,,,529,19,Woman,Right,3,76,0.15,1,0,-,180,0.7320499000006748,['n'],3.563759399999981,1.754,2710.1473487000003,,,,,529,19,Woman,Right,
,,,,,,,,,,,,,,,,,529,19,Woman,Right,3,46,0.15,1,180,-,180,5.674487600000248,['n'],0.5643786999999065,1.6560000000000001,2719.0307574000008,,,,,529,19,Woman,Right,
,,,,,,,,,,,,,,,,,529,19,Woman,Right,3,55,0.15,2,180,0,180,0.3200393000006443,['n'],1.0213769000001776,1.786,2722.8469368000005,,,,,529,19,Woman,Right,
,,,,,,,,,,,,,,,,,529,19,Woman,Right,3,13,0.4,2,0,180,0,0.016714200000023993,['y'],7.104406299999937,1.674,2732.7640516,,,,,529,19,Woman,Right,
,,,,,,,,,,,,,,,,,529,19,Woman,Right,3,56,0.15,1,0,-,180,0.28742680000050314,['n'],0.75919150000027,1.794,2736.1979905000007,,,,,529,19,Woman,Right,
,,,,,,,,,,,,,,,,,529,19,Woman,Right,3,42,0.4,1,180,-,180,0.4166568000000552,['y'],1.158883799999785,1.608,2740.8471523000007,,,,,529,19,Woman,Right,
,,,,,,,,,,,,,,,,,529,19,Woman,Right,3,5,1,2,0,180,0,0.47980180000013206,['y'],4.727950000000419,1.274,2749.0131703000006,,,,,529,19,Woman,Right,
,,,,,,,,,,,,,,,,,529,19,Woman,Right,3,77,0.15,2,0,180,0,0.5632423000006384,['n'],0.9213240999997652,1.56,2755.4638732000003,,,,,529,19,Woman,Right,
,,,,,,,,,,,,,,,,,529,19,Woman,Right,3,28,0.4,1,0,-,0,0.43577670000013313,['n'],1.2895486000006713,1.784,2759.5970972000005,,,,,529,19,Woman,Right,
,,,,,,,,,,,,,,,,,529,19,Woman,Right,3,74,0.15,1,180,-,180,1.0540820000005624,['y'],2.8424690000001647,1.3900000000000001,2767.0139865,,,,,529,19,Woman,Right,
,,,,,,,,,,,,,,,,,529,19,Woman,Right,3,54,0.15,1,180,-,0,2.4136412999996537,['n'],1.4354829999992944,1.6400000000000001,2773.6470815000002,,,,,529,19,Woman,Right,
,,,,,,,,,,,,,,,,,529,19,Woman,Right,3,38,0.4,1,180,-,180,0.46114380000017263,['n'],1.4429281000002447,1.4140000000000001,2778.0469763,,,,,529,19,Woman,Right,
,,,,,,,,,,,,,,,,,529,19,Woman,Right,3,9,0.4,2,0,180,180,0.5954592999996748,['y'],1.0284655000004932,1.646,2782.4634082000002,,,,,529,19,Woman,Right,
,,,,,,,,,,,,,,,,,529,19,Woman,Right,3,64,0.15,1,0,-,180,0.7952067000005627,['y'],1.6451538000001165,1.748,2787.1961895000004,,,,,529,19,Woman,Right,
,,,,,,,,,,,,,,,,,529,19,Woman,Right,3,22,0.4,1,180,-,0,0.45126819999950385,['y'],1.174167099999977,1.78,2791.5461981000008,,,,,529,19,Woman,Right,
,,,,,,,,,,,,,,,,,529,19,Woman,Right,3,23,0.4,2,180,0,0,0.28884719999950903,['y'],0.9027644000007058,1.854,2794.9632426000007,,,,,529,19,Woman,Right,
,,,,,,,,,,,,,,,,,529,19,Woman,Right,3,47,0.15,2,180,0,0,0.48833730000023934,['n'],1.2544958000007682,1.62,2799.1797168000003,,,,,529,19,Woman,Right,
,,,,,,,,,,,,,,,,,529,19,Woman,Right,3,15,0.4,2,180,0,0,0.5469827000006262,['y'],0.9515246999999363,1.788,2803.4627593000005,,,,,529,19,Woman,Right,
,,,,,,,,,,,,,,,,,529,19,Woman,Right,3,4,1,1,0,-,0,0.532607499999358,['y'],0.9508920999996917,1.6680000000000001,2807.3468501000007,,,,,529,19,Woman,Right,
,,,,,,,,,,,,,,,,,529,19,Woman,Right,4,5,1,2,0,180,180,0.5485628999995242,['y'],1.4896785000000818,1.766,2827.3633924000005,63.75,65.0,70.0,,529,19,Woman,Right,
,,,,,,,,,,,,,,,,,529,19,Woman,Right,4,1,1,2,0,180,180,0.5349600999998074,['y'],0.75468120000005,1.8519999999999999,2831.0791812000007,,,,,529,19,Woman,Right,
,,,,,,,,,,,,,,,,,529,19,Woman,Right,4,66,0.15,1,180,-,180,0.6475172999998904,['y'],1.0666847000002235,1.748,2837.2634197000007,,,,,529,19,Woman,Right,
,,,,,,,,,,,,,,,,,529,19,Woman,Right,4,43,0.4,2,180,0,0,1.6394946999998865,['y'],0.8281142000005275,1.862,2842.5292,,,,,529,19,Woman,Right,
,,,,,,,,,,,,,,,,,529,19,Woman,Right,4,77,0.15,2,0,180,180,0.6480086999999912,['n'],1.0289305000005697,1.6280000000000001,2846.7124864000007,,,,,529,19,Woman,Right,
,,,,,,,,,,,,,,,,,529,19,Woman,Right,4,25,0.4,2,0,180,180,0.5843715000000884,['n'],1.0290550999998231,1.634,2850.8123968,,,,,529,19,Woman,Right,
,,,,,,,,,,,,,,,,,529,19,Woman,Right,4,18,0.4,1,180,-,180,0.20490929999959917,['n'],2.0616162000005716,1.68,2856.7793833000005,,,,,529,19,Woman,Right,
,,,,,,,,,,,,,,,,,529,19,Woman,Right,4,50,0.15,1,180,-,180,0.2807853000003888,['y'],1.2376905999999508,1.734,2860.6130069,,,,,529,19,Woman,Right,
,,,,,,,,,,,,,,,,,529,19,Woman,Right,4,4,1,1,0,-,0,0.27093450000029407,['y'],1.1981697000001077,1.776,2865.2789032,,,,,529,19,Woman,Right,
,,,,,,,,,,,,,,,,,529,19,Woman,Right,4,32,0.4,1,0,-,180,0.3461898999994446,['y'],1.7430457999998907,1.8559999999999999,2872.2622778000004,,,,,529,19,Woman,Right,
,,,,,,,,,,,,,,,,,529,19,Woman,Right,4,62,0.15,1,180,-,180,0.15251509999961854,['y'],1.0400908999999956,1.6480000000000001,2875.9789074,,,,,529,19,Woman,Right,
,,,,,,,,,,,,,,,,,529,19,Woman,Right,4,64,0.15,1,0,-,180,0.17667859999983193,['y'],1.0800693000001047,1.712,2881.2628824000003,,,,,529,19,Woman,Right,
,,,,,,,,,,,,,,,,,529,19,Woman,Right,4,39,0.4,2,180,0,180,0.6450879000003624,['y'],1.185133300000416,1.116,2889.3796259,,,,,529,19,Woman,Right,
,,,,,,,,,,,,,,,,,529,19,Woman,Right,4,58,0.15,1,180,-,180,0.309849999999642,['n'],0.9297034000001076,1.1179999999999999,2893.2457097000006,,,,,529,19,Woman,Right,
,,,,,,,,,,,,,,,,,529,19,Woman,Right,4,12,0.4,1,0,-,0,0.43747070000063104,['n'],0.9467403999997259,1.672,2897.2453644000007,,,,,529,19,Woman,Right,
,,,,,,,,,,,,,,,,,529,19,Woman,Right,4,57,0.15,2,0,180,180,2.0463101000004826,['n'],1.0910412000002907,1.726,2903.2786406000005,,,,,529,19,Woman,Right,
,,,,,,,,,,,,,,,,,529,19,Woman,Right,4,31,0.4,2,180,0,0,0.5780359000000317,['y'],1.8842102999997223,1.68,2908.445952,,,,,529,19,Woman,Right,
,,,,,,,,,,,,,,,,,529,19,Woman,Right,4,16,0.4,1,0,-,0,1.3103956000004473,['n'],2.3570754000002125,1.83,2914.6126353,,,,,529,19,Woman,Right,
,,,,,,,,,,,,,,,,,529,19,Woman,Right,4,27,0.4,2,180,0,0,0.6834304000003613,['y'],0.816791799999919,1.8679999999999999,2918.495285,,,,,529,19,Woman,Right,
,,,,,,,,,,,,,,,,,529,19,Woman,Right,4,48,0.15,1,0,-,180,0.9719872000005125,['y'],0.7738024999998743,1.888,2922.5458824000007,,,,,529,19,Woman,Right,
,,,,,,,,,,,,,,,,,529,19,Woman,Right,4,51,0.15,2,180,0,0,0.4074583999999959,['y'],0.9983916999999565,1.934,2926.4956934,,,,,529,19,Woman,Right,
,,,,,,,,,,,,,,,,,529,19,Woman,Right,4,29,0.4,2,0,180,0,1.107919299999594,['y'],2.7353511000001163,1.9,2932.6124834,,,,,529,19,Woman,Right,
,,,,,,,,,,,,,,,,,529,19,Woman,Right,4,67,0.15,2,180,0,0,1.9838222999997015,['n'],0.7556252000003951,1.798,2938.4624771,,,,,529,19,Woman,Right,
,,,,,,,,,,,,,,,,,529,19,Woman,Right,4,55,0.15,2,180,0,0,0.38021649999973306,['y'],0.9841853999996601,1.922,2942.2283198000005,,,,,529,19,Woman,Right,
,,,,,,,,,,,,,,,,,529,19,Woman,Right,4,10,0.4,1,180,-,0,0.5322371000002022,['n'],4.809360399999605,1.308,2950.9128488000006,,,,,529,19,Woman,Right,
,,,,,,,,,,,,,,,,,529,19,Woman,Right,4,71,0.15,2,180,0,180,0.6591614999997546,['n'],2.433531099999527,1.616,2956.52829,,,,,529,19,Woman,Right,
,,,,,,,,,,,,,,,,,529,19,Woman,Right,4,76,0.15,1,0,-,180,0.37208929999997054,['n'],1.3145208000005368,1.682,2960.89591,,,,,529,19,Woman,Right,
,,,,,,,,,,,,,,,,,529,19,Woman,Right,4,61,0.15,2,0,180,180,0.5723744000006263,['n'],1.1062226999993072,1.744,2964.8622643,,,,,529,19,Woman,Right,
,,,,,,,,,,,,,,,,,529,19,Woman,Right,4,3,1,2,180,0,0,0.48022880000007717,['y'],6.419804600000134,1.754,2975.4280366000003,,,,,529,19,Woman,Right,
,,,,,,,,,,,,,,,,,529,19,Woman,Right,4,73,0.15,2,0,180,0,0.9914338000007774,['y'],1.0117983999998614,1.806,2979.994944,,,,,529,19,Woman,Right,
,,,,,,,,,,,,,,,,,529,19,Woman,Right,4,65,0.15,2,0,180,0,3.7748861000000034,['y'],1.501509800000349,1.788,2987.9946872,,,,,529,19,Woman,Right,
,,,,,,,,,,,,,,,,,529,19,Woman,Right,4,79,0.15,2,180,0,180,0.4898235000000568,['n'],1.2618138999996518,1.84,2992.1120661000004,,,,,529,19,Woman,Right,
,,,,,,,,,,,,,,,,,529,19,Woman,Right,4,75,0.15,2,180,0,0,0.2835740000000442,['n'],0.7662896000001638,1.892,2995.4280471,,,,,529,19,Woman,Right,
,,,,,,,,,,,,,,,,,529,19,Woman,Right,4,72,0.15,1,0,-,180,0.5821023999997124,['n'],1.262551099999655,1.5899999999999999,2999.7783577,,,,,529,19,Woman,Right,
,,,,,,,,,,,,,,,,,529,19,Woman,Right,4,2,1,1,180,-,180,0.7289657000001171,['n'],3.814906599999631,1.914,3007.8282314000007,,,,,529,19,Woman,Right,
,,,,,,,,,,,,,,,,,529,19,Woman,Right,4,8,0.4,1,0,-,0,0.4156754000005094,['n'],0.9357027000005473,1.9060000000000001,3011.4278551000007,,,,,529,19,Woman,Right,
,,,,,,,,,,,,,,,,,529,19,Woman,Right,4,52,0.15,1,0,-,180,1.150946699999622,['n'],3.257531999999628,1.712,3018.9777454000005,,,,,529,19,Woman,Right,
,,,,,,,,,,,,,,,,,529,19,Woman,Right,4,78,0.15,1,180,-,0,0.775774900000215,['y'],1.4017554000001837,1.92,3023.8111485,,,,,529,19,Woman,Right,
,,,,,,,,,,,,,,,,,529,19,Woman,Right,4,44,0.15,1,0,-,0,0.5977958999992552,['y'],1.87462239999968,1.726,3028.8117951000004,,,,,529,19,Woman,Right,
,,,,,,,,,,,,,,,,,529,19,Woman,Right,4,74,0.15,1,180,-,180,0.39100169999983336,['y'],1.8997231000003012,1.792,3034.2450796000003,,,,,529,19,Woman,Right,
,,,,,,,,,,,,,,,,,529,19,Woman,Right,4,70,0.15,1,180,-,0,0.38039819999994506,['y'],1.0920177999996667,1.914,3038.3450188000006,,,,,529,19,Woman,Right,
,,,,,,,,,,,,,,,,,529,19,Woman,Right,4,63,0.15,2,180,0,0,0.7123660999995991,['n'],0.7959365000006073,1.53,3043.6275892000003,,,,,529,19,Woman,Right,
,,,,,,,,,,,,,,,,,529,19,Woman,Right,4,0,1,1,0,-,0,0.39049639999939245,['n'],2.4847992000004524,1.81,3050.5775503000004,,,,,529,19,Woman,Right,
,,,,,,,,,,,,,,,,,529,19,Woman,Right,4,40,0.4,1,0,-,0,8.232544899999994,['y'],0.2616545999999289,1.78,3061.6107358,,,,,529,19,Woman,Right,
,,,,,,,,,,,,,,,,,529,19,Woman,Right,4,17,0.4,2,0,180,180,0.8435269999999946,['y'],2.150335699999232,1.8639999999999999,3067.4117126,,,,,529,19,Woman,Right,
,,,,,,,,,,,,,,,,,529,19,Woman,Right,4,41,0.4,2,0,180,180,0.24266830000033224,['y'],0.7915487000000212,1.904,3071.6947249000004,,,,,529,19,Woman,Right,
,,,,,,,,,,,,,,,,,529,19,Woman,Right,4,11,0.4,2,180,0,0,0.38935829999991256,['y'],1.4881132000000434,1.922,3075.9114824000008,,,,,529,19,Woman,Right,
,,,,,,,,,,,,,,,,,529,19,Woman,Right,4,24,0.4,1,0,-,180,0.5796011000002181,['n'],1.144617100000687,1.756,3080.2273441000007,,,,,529,19,Woman,Right,
,,,,,,,,,,,,,,,,,529,19,Woman,Right,4,28,0.4,1,0,-,0,0.2982375999999931,['n'],0.953144400000383,1.8479999999999999,3083.711319,,,,,529,19,Woman,Right,
,,,,,,,,,,,,,,,,,529,19,Woman,Right,4,30,0.4,1,180,-,180,0.35527490000004036,['n'],0.7052324999995108,1.702,3087.161325,,,,,529,19,Woman,Right,
,,,,,,,,,,,,,,,,,529,19,Woman,Right,4,15,0.4,2,180,0,0,1.2425538999996206,['y'],1.1383830999993734,1.776,3092.1444493,,,,,529,19,Woman,Right,
,,,,,,,,,,,,,,,,,529,19,Woman,Right,4,19,0.4,2,180,0,0,0.26771050000024843,['y'],0.6346052000008058,1.8860000000000001,3095.7112599,,,,,529,19,Woman,Right,
,,,,,,,,,,,,,,,,,529,19,Woman,Right,4,42,0.4,1,180,-,0,0.46975170000041544,['y'],1.1149098000005324,1.79,3099.9939094,,,,,529,19,Woman,Right,
,,,,,,,,,,,,,,,,,529,19,Woman,Right,4,53,0.15,2,0,180,180,1.367289300000266,['y'],0.7939469000002646,1.8780000000000001,3104.6438626,,,,,529,19,Woman,Right,
,,,,,,,,,,,,,,,,,529,19,Woman,Right,4,6,1,1,180,-,180,0.7991990999998961,['n'],0.7160820999997668,1.666,3108.5938303000003,,,,,529,19,Woman,Right,
,,,,,,,,,,,,,,,,,529,19,Woman,Right,4,9,0.4,2,0,180,0,0.36360469999999623,['y'],2.8125130999997054,1.296,3114.8444644,,,,,529,19,Woman,Right,
,,,,,,,,,,,,,,,,,529,19,Woman,Right,4,49,0.15,2,0,180,180,0.5001561999997648,['n'],0.7849303000002692,1.672,3118.7603622000006,,,,,529,19,Woman,Right,
,,,,,,,,,,,,,,,,,529,19,Woman,Right,4,37,0.4,2,0,180,0,0.821216800000002,['y'],1.1026109000003999,1.816,3123.427345,,,,,529,19,Woman,Right,
,,,,,,,,,,,,,,,,,529,19,Woman,Right,4,34,0.4,1,180,-,180,1.236200700000154,['n'],1.5107491999997364,1.8639999999999999,3128.6621419000003,,,,,529,19,Woman,Right,
,,,,,,,,,,,,,,,,,529,19,Woman,Right,4,56,0.15,1,0,-,0,0.9283015000000887,['n'],0.7914817000000767,1.6320000000000001,3133.1771855000006,,,,,529,19,Woman,Right,
,,,,,,,,,,,,,,,,,529,19,Woman,Right,4,13,0.4,2,0,180,180,0.36318329999994603,['y'],1.0548857000003409,1.9020000000000001,3137.1609922000007,,,,,529,19,Woman,Right,
,,,,,,,,,,,,,,,,,529,19,Woman,Right,4,23,0.4,2,180,0,0,0.22028419999969628,['y'],0.783991799999967,1.728,3140.5272027,,,,,529,19,Woman,Right,
,,,,,,,,,,,,,,,,,529,19,Woman,Right,4,20,0.4,1,0,-,0,0.6630248999999822,['n'],1.8010425000002215,1.726,3145.6268356,,,,,529,19,Woman,Right,
,,,,,,,,,,,,,,,,,529,19,Woman,Right,4,21,0.4,2,0,180,180,0.32872820000011416,['y'],0.8651650000001609,1.82,3148.977342,,,,,529,19,Woman,Right,
,,,,,,,,,,,,,,,,,529,19,Woman,Right,4,36,0.4,1,0,-,180,2.487952999999834,['y'],0.4574783000007301,1.8940000000000001,3154.3941529000003,,,,,529,19,Woman,Right,
,,,,,,,,,,,,,,,,,529,19,Woman,Right,4,60,0.15,1,0,-,180,1.0077277000000322,['n'],0.8579943000004278,1.762,3158.9107857,,,,,529,19,Woman,Right,
,,,,,,,,,,,,,,,,,529,19,Woman,Right,4,46,0.15,1,180,-,180,1.8673181000003751,['n'],1.0029965000003358,1.792,3164.3600366,,,,,529,19,Woman,Right,
,,,,,,,,,,,,,,,,,529,19,Woman,Right,4,35,0.4,2,180,0,0,0.385545799999818,['y'],1.2995960999996896,1.822,3168.5274966000006,,,,,529,19,Woman,Right,
,,,,,,,,,,,,,,,,,529,19,Woman,Right,4,47,0.15,2,180,0,180,5.418104200000016,['n'],1.836063899999317,1.8439999999999999,3178.2099908,,,,,529,19,Woman,Right,
,,,,,,,,,,,,,,,,,529,19,Woman,Right,4,59,0.15,2,180,0,0,7.730292400000508,['y'],0.7572686999992584,1.694,3189.3765346,,,,,529,19,Woman,Right,
,,,,,,,,,,,,,,,,,529,19,Woman,Right,4,7,1,2,180,0,0,0.38475090000065393,['y'],0.710356600000523,1.6179999999999999,3192.9114803,,,,,529,19,Woman,Right,
,,,,,,,,,,,,,,,,,529,19,Woman,Right,4,14,0.4,1,180,-,180,0.3317384000001766,['y'],0.6942696999994951,1.764,3196.2600470000007,,,,,529,19,Woman,Right,
,,,,,,,,,,,,,,,,,529,19,Woman,Right,4,54,0.15,1,180,-,180,0.3204580999999962,['n'],0.9352504999997109,1.814,3200.07711,,,,,529,19,Woman,Right,
,,,,,,,,,,,,,,,,,529,19,Woman,Right,4,68,0.15,1,0,-,180,0.8860958000004757,['y'],0.9830351000000519,1.8639999999999999,3204.2597546000006,,,,,529,19,Woman,Right,
,,,,,,,,,,,,,,,,,529,19,Woman,Right,4,26,0.4,1,180,-,180,0.2545860999998695,['y'],0.6237795999995797,1.88,3207.7105167,,,,,529,19,Woman,Right,
,,,,,,,,,,,,,,,,,529,19,Woman,Right,4,69,0.15,2,0,180,180,1.4744777000005342,['n'],0.6802061999997022,1.654,3212.4605183000003,,,,,529,19,Woman,Right,
,,,,,,,,,,,,,,,,,529,19,Woman,Right,4,33,0.4,2,0,180,180,0.7507531999999628,['y'],0.8576154000002134,1.816,3216.9764074000004,,,,,529,19,Woman,Right,
,,,,,,,,,,,,,,,,,529,19,Woman,Right,4,22,0.4,1,180,-,180,5.271671000000424,['y'],1.01819820000037,1.812,3225.9930706000005,,,,,529,19,Woman,Right,
,,,,,,,,,,,,,,,,,529,19,Woman,Right,4,45,0.15,2,0,180,180,0.5229717000001983,['n'],0.9063160000005155,1.7,3230.1613821,,,,,529,19,Woman,Right,
,,,,,,,,,,,,,,,,,529,19,Woman,Right,4,38,0.4,1,180,-,180,2.687278399999741,['n'],1.1795927000002848,1.874,3236.5261249000005,,,,,529,19,Woman,Right,
,,,,,,,,,,,,,,,,,529,19,Woman,Right,5,16,0.4,1,0,-,0,0.503924200000256,['n'],0.925426000000698,1.888,3245.2612754,71.25,55.0,67.5,,529,19,Woman,Right,
,,,,,,,,,,,,,,,,,529,19,Woman,Right,5,68,0.15,1,0,-,0,0.5122149000007994,['y'],1.5167536999997537,1.77,3249.9260508000007,,,,,529,19,Woman,Right,
,,,,,,,,,,,,,,,,,529,19,Woman,Right,5,66,0.15,1,180,-,0,0.2095954000005804,['y'],1.7024741000004724,1.214,3257.9930517000003,,,,,529,19,Woman,Right,
,,,,,,,,,,,,,,,,,529,19,Woman,Right,5,23,0.4,2,180,0,0,0.3795270000000528,['n'],0.8310844999996334,1.742,3263.7604945000003,,,,,529,19,Woman,Right,
,,,,,,,,,,,,,,,,,529,19,Woman,Right,5,3,1,2,180,0,0,0.45930589999989024,['y'],2.6077314000003753,1.806,3269.4759282000005,,,,,529,19,Woman,Right,
,,,,,,,,,,,,,,,,,529,19,Woman,Right,5,72,0.15,1,0,-,0,0.3673461000007592,['n'],0.7353880999999092,1.684,3273.1093047000004,,,,,529,19,Woman,Right,
,,,,,,,,,,,,,,,,,529,19,Woman,Right,5,52,0.15,1,0,-,0,0.32413650000034977,['y'],1.5608971000001475,1.908,3277.8424932000007,,,,,529,19,Woman,Right,
,,,,,,,,,,,,,,,,,529,19,Woman,Right,5,40,0.4,1,0,-,0,0.2076768999995693,['y'],3.048990799999956,1.682,3283.7102867000003,,,,,529,19,Woman,Right,
,,,,,,,,,,,,,,,,,529,19,Woman,Right,5,46,0.15,1,180,-,0,1.1744454999998197,['n'],0.7134680999997727,1.834,3287.9932411,,,,,529,19,Woman,Right,
,,,,,,,,,,,,,,,,,529,19,Woman,Right,5,63,0.15,2,180,0,180,4.125410399999964,['y'],0.9793384000004153,1.6179999999999999,3295.6931444,,,,,529,19,Woman,Right,
,,,,,,,,,,,,,,,,,529,19,Woman,Right,5,48,0.15,1,0,-,180,0.6167475000002014,['n'],1.2095982000000731,1.818,3300.0600238000006,,,,,529,19,Woman,Right,
,,,,,,,,,,,,,,,,,529,19,Woman,Right,5,42,0.4,1,180,-,180,1.4175504000004366,['n'],0.5319301999998061,1.87,3304.3431002000007,,,,,529,19,Woman,Right,
,,,,,,,,,,,,,,,,,529,19,Woman,Right,5,49,0.15,2,0,180,180,3.99000260000048,['n'],1.1729799000004277,1.68,3313.1772147,,,,,529,19,Woman,Right,
,,,,,,,,,,,,,,,,,529,19,Woman,Right,5,10,0.4,1,180,-,180,0.2987804000003962,['y'],3.742428600000494,1.774,3319.6429104,,,,,529,19,Woman,Right,
,,,,,,,,,,,,,,,,,529,19,Woman,Right,5,20,0.4,1,0,-,0,0.6844805999999153,['n'],0.5738477999993847,1.8679999999999999,3324.4596140000003,,,,,529,19,Woman,Right,
,,,,,,,,,,,,,,,,,529,19,Woman,Right,5,79,0.15,2,180,0,180,0.7386901999998372,['n'],0.7358823999993547,1.712,3328.5587478000007,,,,,529,19,Woman,Right,
,,,,,,,,,,,,,,,,,529,19,Woman,Right,5,22,0.4,1,180,-,180,0.1337546000004295,['n'],0.8866355000000112,1.794,3331.7761931000005,,,,,529,19,Woman,Right,
,,,,,,,,,,,,,,,,,529,19,Woman,Right,5,44,0.15,1,0,-,0,0.14805669999987003,['n'],1.0161047000001417,1.682,3335.3421868000005,,,,,529,19,Woman,Right,
,,,,,,,,,,,,,,,,,529,19,Woman,Right,5,7,1,2,180,0,0,2.4238011000006736,['y'],0.37576780000017607,1.9,3341.2920990000002,,,,,529,19,Woman,Right,
,,,,,,,,,,,,,,,,,529,19,Woman,Right,5,54,0.15,1,180,-,180,0.354139999999461,['n'],4.409192500000245,1.6600000000000001,3348.8752779000006,,,,,529,19,Woman,Right,
,,,,,,,,,,,,,,,,,529,19,Woman,Right,5,60,0.15,1,0,-,0,0.2704886000001352,['y'],0.7057311999997182,1.8439999999999999,3352.4419240000007,,,,,529,19,Woman,Right,
,,,,,,,,,,,,,,,,,529,19,Woman,Right,5,13,0.4,2,0,180,0,0.4259930999996868,['y'],2.2981393000000025,1.678,3357.8925953000007,,,,,529,19,Woman,Right,
,,,,,,,,,,,,,,,,,529,19,Woman,Right,5,37,0.4,2,0,180,0,0.32497590000002674,['y'],3.963266499999918,1.78,3365.3759847,,,,,529,19,Woman,Right,
,,,,,,,,,,,,,,,,,529,19,Woman,Right,5,71,0.15,2,180,0,0,0.2280652999997983,['n'],0.8192311999991944,1.69,3368.7258663000002,,,,,529,19,Woman,Right,
,,,,,,,,,,,,,,,,,529,19,Woman,Right,5,69,0.15,2,0,180,0,0.5179755999997724,['n'],1.2041408000004594,1.8479999999999999,3372.9084803000005,,,,,529,19,Woman,Right,
,,,,,,,,,,,,,,,,,529,19,Woman,Right,5,75,0.15,2,180,0,0,0.6871318999992582,['n'],1.2052432000000408,1.876,3377.3425078,,,,,529,19,Woman,Right,
,,,,,,,,,,,,,,,,,529,19,Woman,Right,5,24,0.4,1,0,-,180,0.9569025999999212,['y'],1.5739269999994576,1.624,3382.3258353,,,,,529,19,Woman,Right,
,,,,,,,,,,,,,,,,,529,19,Woman,Right,5,28,0.4,1,0,-,180,1.372093899999527,['y'],0.5251836000006733,1.718,3386.7423575000003,,,,,529,19,Woman,Right,
,,,,,,,,,,,,,,,,,529,19,Woman,Right,5,61,0.15,2,0,180,180,0.6378426000001127,['n'],0.9267333999996481,1.756,3390.6083693,,,,,529,19,Woman,Right,
,,,,,,,,,,,,,,,,,529,19,Woman,Right,5,53,0.15,2,0,180,0,0.1958055000004606,['y'],1.4462328999998135,1.85,3394.8256427000006,,,,,529,19,Woman,Right,
,,,,,,,,,,,,,,,,,529,19,Woman,Right,5,1,1,2,0,180,180,0.42468730000018695,['y'],0.8476959999998144,1.91,3399.1082268,,,,,529,19,Woman,Right,
,,,,,,,,,,,,,,,,,529,19,Woman,Right,5,59,0.15,2,180,0,0,0.016712999999981548,['y'],1.8540229000000181,1.85,3403.8582684000003,,,,,529,19,Woman,Right,
,,,,,,,,,,,,,,,,,529,19,Woman,Right,5,25,0.4,2,0,180,180,0.4721967000004952,['y'],1.3445779999992737,1.946,3408.4923006,,,,,529,19,Woman,Right,
,,,,,,,,,,,,,,,,,529,19,Woman,Right,5,55,0.15,2,180,0,180,0.4739899999995032,['n'],0.7924402999997255,1.782,3412.1581853000007,,,,,529,19,Woman,Right,
,,,,,,,,,,,,,,,,,529,19,Woman,Right,5,58,0.15,1,180,-,180,0.3024034000000029,['y'],0.9695139999994353,1.416,3419.6582911000005,,,,,529,19,Woman,Right,
,,,,,,,,,,,,,,,,,529,19,Woman,Right,5,77,0.15,2,0,180,180,0.6734532999998919,['y'],0.7696005000007062,1.85,3423.708098,,,,,529,19,Woman,Right,
,,,,,,,,,,,,,,,,,529,19,Woman,Right,5,19,0.4,2,180,0,0,0.3604457999999795,['y'],0.9147239999992962,1.9,3427.4423687000008,,,,,529,19,Woman,Right,
,,,,,,,,,,,,,,,,,529,19,Woman,Right,5,29,0.4,2,0,180,180,0.4661982000006901,['y'],0.5226537999997163,1.96,3430.9079956000005,,,,,529,19,Woman,Right,
,,,,,,,,,,,,,,,,,529,19,Woman,Right,5,39,0.4,2,180,0,0,0.40601799999967625,['y'],0.6111881999995603,1.98,3434.4416876000005,,,,,529,19,Woman,Right,
,,,,,,,,,,,,,,,,,529,19,Woman,Right,5,18,0.4,1,180,-,180,0.3613855000003241,['n'],0.4678575000007186,1.738,3437.7258749000002,,,,,529,19,Woman,Right,
,,,,,,,,,,,,,,,,,529,19,Woman,Right,5,4,1,1,0,-,0,0.6316020000003846,['n'],0.8925269999999728,1.884,3442.0412522000006,,,,,529,19,Woman,Right,
,,,,,,,,,,,,,,,,,529,19,Woman,Right,5,21,0.4,2,0,180,180,0.6342493999991348,['y'],1.0449337999998534,1.924,3446.8752926000006,,,,,529,19,Woman,Right,
,,,,,,,,,,,,,,,,,529,19,Woman,Right,5,70,0.15,1,180,-,180,0.32063669999934064,['y'],0.6612795999999435,1.71,3450.3079224000003,,,,,529,19,Woman,Right,
,,,,,,,,,,,,,,,,,529,19,Woman,Right,5,64,0.15,1,0,-,180,0.36623430000054213,['y'],0.8620009999995091,1.818,3453.9913978000004,,,,,529,19,Woman,Right,
,,,,,,,,,,,,,,,,,529,19,Woman,Right,5,14,0.4,1,180,-,180,2.42088110000077,['y'],1.2707212999994226,1.8,3460.8250835,,,,,529,19,Woman,Right,
,,,,,,,,,,,,,,,,,529,19,Woman,Right,5,31,0.4,2,180,0,0,2.374195499999587,['y'],1.1754891000000498,1.8559999999999999,3467.8418187000007,,,,,529,19,Woman,Right,
,,,,,,,,,,,,,,,,,529,19,Woman,Right,5,62,0.15,1,180,-,180,0.7684391000002506,['n'],0.4396331999996619,1.616,3471.9576868000004,,,,,529,19,Woman,Right,
,,,,,,,,,,,,,,,,,529,19,Woman,Right,5,2,1,1,180,-,180,0.25970909999978176,['n'],0.6962585999999646,1.82,3475.5751012,,,,,529,19,Woman,Right,
,,,,,,,,,,,,,,,,,529,19,Woman,Right,5,6,1,1,180,-,180,0.3717111999994813,['y'],3.768899099999544,1.916,3482.2076421,,,,,529,19,Woman,Right,
,,,,,,,,,,,,,,,,,529,19,Woman,Right,5,56,0.15,1,0,-,0,0.25205189999996946,['n'],0.569907900000544,1.69,3485.4412437,,,,,529,19,Woman,Right,
,,,,,,,,,,,,,,,,,529,19,Woman,Right,5,27,0.4,2,180,0,0,0.41995570000017324,['y'],1.4428857000002608,1.8719999999999999,3490.0750533,,,,,529,19,Woman,Right,
,,,,,,,,,,,,,,,,,529,19,Woman,Right,5,11,0.4,2,180,0,0,0.3363887000004979,['y'],0.5146915999994235,1.918,3493.1915552,,,,,529,19,Woman,Right,
,,,,,,,,,,,,,,,,,529,19,Woman,Right,5,15,0.4,2,180,0,0,0.30211340000005293,['y'],0.5632576999996672,1.984,3496.6908776,,,,,529,19,Woman,Right,
,,,,,,,,,,,,,,,,,529,19,Woman,Right,5,76,0.15,1,0,-,0,0.33807619999970484,['y'],0.7309158000007301,1.904,3500.0574621000005,,,,,529,19,Woman,Right,
,,,,,,,,,,,,,,,,,529,19,Woman,Right,5,43,0.4,2,180,0,0,0.09651970000049914,['y'],0.6767618000003495,1.82,3503.3747845000007,,,,,529,19,Woman,Right,
,,,,,,,,,,,,,,,,,529,19,Woman,Right,5,30,0.4,1,180,-,180,0.43751479999991716,['n'],0.40500750000046537,1.674,3506.674124,,,,,529,19,Woman,Right,
,,,,,,,,,,,,,,,,,529,19,Woman,Right,5,73,0.15,2,0,180,0,1.6823716999997487,['y'],0.34131710000019666,1.79,3510.9739636000004,,,,,529,19,Woman,Right,
,,,,,,,,,,,,,,,,,529,19,Woman,Right,5,50,0.15,1,180,-,180,0.32547000000067783,['y'],0.7495536999995238,1.876,3514.2572978000007,,,,,529,19,Woman,Right,
,,,,,,,,,,,,,,,,,529,19,Woman,Right,5,9,0.4,2,0,180,180,0.4139605999998821,['y'],0.39702459999989514,1.926,3517.508261,,,,,529,19,Woman,Right,
,,,,,,,,,,,,,,,,,529,19,Woman,Right,5,47,0.15,2,180,0,180,0.4542159000002357,['n'],1.1095883999996659,1.642,3522.2749325000004,,,,,529,19,Woman,Right,
,,,,,,,,,,,,,,,,,529,19,Woman,Right,5,78,0.15,1,180,-,180,0.4103417999995145,['y'],0.7188553999994838,1.876,3525.9412904,,,,,529,19,Woman,Right,
,,,,,,,,,,,,,,,,,529,19,Woman,Right,5,65,0.15,2,0,180,0,0.09563900000011927,['y'],0.47112190000007104,1.94,3528.7575177,,,,,529,19,Woman,Right,
,,,,,,,,,,,,,,,,,529,19,Woman,Right,5,33,0.4,2,0,180,180,0.3196762999996281,['y'],0.8788295000003927,1.682,3532.841158,,,,,529,19,Woman,Right,
,,,,,,,,,,,,,,,,,529,19,Woman,Right,5,45,0.15,2,0,180,0,0.4892823000000135,['n'],0.39971629999945435,1.926,3536.6905658000005,,,,,529,19,Woman,Right,
,,,,,,,,,,,,,,,,,529,19,Woman,Right,5,17,0.4,2,0,180,180,0.5945074999999633,['y'],1.408257400000366,1.8559999999999999,3542.1072105000003,,,,,529,19,Woman,Right,
,,,,,,,,,,,,,,,,,529,19,Woman,Right,5,38,0.4,1,180,-,0,0.8386153000001286,['y'],1.2097068000002764,1.932,3546.7571282,,,,,529,19,Woman,Right,
,,,,,,,,,,,,,,,,,529,19,Woman,Right,5,34,0.4,1,180,-,180,0.903247499999452,['n'],0.4093301999992036,1.658,3550.9737567,,,,,529,19,Woman,Right,
,,,,,,,,,,,,,,,,,529,19,Woman,Right,5,32,0.4,1,0,-,0,0.3576939000004131,['y'],0.8262741999997161,1.8679999999999999,3554.4245257000002,,,,,529,19,Woman,Right,
,,,,,,,,,,,,,,,,,529,19,Woman,Right,5,5,1,2,0,180,0,0.08641939999961323,['y'],1.9061848000001191,1.31,3559.1911768,,,,,529,19,Woman,Right,
,,,,,,,,,,,,,,,,,529,19,Woman,Right,5,8,0.4,1,0,-,0,0.3661502000004475,['y'],0.48310980000042036,1.842,3562.3744798000007,,,,,529,19,Woman,Right,
,,,,,,,,,,,,,,,,,529,19,Woman,Right,5,0,1,1,0,-,0,1.901867200000197,['n'],0.7963955000004717,1.942,3567.4072802,,,,,529,19,Woman,Right,
,,,,,,,,,,,,,,,,,529,19,Woman,Right,5,41,0.4,2,0,180,180,0.47651260000020557,['y'],1.227464799999325,1.884,3572.0575855000006,,,,,529,19,Woman,Right,
,,,,,,,,,,,,,,,,,529,19,Woman,Right,5,35,0.4,2,180,0,0,0.47446639999998297,['y'],0.7805029999999533,1.94,3576.7735861,,,,,529,19,Woman,Right,
,,,,,,,,,,,,,,,,,529,19,Woman,Right,5,74,0.15,1,180,-,180,1.0595457999997961,['n'],0.6135346000000936,1.708,3580.9409158000008,,,,,529,19,Woman,Right,
,,,,,,,,,,,,,,,,,529,19,Woman,Right,5,12,0.4,1,0,-,0,0.4503414000000703,['y'],0.37263439999969705,1.87,3584.0735343000006,,,,,529,19,Woman,Right,
,,,,,,,,,,,,,,,,,529,19,Woman,Right,5,36,0.4,1,0,-,0,0.33044210000025487,['y'],0.5820450000001074,1.91,3587.2235066000003,,,,,529,19,Woman,Right,
,,,,,,,,,,,,,,,,,529,19,Woman,Right,5,26,0.4,1,180,-,0,0.7298230000005788,['n'],1.2540316000004168,1.9060000000000001,3591.6568073000008,,,,,529,19,Woman,Right,
,,,,,,,,,,,,,,,,,529,19,Woman,Right,5,57,0.15,2,0,180,180,0.3725782999999865,['n'],0.8948871000002327,1.714,3595.4241084000005,,,,,529,19,Woman,Right,
,,,,,,,,,,,,,,,,,529,19,Woman,Right,5,67,0.15,2,180,0,0,0.3009987999994337,['n'],0.7682968999997684,1.834,3598.7234441,,,,,529,19,Woman,Right,
,,,,,,,,,,,,,,,,,529,19,Woman,Right,5,51,0.15,2,180,0,180,0.6166390000007596,['n'],1.00006250000024,1.8940000000000001,3602.7741133,,,,,529,19,Woman,Right,
,,,,,,,,,,,,,,,,,,,,,,,,,,,,,,,,,73.75,47.5,67.5,3252.1543265000005,,,,,
