p_block,p_section,p_coherence,p_direction1,p_direction2,p_direction_response,p_direction_RT,p_change_response,p_change_RT,p_confidence,p_full_correct,p_without5_correct,p_full_total,p_without5_total,p_full_avg,p_witout5_avg,p_total_time,sub,age,sex,handedness,loop,trial randomization,coherence,condition,direction1,direction2,direction_response,direction_RT,change_response,change_RT,change_confidence,change_confidence_RT,block_direction_avg,block_stable_avg,block_change_avg,total_time,sub,age,sex,handedness,
1,1,1.0,180,-,180,0.6529925999999477,-,-,-,,,,,,,,1003,21,Woman,Right,,,,,,,,,,,,,,,,,1003,21,Woman,Right,
1,1,1.0,180,-,180,0.05321529999991981,-,-,-,,,,,,,,1003,21,Woman,Right,,,,,,,,,,,,,,,,,1003,21,Woman,Right,
1,1,1.0,0,-,0,0.016922000000022308,-,-,-,,,,,,,,1003,21,Woman,Right,,,,,,,,,,,,,,,,,1003,21,Woman,Right,
1,1,1.0,180,-,180,1.231729400000063,-,-,-,,,,,,,,1003,21,Woman,Right,,,,,,,,,,,,,,,,,1003,21,Woman,Right,
1,1,1.0,0,-,0,0.288182699999993,-,-,-,,,,,,,,1003,21,Woman,Right,,,,,,,,,,,,,,,,,1003,21,Woman,Right,
1,1,1.0,180,-,180,0.1352290999999468,-,-,-,,,,,,,,1003,21,Woman,Right,,,,,,,,,,,,,,,,,1003,21,Woman,Right,
1,1,1.0,0,-,0,0.016990999999961787,-,-,-,,,,,,,,1003,21,Woman,Right,,,,,,,,,,,,,,,,,1003,21,Woman,Right,
1,1,1.0,180,-,180,0.01667489999999816,-,-,-,,,,,,,,1003,21,Woman,Right,,,,,,,,,,,,,,,,,1003,21,Woman,Right,
1,1,1.0,0,-,0,0.0165958000000046,-,-,-,,,,,,,,1003,21,Woman,Right,,,,,,,,,,,,,,,,,1003,21,Woman,Right,
1,1,1.0,0,-,0,0.016587000000072294,-,-,-,10,10,10,10,1.0,1.0,,1003,21,Woman,Right,,,,,,,,,,,,,,,,,1003,21,Woman,Right,
2,1,0.15,0,-,0,1.707716800000071,-,-,-,,,,,,,,1003,21,Woman,Right,,,,,,,,,,,,,,,,,1003,21,Woman,Right,
2,1,0.15,180,-,180,0.48896270000000186,-,-,-,,,,,,,,1003,21,Woman,Right,,,,,,,,,,,,,,,,,1003,21,Woman,Right,
2,1,0.15,0,-,0,0.23204999999995835,-,-,-,,,,,,,,1003,21,Woman,Right,,,,,,,,,,,,,,,,,1003,21,Woman,Right,
2,1,0.15,0,-,180,0.26464980000002924,-,-,-,,,,,,,,1003,21,Woman,Right,,,,,,,,,,,,,,,,,1003,21,Woman,Right,
2,1,0.4,180,-,180,0.01671780000003764,-,-,-,,,,,,,,1003,21,Woman,Right,,,,,,,,,,,,,,,,,1003,21,Woman,Right,
2,1,0.4,0,-,0,0.11267720000000736,-,-,-,,,,,,,,1003,21,Woman,Right,,,,,,,,,,,,,,,,,1003,21,Woman,Right,
2,1,0.15,180,-,180,0.21603640000000723,-,-,-,,,,,,,,1003,21,Woman,Right,,,,,,,,,,,,,,,,,1003,21,Woman,Right,
2,1,0.4,0,-,180,0.2979735000000119,-,-,-,,,,,,,,1003,21,Woman,Right,,,,,,,,,,,,,,,,,1003,21,Woman,Right,
2,1,0.15,0,-,180,0.20816439999998693,-,-,-,,,,,,,,1003,21,Woman,Right,,,,,,,,,,,,,,,,,1003,21,Woman,Right,
2,1,0.15,180,-,0,0.29096800000002077,-,-,-,,,,,,,,1003,21,Woman,Right,,,,,,,,,,,,,,,,,1003,21,Woman,Right,
2,1,0.4,180,-,180,0.3453140000000303,-,-,-,,,,,,,,1003,21,Woman,Right,,,,,,,,,,,,,,,,,1003,21,Woman,Right,
2,1,0.4,180,-,180,0.17425989999992453,-,-,-,,,,,,,,1003,21,Woman,Right,,,,,,,,,,,,,,,,,1003,21,Woman,Right,
2,1,0.4,0,-,0,0.017017800000076022,-,-,-,,,,,,,,1003,21,Woman,Right,,,,,,,,,,,,,,,,,1003,21,Woman,Right,
2,1,0.4,180,-,180,0.07663500000001022,-,-,-,,,,,,,,1003,21,Woman,Right,,,,,,,,,,,,,,,,,1003,21,Woman,Right,
2,1,0.4,0,-,180,0.13912749999997231,-,-,-,,,,,,,,1003,21,Woman,Right,,,,,,,,,,,,,,,,,1003,21,Woman,Right,
2,1,0.4,180,-,0,0.13635599999997794,-,-,-,,,,,,,,1003,21,Woman,Right,,,,,,,,,,,,,,,,,1003,21,Woman,Right,
2,1,0.4,0,-,180,0.29349649999994654,-,-,-,,,,,,,,1003,21,Woman,Right,,,,,,,,,,,,,,,,,1003,21,Woman,Right,
2,1,0.15,0,-,0,0.19922849999989012,-,-,-,,,,,,,,1003,21,Woman,Right,,,,,,,,,,,,,,,,,1003,21,Woman,Right,
2,1,0.4,0,-,180,0.27841940000007526,-,-,-,,,,,,,,1003,21,Woman,Right,,,,,,,,,,,,,,,,,1003,21,Woman,Right,
2,1,0.4,180,-,0,0.07815479999999297,-,-,-,,,,,,,,1003,21,Woman,Right,,,,,,,,,,,,,,,,,1003,21,Woman,Right,
2,1,0.15,0,-,180,0.3653280999999424,-,-,-,,,,,,,,1003,21,Woman,Right,,,,,,,,,,,,,,,,,1003,21,Woman,Right,
2,1,0.4,180,-,180,0.1453824000000168,-,-,-,,,,,,,,1003,21,Woman,Right,,,,,,,,,,,,,,,,,1003,21,Woman,Right,
2,1,0.15,180,-,0,0.23017770000001292,-,-,-,,,,,,,,1003,21,Woman,Right,,,,,,,,,,,,,,,,,1003,21,Woman,Right,
2,1,0.15,0,-,0,0.21458640000003015,-,-,-,,,,,,,,1003,21,Woman,Right,,,,,,,,,,,,,,,,,1003,21,Woman,Right,
2,1,0.4,0,-,0,0.28162669999994705,-,-,-,,,,,,,,1003,21,Woman,Right,,,,,,,,,,,,,,,,,1003,21,Woman,Right,
2,1,0.15,0,-,180,0.25638739999999416,-,-,-,,,,,,,,1003,21,Woman,Right,,,,,,,,,,,,,,,,,1003,21,Woman,Right,
2,1,0.4,0,-,0,0.1200967000000901,-,-,-,,,,,,,,1003,21,Woman,Right,,,,,,,,,,,,,,,,,1003,21,Woman,Right,
2,1,0.4,180,-,180,0.27904319999993277,-,-,-,,,,,,,,1003,21,Woman,Right,,,,,,,,,,,,,,,,,1003,21,Woman,Right,
2,1,0.15,0,-,0,0.12535499999989952,-,-,-,,,,,,,,1003,21,Woman,Right,,,,,,,,,,,,,,,,,1003,21,Woman,Right,
2,1,0.4,0,-,0,0.23508920000006128,-,-,-,7,5,10,5,0.7,1.0,,1003,21,Woman,Right,,,,,,,,,,,,,,,,,1003,21,Woman,Right,
3,2,1.0,0,180,180,2.9646291999999903,['y'],1.952414699999963,2,,,,,,,,1003,21,Woman,Right,,,,,,,,,,,,,,,,,1003,21,Woman,Right,
3,2,1.0,0,180,180,1.3719760999999835,['y'],0.7592783000000054,1.992,,,,,,,,1003,21,Woman,Right,,,,,,,,,,,,,,,,,1003,21,Woman,Right,
3,2,1.0,180,0,0,0.94392670000002,['y'],0.7247710999999981,2.0,,,,,,,,1003,21,Woman,Right,,,,,,,,,,,,,,,,,1003,21,Woman,Right,
3,2,1.0,0,180,180,0.4533135000000357,['y'],0.3591912000000548,1.99,,,,,,,,1003,21,Woman,Right,,,,,,,,,,,,,,,,,1003,21,Woman,Right,
3,2,1.0,180,0,0,0.48288750000006075,['y'],0.7074665999999752,2.0,,,,,,,,1003,21,Woman,Right,,,,,,,,,,,,,,,,,1003,21,Woman,Right,
3,2,1.0,180,0,0,0.291244400000096,['y'],0.3953286000000844,1.996,,,,,,,,1003,21,Woman,Right,,,,,,,,,,,,,,,,,1003,21,Woman,Right,
3,2,1.0,0,180,180,0.19688410000003387,['y'],0.46432500000003074,1.996,,,,,,,,1003,21,Woman,Right,,,,,,,,,,,,,,,,,1003,21,Woman,Right,
3,2,1.0,0,180,180,0.22934680000003027,['y'],0.5518753000000061,1.996,,,,,,,,1003,21,Woman,Right,,,,,,,,,,,,,,,,,1003,21,Woman,Right,
3,2,1.0,0,180,180,0.15462109999998574,['y'],0.5520348000000013,1.996,,,,,,,,1003,21,Woman,Right,,,,,,,,,,,,,,,,,1003,21,Woman,Right,
3,2,1.0,180,0,0,0.04595849999998336,['y'],0.3296058000000812,1.996,10,10,10,10,1.0,1.0,,1003,21,Woman,Right,,,,,,,,,,,,,,,,,1003,21,Woman,Right,
4,2,0.15,180,0,0,0.5972552000000633,['y'],0.4553340999999591,2.0,,,,,,,,1003,21,Woman,Right,,,,,,,,,,,,,,,,,1003,21,Woman,Right,
4,2,0.15,0,180,180,0.38728279999997994,['y'],0.45613670000000184,2.0,,,,,,,,1003,21,Woman,Right,,,,,,,,,,,,,,,,,1003,21,Woman,Right,
4,2,0.4,180,0,0,0.253148900000042,['y'],0.3734389999999621,2.0,,,,,,,,1003,21,Woman,Right,,,,,,,,,,,,,,,,,1003,21,Woman,Right,
4,2,0.4,180,0,0,0.09786189999999806,['y'],0.3057243999999173,2.0,,,,,,,,1003,21,Woman,Right,,,,,,,,,,,,,,,,,1003,21,Woman,Right,
4,2,0.4,180,0,0,0.09259559999998146,['y'],0.5095893999999817,2.0,,,,,,,,1003,21,Woman,Right,,,,,,,,,,,,,,,,,1003,21,Woman,Right,
4,2,0.4,0,180,180,0.17350920000001224,['y'],0.6277119000000084,2.0,,,,,,,,1003,21,Woman,Right,,,,,,,,,,,,,,,,,1003,21,Woman,Right,
4,2,0.4,0,180,180,0.21294939999995677,['y'],0.7045739999999796,2.0,,,,,,,,1003,21,Woman,Right,,,,,,,,,,,,,,,,,1003,21,Woman,Right,
4,2,0.4,180,0,0,0.1259632999999667,['y'],0.36608320000004824,2.0,,,,,,,,1003,21,Woman,Right,,,,,,,,,,,,,,,,,1003,21,Woman,Right,
4,2,0.15,0,180,180,0.2721445000000813,['y'],0.36991550000004736,2.0,,,,,,,,1003,21,Woman,Right,,,,,,,,,,,,,,,,,1003,21,Woman,Right,
4,2,0.4,0,180,180,0.23574330000008104,['y'],0.6375438000000031,2.0,10,7,10,7,1.0,1.0,,1003,21,Woman,Right,,,,,,,,,,,,,,,,,1003,21,Woman,Right,
5,3,1.0,0,180,180,0.5211174999999457,['y'],0.7916602000000239,1.988,,,,,,,,1003,21,Woman,Right,,,,,,,,,,,,,,,,,1003,21,Woman,Right,
5,3,0.15,180,0,0,0.2703725000000077,['y'],0.39870670000004793,1.988,,,,,,,,1003,21,Woman,Right,,,,,,,,,,,,,,,,,1003,21,Woman,Right,
5,3,0.4,180,0,0,0.19830110000009427,['y'],0.5223360999999613,1.988,,,,,,,,1003,21,Woman,Right,,,,,,,,,,,,,,,,,1003,21,Woman,Right,
5,3,0.4,0,180,180,0.2358291000000463,['y'],0.4139605999999958,1.988,,,,,,,,1003,21,Woman,Right,,,,,,,,,,,,,,,,,1003,21,Woman,Right,
5,3,1.0,180,0,0,0.09129029999996874,['y'],0.9067704999999933,1.988,,,,,,,,1003,21,Woman,Right,,,,,,,,,,,,,,,,,1003,21,Woman,Right,
5,3,1.0,0,180,180,0.28496319999999287,['y'],0.5404488000000356,1.988,,,,,,,,1003,21,Woman,Right,,,,,,,,,,,,,,,,,1003,21,Woman,Right,
5,3,1.0,180,0,0,0.12611709999998766,['y'],0.7819730999999592,1.988,,,,,,,,1003,21,Woman,Right,,,,,,,,,,,,,,,,,1003,21,Woman,Right,
5,3,1.0,180,0,0,0.16591369999991912,['y'],0.6021012999999584,1.988,,,,,,,,1003,21,Woman,Right,,,,,,,,,,,,,,,,,1003,21,Woman,Right,
5,3,0.15,0,180,0,0.36571300000002793,['y'],2.3149920999999267,1.988,,,,,,,,1003,21,Woman,Right,,,,,,,,,,,,,,,,,1003,21,Woman,Right,
5,3,0.15,180,0,0,0.24641369999994822,['y'],0.6888807999999926,1.988,9,7,10,7,0.9,1.0,,1003,21,Woman,Right,,,,,,,,,,,,,,,,,1003,21,Woman,Right,
,,,,,,,,,,,,,,,,5.500000042957254e-06,1003,21,Woman,Right,,,,,,,,,,,,,,,,,1003,21,Woman,Right,
,,,,,,,,,,,,,,,,,1003,21,Woman,Right,0,50,0.15,1,180,-,0,0.33749950000003537,['y'],3.8796113999999307,1.786,237.81762270000002,,,,,1003,21,Woman,Right,
,,,,,,,,,,,,,,,,,1003,21,Woman,Right,0,30,0.4,1,180,-,180,0.5507168999999976,['y'],1.111296300000049,1.804,242.45055389999993,,,,,1003,21,Woman,Right,
,,,,,,,,,,,,,,,,,1003,21,Woman,Right,0,53,0.15,2,0,180,180,1.6458411000000979,['n'],1.8716002000001026,1.616,249.35001529999988,,,,,1003,21,Woman,Right,
,,,,,,,,,,,,,,,,,1003,21,Woman,Right,0,26,0.4,1,180,-,180,1.506395399999974,['n'],1.743707200000017,1.3820000000000001,255.85078250000004,,,,,1003,21,Woman,Right,
,,,,,,,,,,,,,,,,,1003,21,Woman,Right,0,40,0.4,1,0,-,0,0.36630510000009053,['y'],1.5037712000000738,1.764,260.6004652999999,,,,,1003,21,Woman,Right,
,,,,,,,,,,,,,,,,,1003,21,Woman,Right,0,8,0.4,1,0,-,0,0.8710006999999678,['n'],1.7598517999999785,1.764,265.93490229999986,,,,,1003,21,Woman,Right,
,,,,,,,,,,,,,,,,,1003,21,Woman,Right,0,25,0.4,2,0,180,180,0.40989760000002207,['y'],0.8078461000000061,1.762,270.1172158999999,,,,,1003,21,Woman,Right,
,,,,,,,,,,,,,,,,,1003,21,Woman,Right,0,27,0.4,2,180,0,0,0.31277189999991606,['y'],0.976065300000073,2.0,274.5345956,,,,,1003,21,Woman,Right,
,,,,,,,,,,,,,,,,,1003,21,Woman,Right,0,32,0.4,1,0,-,180,0.6793637000000672,['n'],1.4955064000000675,1.988,279.8330837,,,,,1003,21,Woman,Right,
,,,,,,,,,,,,,,,,,1003,21,Woman,Right,0,21,0.4,2,0,180,180,0.47086990000002515,['y'],0.6878253999998378,1.974,283.51637649999986,,,,,1003,21,Woman,Right,
,,,,,,,,,,,,,,,,,1003,21,Woman,Right,0,19,0.4,2,180,0,0,0.3336489000000711,['y'],0.6158039000001736,1.978,287.16657840000005,,,,,1003,21,Woman,Right,
,,,,,,,,,,,,,,,,,1003,21,Woman,Right,0,48,0.15,1,0,-,180,2.2877421000000595,['n'],0.9356448999999429,1.952,293.14977839999995,,,,,1003,21,Woman,Right,
,,,,,,,,,,,,,,,,,1003,21,Woman,Right,0,38,0.4,1,180,-,180,0.6287236000000576,['y'],1.3276021000001492,1.968,297.6844583999999,,,,,1003,21,Woman,Right,
,,,,,,,,,,,,,,,,,1003,21,Woman,Right,0,75,0.15,2,180,0,0,0.47686880000014753,['y'],1.431775499999958,2.0,302.36836389999996,,,,,1003,21,Woman,Right,
,,,,,,,,,,,,,,,,,1003,21,Woman,Right,0,10,0.4,1,180,-,180,0.7000871000000188,['n'],0.7835736999998062,1.978,306.33360830000004,,,,,1003,21,Woman,Right,
,,,,,,,,,,,,,,,,,1003,21,Woman,Right,0,3,1,2,180,0,0,0.34140179999985776,['y'],0.6717384999999467,1.968,310.08395229999985,,,,,1003,21,Woman,Right,
,,,,,,,,,,,,,,,,,1003,21,Woman,Right,0,23,0.4,2,180,0,0,0.6077023000000281,['y'],0.9518282999999883,1.988,314.4850218999999,,,,,1003,21,Woman,Right,
,,,,,,,,,,,,,,,,,1003,21,Woman,Right,0,12,0.4,1,0,-,0,1.8883763000001181,['n'],0.759494899999936,1.972,319.70026199999995,,,,,1003,21,Woman,Right,
,,,,,,,,,,,,,,,,,1003,21,Woman,Right,0,6,1,1,180,-,180,0.786559699999998,['y'],0.7990663999999015,1.986,323.7667473,,,,,1003,21,Woman,Right,
,,,,,,,,,,,,,,,,,1003,21,Woman,Right,0,15,0.4,2,180,0,0,0.43690749999996115,['y'],0.6313440999999784,1.982,327.5675193000001,,,,,1003,21,Woman,Right,
,,,,,,,,,,,,,,,,,1003,21,Woman,Right,0,56,0.15,1,0,-,180,1.480153400000063,['n'],0.9359099000000697,1.98,332.3849925999999,,,,,1003,21,Woman,Right,
,,,,,,,,,,,,,,,,,1003,21,Woman,Right,0,71,0.15,2,180,0,180,0.6152661999999509,['y'],1.2878324000000703,2.0,336.834379,,,,,1003,21,Woman,Right,
,,,,,,,,,,,,,,,,,1003,21,Woman,Right,0,9,0.4,2,0,180,180,0.3504958999999417,['y'],0.5911290000001372,2.0,340.1171759,,,,,1003,21,Woman,Right,
,,,,,,,,,,,,,,,,,1003,21,Woman,Right,0,7,1,2,180,0,0,0.3147231999998894,['y'],0.4542538999999124,1.992,343.23305429999994,,,,,1003,21,Woman,Right,
,,,,,,,,,,,,,,,,,1003,21,Woman,Right,0,17,0.4,2,0,180,180,0.797508599999901,['y'],0.952346800000214,1.992,347.3498337,,,,,1003,21,Woman,Right,
,,,,,,,,,,,,,,,,,1003,21,Woman,Right,0,58,0.15,1,180,-,180,0.3909828999999263,['y'],0.60007870000004,1.992,350.81624150000005,,,,,1003,21,Woman,Right,
,,,,,,,,,,,,,,,,,1003,21,Woman,Right,0,46,0.15,1,180,-,0,1.7686204999999973,['n'],1.2961660999999367,1.272,356.7503917,,,,,1003,21,Woman,Right,
,,,,,,,,,,,,,,,,,1003,21,Woman,Right,0,73,0.15,2,0,180,180,1.0801854999999705,['y'],1.1435429999999087,2.0,361.5348436999999,,,,,1003,21,Woman,Right,
,,,,,,,,,,,,,,,,,1003,21,Woman,Right,0,11,0.4,2,180,0,0,0.3363440000000537,['y'],1.231506599999875,1.996,365.6663858999999,,,,,1003,21,Woman,Right,
,,,,,,,,,,,,,,,,,1003,21,Woman,Right,0,13,0.4,2,0,180,180,0.350150400000075,['y'],0.5432418999998845,1.988,368.8006216,,,,,1003,21,Woman,Right,
,,,,,,,,,,,,,,,,,1003,21,Woman,Right,0,74,0.15,1,180,-,180,0.4236197000000175,['n'],0.8162094000001616,1.988,372.28322390000005,,,,,1003,21,Woman,Right,
,,,,,,,,,,,,,,,,,1003,21,Woman,Right,0,20,0.4,1,0,-,180,0.5471292999998241,['n'],1.0161015999999563,1.988,376.06619880000005,,,,,1003,21,Woman,Right,
,,,,,,,,,,,,,,,,,1003,21,Woman,Right,0,39,0.4,2,180,0,0,0.37221180000005916,['y'],0.7120310000000245,1.988,379.56746069999997,,,,,1003,21,Woman,Right,
,,,,,,,,,,,,,,,,,1003,21,Woman,Right,0,60,0.15,1,0,-,180,0.9191774000000805,['n'],0.7200189999998656,1.988,383.73309789999996,,,,,1003,21,Woman,Right,
,,,,,,,,,,,,,,,,,1003,21,Woman,Right,0,70,0.15,1,180,-,180,0.44172580000008566,['n'],0.7923465000001215,1.988,387.2838622999999,,,,,1003,21,Woman,Right,
,,,,,,,,,,,,,,,,,1003,21,Woman,Right,0,2,1,1,180,-,180,0.7142644000000473,['y'],0.8248673000000508,1.988,391.15007980000007,,,,,1003,21,Woman,Right,
,,,,,,,,,,,,,,,,,1003,21,Woman,Right,0,37,0.4,2,0,180,180,1.2555863000000045,['y'],0.856132099999968,1.988,395.65085510000006,,,,,1003,21,Woman,Right,
,,,,,,,,,,,,,,,,,1003,21,Woman,Right,0,77,0.15,2,0,180,0,0.7821421999999529,['n'],0.8959657000000334,1.988,399.51680350000004,,,,,1003,21,Woman,Right,
,,,,,,,,,,,,,,,,,1003,21,Woman,Right,0,67,0.15,2,180,0,180,0.7691391999999269,['n'],0.9040869000000384,1.988,403.5177482,,,,,1003,21,Woman,Right,
,,,,,,,,,,,,,,,,,1003,21,Woman,Right,0,36,0.4,1,0,-,180,2.1876800000000003,['n'],0.6960828999999649,1.988,409.000009,,,,,1003,21,Woman,Right,
,,,,,,,,,,,,,,,,,1003,21,Woman,Right,0,52,0.15,1,0,-,0,0.6333505000000059,['n'],0.8721848000000136,1.8,413.11682540000004,,,,,1003,21,Woman,Right,
,,,,,,,,,,,,,,,,,1003,21,Woman,Right,0,34,0.4,1,180,-,180,1.0122414999998455,['y'],1.0719903999997769,1.976,417.95017599999994,,,,,1003,21,Woman,Right,
,,,,,,,,,,,,,,,,,1003,21,Woman,Right,0,63,0.15,2,180,0,0,0.6270793000001049,['n'],0.679738000000043,1.304,421.94973649999986,,,,,1003,21,Woman,Right,
,,,,,,,,,,,,,,,,,1003,21,Woman,Right,0,66,0.15,1,180,-,180,0.8630203999998685,['n'],0.7997393999999076,1.316,426.1341954999999,,,,,1003,21,Woman,Right,
,,,,,,,,,,,,,,,,,1003,21,Woman,Right,0,61,0.15,2,0,180,0,0.8259124999999585,['y'],0.8080621999999948,2.0,430.1499527,,,,,1003,21,Woman,Right,
,,,,,,,,,,,,,,,,,1003,21,Woman,Right,0,65,0.15,2,0,180,180,0.4749504999999772,['n'],0.9111227000000781,1.928,433.8503388999999,,,,,1003,21,Woman,Right,
,,,,,,,,,,,,,,,,,1003,21,Woman,Right,0,76,0.15,1,0,-,0,0.5262904999999591,['n'],0.7361594999999852,1.8860000000000001,437.51643639999986,,,,,1003,21,Woman,Right,
,,,,,,,,,,,,,,,,,1003,21,Woman,Right,0,55,0.15,2,180,0,0,1.819179499999791,['n'],3.5438434000000143,1.6560000000000001,446.1173622,,,,,1003,21,Woman,Right,
,,,,,,,,,,,,,,,,,1003,21,Woman,Right,0,0,1,1,0,-,0,0.5554074000001492,['y'],3.159924300000057,1.998,452.53442400000006,,,,,1003,21,Woman,Right,
,,,,,,,,,,,,,,,,,1003,21,Woman,Right,0,1,1,2,0,180,180,0.761858600000096,['y'],0.8236139999999068,2.0,456.7497104,,,,,1003,21,Woman,Right,
,,,,,,,,,,,,,,,,,1003,21,Woman,Right,0,51,0.15,2,180,0,0,0.978463099999999,['n'],0.6556642000000465,1.974,460.88344960000006,,,,,1003,21,Woman,Right,
,,,,,,,,,,,,,,,,,1003,21,Woman,Right,0,54,0.15,1,180,-,180,0.94213220000006,['n'],0.7194291999999223,1.962,464.9329815,,,,,1003,21,Woman,Right,
,,,,,,,,,,,,,,,,,1003,21,Woman,Right,0,42,0.4,1,180,-,180,0.36384610000004614,['n'],0.6552266000001055,1.962,468.366214,,,,,1003,21,Woman,Right,
,,,,,,,,,,,,,,,,,1003,21,Woman,Right,0,47,0.15,2,180,0,0,1.477060100000017,['n'],0.7917825999998058,1.712,473.23315790000004,,,,,1003,21,Woman,Right,
,,,,,,,,,,,,,,,,,1003,21,Woman,Right,0,5,1,2,0,180,180,1.144103399999949,['y'],0.7435543999999936,2.0,477.61632739999993,,,,,1003,21,Woman,Right,
,,,,,,,,,,,,,,,,,1003,21,Woman,Right,0,29,0.4,2,0,180,180,1.0564710999999534,['y'],0.5675727000000279,1.99,481.73294350000003,,,,,1003,21,Woman,Right,
,,,,,,,,,,,,,,,,,1003,21,Woman,Right,0,43,0.4,2,180,0,0,0.9665777999998681,['y'],0.6000938999998198,1.976,485.7997474,,,,,1003,21,Woman,Right,
,,,,,,,,,,,,,,,,,1003,21,Woman,Right,0,35,0.4,2,180,0,0,0.8178664999998091,['y'],0.5758866999999555,1.994,489.93344680000007,,,,,1003,21,Woman,Right,
,,,,,,,,,,,,,,,,,1003,21,Woman,Right,0,14,0.4,1,180,-,180,0.7164436999998998,['y'],0.6559669000000667,1.938,493.69976800000006,,,,,1003,21,Woman,Right,
,,,,,,,,,,,,,,,,,1003,21,Woman,Right,0,69,0.15,2,0,180,180,3.922115099999928,['n'],0.9193695999999818,1.966,501.2162072,,,,,1003,21,Woman,Right,
,,,,,,,,,,,,,,,,,1003,21,Woman,Right,0,4,1,1,0,-,0,0.6053130000000237,['y'],0.6317595000000438,2.0,504.8827774,,,,,1003,21,Woman,Right,
,,,,,,,,,,,,,,,,,1003,21,Woman,Right,0,41,0.4,2,0,180,180,1.0837234000000535,['y'],0.8074663999998393,1.984,509.1494334999999,,,,,1003,21,Woman,Right,
,,,,,,,,,,,,,,,,,1003,21,Woman,Right,0,45,0.15,2,0,180,180,1.31570499999998,['n'],1.083262300000115,1.976,513.9494587,,,,,1003,21,Woman,Right,
,,,,,,,,,,,,,,,,,1003,21,Woman,Right,0,79,0.15,2,180,0,0,0.8834021000000121,['n'],0.6795134999999846,1.98,517.9330722999999,,,,,1003,21,Woman,Right,
,,,,,,,,,,,,,,,,,1003,21,Woman,Right,0,57,0.15,2,0,180,0,2.4287263999999595,['n'],1.2077844000000368,1.03,524.1496762999999,,,,,1003,21,Woman,Right,
,,,,,,,,,,,,,,,,,1003,21,Woman,Right,0,22,0.4,1,180,-,180,0.8081417000000783,['y'],1.2316326999998637,1.3359999999999999,529.0160184,,,,,1003,21,Woman,Right,
,,,,,,,,,,,,,,,,,1003,21,Woman,Right,0,33,0.4,2,0,180,180,1.9958483000000342,['y'],0.6317824000000201,1.966,534.3161357,,,,,1003,21,Woman,Right,
,,,,,,,,,,,,,,,,,1003,21,Woman,Right,0,78,0.15,1,180,-,0,0.6999358000000484,['n'],0.8875977999998668,1.034,538.6660464,,,,,1003,21,Woman,Right,
,,,,,,,,,,,,,,,,,1003,21,Woman,Right,0,72,0.15,1,0,-,0,2.0694985999998607,['n'],2.3200216000000182,1.1219999999999999,545.6327272,,,,,1003,21,Woman,Right,
,,,,,,,,,,,,,,,,,1003,21,Woman,Right,0,49,0.15,2,0,180,0,1.9492737000000488,['n'],1.055661500000042,1.072,551.4493239,,,,,1003,21,Woman,Right,
,,,,,,,,,,,,,,,,,1003,21,Woman,Right,0,31,0.4,2,180,0,0,0.9800720000000638,['y'],3.287773299999799,1.992,558.3165788,,,,,1003,21,Woman,Right,
,,,,,,,,,,,,,,,,,1003,21,Woman,Right,0,16,0.4,1,0,-,180,2.196193500000163,['y'],3.4958945999999287,1.988,566.3670335999999,,,,,1003,21,Woman,Right,
,,,,,,,,,,,,,,,,,1003,21,Woman,Right,0,28,0.4,1,0,-,0,1.9256631000000652,['y'],0.9518254000001889,1.968,571.4999363999999,,,,,1003,21,Woman,Right,
,,,,,,,,,,,,,,,,,1003,21,Woman,Right,0,18,0.4,1,180,-,180,1.1864822000000004,['y'],1.4797439999999824,1.972,577.016062,,,,,1003,21,Woman,Right,
,,,,,,,,,,,,,,,,,1003,21,Woman,Right,0,68,0.15,1,0,-,0,0.5808380000000852,['y'],0.9836641000001691,1.998,581.0995333,,,,,1003,21,Woman,Right,
,,,,,,,,,,,,,,,,,1003,21,Woman,Right,0,44,0.15,1,0,-,0,1.1160632000000987,['n'],0.7534706000001279,1.1059999999999999,585.7328789,,,,,1003,21,Woman,Right,
,,,,,,,,,,,,,,,,,1003,21,Woman,Right,0,59,0.15,2,180,0,180,2.232789500000081,['n'],1.159853699999985,1.112,592.0835504999999,,,,,1003,21,Woman,Right,
,,,,,,,,,,,,,,,,,1003,21,Woman,Right,0,64,0.15,1,0,-,0,0.9362784999998439,['n'],1.3681497999998555,1.19,596.9830605999999,,,,,1003,21,Woman,Right,
,,,,,,,,,,,,,,,,,1003,21,Woman,Right,0,62,0.15,1,180,-,180,2.054758700000093,['y'],0.9679092000001219,1.712,602.7165059999999,,,,,1003,21,Woman,Right,
,,,,,,,,,,,,,,,,,1003,21,Woman,Right,0,24,0.4,1,0,-,0,0.7053742000000511,['y'],1.1994181000000026,1.308,608.6830377999999,,,,,1003,21,Woman,Right,
,,,,,,,,,,,,,,,,,1003,21,Woman,Right,1,0,1,1,0,-,0,0.983090200000106,['y'],1.2157720000000154,1.972,645.3666377000001,630.0,55.0,65.0,,1003,21,Woman,Right,
,,,,,,,,,,,,,,,,,1003,21,Woman,Right,1,78,0.15,1,180,-,180,0.46515819999990526,['y'],0.6797575999999026,1.994,649.3833908,,,,,1003,21,Woman,Right,
,,,,,,,,,,,,,,,,,1003,21,Woman,Right,1,64,0.15,1,0,-,180,0.46680319999995845,['y'],0.5993348000001788,1.978,652.7995961999999,,,,,1003,21,Woman,Right,
,,,,,,,,,,,,,,,,,1003,21,Woman,Right,1,51,0.15,2,180,0,0,0.6982551000000967,['y'],0.6155346999998983,1.974,656.3328499,,,,,1003,21,Woman,Right,
,,,,,,,,,,,,,,,,,1003,21,Woman,Right,1,36,0.4,1,0,-,0,0.726550300000099,['n'],1.15214519999995,1.962,660.8501958,,,,,1003,21,Woman,Right,
,,,,,,,,,,,,,,,,,1003,21,Woman,Right,1,8,0.4,1,0,-,0,1.6610180000000128,['n'],0.9030150000000958,1.986,666.0659654,,,,,1003,21,Woman,Right,
,,,,,,,,,,,,,,,,,1003,21,Woman,Right,1,74,0.15,1,180,-,180,2.6305889999998726,['y'],0.8475883000000977,1.958,672.0327349,,,,,1003,21,Woman,Right,
,,,,,,,,,,,,,,,,,1003,21,Woman,Right,1,57,0.15,2,0,180,0,0.6042681999999786,['y'],0.6400452999998834,1.958,675.6179553000001,,,,,1003,21,Woman,Right,
,,,,,,,,,,,,,,,,,1003,21,Woman,Right,1,71,0.15,2,180,0,0,1.8480950999999095,['y'],0.8142448999999488,1.958,680.6330102000001,,,,,1003,21,Woman,Right,
,,,,,,,,,,,,,,,,,1003,21,Woman,Right,1,60,0.15,1,0,-,180,1.0241413000001103,['y'],2.672137899999825,2.0,686.6664546000001,,,,,1003,21,Woman,Right,
,,,,,,,,,,,,,,,,,1003,21,Woman,Right,1,72,0.15,1,0,-,180,0.767691799999966,['y'],0.7442948999998862,2.0,690.3677928999999,,,,,1003,21,Woman,Right,
,,,,,,,,,,,,,,,,,1003,21,Woman,Right,1,12,0.4,1,0,-,0,0.4480985000000146,['y'],0.7206834999999501,1.994,693.7657891,,,,,1003,21,Woman,Right,
,,,,,,,,,,,,,,,,,1003,21,Woman,Right,1,37,0.4,2,0,180,180,0.5604507000000467,['y'],0.823794800000087,1.978,697.6336557999999,,,,,1003,21,Woman,Right,
,,,,,,,,,,,,,,,,,1003,21,Woman,Right,1,23,0.4,2,180,0,0,0.40594110000006367,['y'],0.5038581999999678,1.978,701.1324948,,,,,1003,21,Woman,Right,
,,,,,,,,,,,,,,,,,1003,21,Woman,Right,1,29,0.4,2,0,180,180,0.6813468999998804,['y'],0.4760874999999487,1.978,704.3835143,,,,,1003,21,Woman,Right,
,,,,,,,,,,,,,,,,,1003,21,Woman,Right,1,19,0.4,2,180,0,0,0.3207677000000331,['y'],0.3676507000000129,1.976,707.4325015999999,,,,,1003,21,Woman,Right,
,,,,,,,,,,,,,,,,,1003,21,Woman,Right,1,31,0.4,2,180,0,0,0.24923929999999928,['y'],0.440100799999982,1.976,710.5329754,,,,,1003,21,Woman,Right,
,,,,,,,,,,,,,,,,,1003,21,Woman,Right,1,24,0.4,1,0,-,180,1.4620895999998993,['n'],0.7760323999998491,1.976,715.099218,,,,,1003,21,Woman,Right,
,,,,,,,,,,,,,,,,,1003,21,Woman,Right,1,66,0.15,1,180,-,0,1.4152662999999848,['n'],0.8401639999999588,1.976,719.5840425,,,,,1003,21,Woman,Right,
,,,,,,,,,,,,,,,,,1003,21,Woman,Right,1,58,0.15,1,180,-,0,0.8662283000001025,['n'],0.7920844999998735,1.976,723.3991889999999,,,,,1003,21,Woman,Right,
,,,,,,,,,,,,,,,,,1003,21,Woman,Right,1,11,0.4,2,180,0,0,0.21769029999995837,['y'],0.4799593999998706,1.976,726.3156581,,,,,1003,21,Woman,Right,
,,,,,,,,,,,,,,,,,1003,21,Woman,Right,1,25,0.4,2,0,180,180,0.44382710000013503,['y'],0.34388990000002195,1.976,729.2493559999999,,,,,1003,21,Woman,Right,
,,,,,,,,,,,,,,,,,1003,21,Woman,Right,1,44,0.15,1,0,-,0,2.493770799999993,['n'],0.7280966999999237,1.976,734.7826853999999,,,,,1003,21,Woman,Right,
,,,,,,,,,,,,,,,,,1003,21,Woman,Right,1,2,1,1,180,-,180,0.9049489999999878,['y'],0.49608420000004116,1.976,738.4157446,,,,,1003,21,Woman,Right,
,,,,,,,,,,,,,,,,,1003,21,Woman,Right,1,32,0.4,1,0,-,0,1.032001799999989,['n'],0.5921721999998226,1.976,742.5156395,,,,,1003,21,Woman,Right,
,,,,,,,,,,,,,,,,,1003,21,Woman,Right,1,48,0.15,1,0,-,180,1.12330309999993,['n'],0.6722330999998576,1.976,746.6158044,,,,,1003,21,Woman,Right,
,,,,,,,,,,,,,,,,,1003,21,Woman,Right,1,15,0.4,2,180,0,0,0.5105450999999448,['y'],0.49594439999987117,1.976,750.1177882000001,,,,,1003,21,Woman,Right,
,,,,,,,,,,,,,,,,,1003,21,Woman,Right,1,34,0.4,1,180,-,180,0.5824002999997901,['y'],0.4131340999999793,1.976,753.4000560999999,,,,,1003,21,Woman,Right,
,,,,,,,,,,,,,,,,,1003,21,Woman,Right,1,77,0.15,2,0,180,180,0.8820917999998983,['y'],1.6482624000000214,1.976,758.0333582,,,,,1003,21,Woman,Right,
,,,,,,,,,,,,,,,,,1003,21,Woman,Right,1,33,0.4,2,0,180,180,0.911702699999978,['y'],0.6239918000001126,1.976,761.7495748,,,,,1003,21,Woman,Right,
,,,,,,,,,,,,,,,,,1003,21,Woman,Right,1,40,0.4,1,0,-,180,1.8145230999998603,['n'],0.6686266000001524,1.976,766.3661395999999,,,,,1003,21,Woman,Right,
,,,,,,,,,,,,,,,,,1003,21,Woman,Right,1,41,0.4,2,0,180,180,1.0680171999999857,['y'],2.231443800000079,1.92,772.2825687999999,,,,,1003,21,Woman,Right,
,,,,,,,,,,,,,,,,,1003,21,Woman,Right,1,50,0.15,1,180,-,180,0.41606799999999566,['y'],1.5356501000001117,1.9060000000000001,776.6993879,,,,,1003,21,Woman,Right,
,,,,,,,,,,,,,,,,,1003,21,Woman,Right,1,4,1,1,0,-,0,0.2896236999999928,['y'],1.3515486000001147,1.8900000000000001,780.4322742,,,,,1003,21,Woman,Right,
,,,,,,,,,,,,,,,,,1003,21,Woman,Right,1,56,0.15,1,0,-,180,0.70407780000005,['n'],0.9355821999999989,1.928,784.3822486,,,,,1003,21,Woman,Right,
,,,,,,,,,,,,,,,,,1003,21,Woman,Right,1,69,0.15,2,0,180,180,1.6925257000000329,['n'],0.863391399999955,1.912,788.9992510999999,,,,,1003,21,Woman,Right,
,,,,,,,,,,,,,,,,,1003,21,Woman,Right,1,3,1,2,180,0,0,0.3373715000000175,['y'],0.9598124000001462,1.926,792.4009929999999,,,,,1003,21,Woman,Right,
,,,,,,,,,,,,,,,,,1003,21,Woman,Right,1,18,0.4,1,180,-,180,0.4241746999998668,['y'],0.5596671999999216,1.926,795.4995557999999,,,,,1003,21,Woman,Right,
,,,,,,,,,,,,,,,,,1003,21,Woman,Right,1,47,0.15,2,180,0,0,1.1901121999999305,['y'],1.015484000000015,1.916,799.7994488999999,,,,,1003,21,Woman,Right,
,,,,,,,,,,,,,,,,,1003,21,Woman,Right,1,59,0.15,2,180,0,0,0.7786482999999862,['n'],0.7999140000001717,1.928,803.7675949999999,,,,,1003,21,Woman,Right,
,,,,,,,,,,,,,,,,,1003,21,Woman,Right,1,16,0.4,1,0,-,0,0.7739894999999706,['y'],1.1354487999999492,2.0,807.7841305000001,,,,,1003,21,Woman,Right,
,,,,,,,,,,,,,,,,,1003,21,Woman,Right,1,39,0.4,2,180,0,0,0.36120789999995395,['y'],0.38409329999990405,2.0,810.9826471,,,,,1003,21,Woman,Right,
,,,,,,,,,,,,,,,,,1003,21,Woman,Right,1,27,0.4,2,180,0,0,0.39892280000003666,['y'],0.438074300000153,1.998,814.1005875,,,,,1003,21,Woman,Right,
,,,,,,,,,,,,,,,,,1003,21,Woman,Right,1,28,0.4,1,0,-,180,1.6482489999998506,['n'],0.6397279000000253,1.6440000000000001,818.8334157,,,,,1003,21,Woman,Right,
,,,,,,,,,,,,,,,,,1003,21,Woman,Right,1,14,0.4,1,180,-,180,0.282129599999962,['y'],2.3515255999998317,1.978,824.500598,,,,,1003,21,Woman,Right,
,,,,,,,,,,,,,,,,,1003,21,Woman,Right,1,65,0.15,2,0,180,0,1.1496062999999594,['y'],0.647545700000137,2.0,828.8841928,,,,,1003,21,Woman,Right,
,,,,,,,,,,,,,,,,,1003,21,Woman,Right,1,38,0.4,1,180,-,0,2.3475014999999075,['n'],1.1915591000001768,1.706,835.234192,,,,,1003,21,Woman,Right,
,,,,,,,,,,,,,,,,,1003,21,Woman,Right,1,75,0.15,2,180,0,0,0.9046180000000277,['y'],1.0398139000001265,2.0,839.8664325999999,,,,,1003,21,Woman,Right,
,,,,,,,,,,,,,,,,,1003,21,Woman,Right,1,53,0.15,2,0,180,0,3.1326592000000346,['y'],3.4157121000000643,1.95,849.1997602,,,,,1003,21,Woman,Right,
,,,,,,,,,,,,,,,,,1003,21,Woman,Right,1,9,0.4,2,0,180,180,0.7631959000000279,['y'],1.0876729000001433,1.974,855.0331806999999,,,,,1003,21,Woman,Right,
,,,,,,,,,,,,,,,,,1003,21,Woman,Right,1,10,0.4,1,180,-,180,0.679403099999945,['y'],0.43202770000016244,1.974,858.2993416999999,,,,,1003,21,Woman,Right,
,,,,,,,,,,,,,,,,,1003,21,Woman,Right,1,30,0.4,1,180,-,180,0.9908108000001903,['n'],0.6882310000000871,1.956,862.099131,,,,,1003,21,Woman,Right,
,,,,,,,,,,,,,,,,,1003,21,Woman,Right,1,7,1,2,180,0,0,0.435562599999912,['y'],0.6080465000000004,1.956,865.3991388000001,,,,,1003,21,Woman,Right,
,,,,,,,,,,,,,,,,,1003,21,Woman,Right,1,22,0.4,1,180,-,180,1.1701984000001175,['n'],0.5437554999998611,1.968,869.6166411,,,,,1003,21,Woman,Right,
,,,,,,,,,,,,,,,,,1003,21,Woman,Right,1,70,0.15,1,180,-,0,1.578952599999866,['n'],0.7920466000000488,1.0,874.7845047,,,,,1003,21,Woman,Right,
,,,,,,,,,,,,,,,,,1003,21,Woman,Right,1,55,0.15,2,180,0,0,0.6029026000001068,['y'],0.7516980000000331,1.978,878.9989125000001,,,,,1003,21,Woman,Right,
,,,,,,,,,,,,,,,,,1003,21,Woman,Right,1,26,0.4,1,180,-,180,1.4671029000001,['n'],0.447855600000139,1.03,883.4656615,,,,,1003,21,Woman,Right,
,,,,,,,,,,,,,,,,,1003,21,Woman,Right,1,20,0.4,1,0,-,0,0.6143922999999631,['n'],2.2076751999998123,1.0,889.3993687999999,,,,,1003,21,Woman,Right,
,,,,,,,,,,,,,,,,,1003,21,Woman,Right,1,68,0.15,1,0,-,0,0.6450090000000728,['n'],3.1998958000001494,1.038,896.5675215999998,,,,,1003,21,Woman,Right,
,,,,,,,,,,,,,,,,,1003,21,Woman,Right,1,45,0.15,2,0,180,180,1.0854386999999406,['n'],1.5513194999998632,1.006,901.7006574000001,,,,,1003,21,Woman,Right,
,,,,,,,,,,,,,,,,,1003,21,Woman,Right,1,42,0.4,1,180,-,180,0.613464699999895,['n'],0.9519480000001295,1.126,905.7166421999999,,,,,1003,21,Woman,Right,
,,,,,,,,,,,,,,,,,1003,21,Woman,Right,1,54,0.15,1,180,-,0,1.4646195999998781,['n'],0.679329800000005,1.076,910.2825492999999,,,,,1003,21,Woman,Right,
,,,,,,,,,,,,,,,,,1003,21,Woman,Right,1,63,0.15,2,180,0,0,2.135392799999863,['y'],1.023696199999904,1.962,915.7329960999999,,,,,1003,21,Woman,Right,
,,,,,,,,,,,,,,,,,1003,21,Woman,Right,1,1,1,2,0,180,180,0.3594284000000698,['y'],0.5196038999999928,1.988,919.2164216,,,,,1003,21,Woman,Right,
,,,,,,,,,,,,,,,,,1003,21,Woman,Right,1,13,0.4,2,0,180,180,1.1623543999999129,['y'],0.5678110000001197,1.958,923.2986978,,,,,1003,21,Woman,Right,
,,,,,,,,,,,,,,,,,1003,21,Woman,Right,1,49,0.15,2,0,180,0,1.1838528999999198,['n'],0.855408000000125,1.0,928.0170546999999,,,,,1003,21,Woman,Right,
,,,,,,,,,,,,,,,,,1003,21,Woman,Right,1,52,0.15,1,0,-,180,1.1203072999999222,['n'],0.5836204999998245,1.0,932.1488788,,,,,1003,21,Woman,Right,
,,,,,,,,,,,,,,,,,1003,21,Woman,Right,1,67,0.15,2,180,0,180,1.2148655000000872,['n'],0.6433008999999856,1.008,936.3840306000001,,,,,1003,21,Woman,Right,
,,,,,,,,,,,,,,,,,1003,21,Woman,Right,1,46,0.15,1,180,-,0,3.2558822999999393,['n'],0.7992495000000872,1.02,943.0488789,,,,,1003,21,Woman,Right,
,,,,,,,,,,,,,,,,,1003,21,Woman,Right,1,6,1,1,180,-,180,0.5271606999999676,['y'],1.2240165000000616,1.998,947.4157160999999,,,,,1003,21,Woman,Right,
,,,,,,,,,,,,,,,,,1003,21,Woman,Right,1,61,0.15,2,0,180,180,0.7210332000001927,['n'],1.4081311000002188,1.012,952.1992818,,,,,1003,21,Woman,Right,
,,,,,,,,,,,,,,,,,1003,21,Woman,Right,1,43,0.4,2,180,0,0,0.47589880000009543,['y'],0.4716986999999335,2.0,955.9670218,,,,,1003,21,Woman,Right,
,,,,,,,,,,,,,,,,,1003,21,Woman,Right,1,79,0.15,2,180,0,0,1.0356945000000906,['y'],0.9597065999998904,2.0,960.9488326,,,,,1003,21,Woman,Right,
,,,,,,,,,,,,,,,,,1003,21,Woman,Right,1,73,0.15,2,0,180,0,2.564132900000004,['n'],0.7916898000000856,1.036,966.7491236,,,,,1003,21,Woman,Right,
,,,,,,,,,,,,,,,,,1003,21,Woman,Right,1,35,0.4,2,180,0,0,0.26036999999996624,['y'],0.46365220000006957,2.0,970.3154705999999,,,,,1003,21,Woman,Right,
,,,,,,,,,,,,,,,,,1003,21,Woman,Right,1,21,0.4,2,0,180,180,0.43764659999988,['y'],0.3274177000000691,1.974,973.5173368,,,,,1003,21,Woman,Right,
,,,,,,,,,,,,,,,,,1003,21,Woman,Right,1,5,1,2,0,180,180,0.23123329999998532,['y'],0.3834353999998257,1.994,976.4339974999999,,,,,1003,21,Woman,Right,
,,,,,,,,,,,,,,,,,1003,21,Woman,Right,1,17,0.4,2,0,180,180,0.5694158000001153,['y'],0.38348150000001624,1.988,979.7509532,,,,,1003,21,Woman,Right,
,,,,,,,,,,,,,,,,,1003,21,Woman,Right,1,62,0.15,1,180,-,180,0.391450500000019,['n'],1.3436684000000696,2.0,983.7490181,,,,,1003,21,Woman,Right,
,,,,,,,,,,,,,,,,,1003,21,Woman,Right,1,76,0.15,1,0,-,0,0.2867820000001302,['n'],0.967617300000029,1.0,988.2167031999999,,,,,1003,21,Woman,Right,
,,,,,,,,,,,,,,,,,1003,21,Woman,Right,2,10,0.4,1,180,-,180,2.113650000000007,['n'],2.319506199999978,1.202,1023.1158664000001,590.0,60.0,82.5,,1003,21,Woman,Right,
,,,,,,,,,,,,,,,,,1003,21,Woman,Right,2,61,0.15,2,0,180,0,0.6794287000000168,['n'],0.5279708000000483,1.978,1026.8002078999998,,,,,1003,21,Woman,Right,
,,,,,,,,,,,,,,,,,1003,21,Woman,Right,2,79,0.15,2,180,0,0,1.1773075999999492,['n'],0.4553531000001385,1.976,1030.6329034999999,,,,,1003,21,Woman,Right,
,,,,,,,,,,,,,,,,,1003,21,Woman,Right,2,4,1,1,0,-,0,0.6175040000000536,['y'],0.463602599999831,1.962,1033.9658491,,,,,1003,21,Woman,Right,
,,,,,,,,,,,,,,,,,1003,21,Woman,Right,2,0,1,1,0,-,0,0.24924719999989975,['y'],0.35959950000005847,1.964,1037.3654662999998,,,,,1003,21,Woman,Right,
,,,,,,,,,,,,,,,,,1003,21,Woman,Right,2,74,0.15,1,180,-,180,0.3643168999999489,['n'],0.4316900000001169,2.0,1040.4669247000002,,,,,1003,21,Woman,Right,
,,,,,,,,,,,,,,,,,1003,21,Woman,Right,2,2,1,1,180,-,180,0.6841483999999127,['y'],0.3111969000001409,1.974,1043.7671945000002,,,,,1003,21,Woman,Right,
,,,,,,,,,,,,,,,,,1003,21,Woman,Right,2,14,0.4,1,180,-,180,0.35027820000004795,['y'],0.25608210000018516,1.996,1046.7154891,,,,,1003,21,Woman,Right,
,,,,,,,,,,,,,,,,,1003,21,Woman,Right,2,45,0.15,2,0,180,180,0.6863177000000178,['n'],0.7039253999998891,1.978,1050.2838166000001,,,,,1003,21,Woman,Right,
,,,,,,,,,,,,,,,,,1003,21,Woman,Right,2,51,0.15,2,180,0,180,0.41330569999990985,['n'],0.42400580000003174,1.978,1053.2486558,,,,,1003,21,Woman,Right,
,,,,,,,,,,,,,,,,,1003,21,Woman,Right,2,52,0.15,1,0,-,0,0.565282199999956,['n'],1.4183135000000675,1.978,1057.3492869000002,,,,,1003,21,Woman,Right,
,,,,,,,,,,,,,,,,,1003,21,Woman,Right,2,9,0.4,2,0,180,180,0.476662000000033,['y'],0.8081798999999137,1.978,1060.7828854999998,,,,,1003,21,Woman,Right,
,,,,,,,,,,,,,,,,,1003,21,Woman,Right,2,56,0.15,1,0,-,0,0.2505050999998275,['n'],1.0955504000000928,1.966,1064.2653632000001,,,,,1003,21,Woman,Right,
,,,,,,,,,,,,,,,,,1003,21,Woman,Right,2,7,1,2,180,0,0,0.31870630000003075,['y'],0.43200389999992694,1.966,1067.2829511999998,,,,,1003,21,Woman,Right,
,,,,,,,,,,,,,,,,,1003,21,Woman,Right,2,20,0.4,1,0,-,0,0.46958150000000387,['n'],2.0321418999999423,1.966,1071.9988339000001,,,,,1003,21,Woman,Right,
,,,,,,,,,,,,,,,,,1003,21,Woman,Right,2,62,0.15,1,180,-,180,0.5530687999998918,['y'],1.1758098999998765,1.966,1075.9827728999999,,,,,1003,21,Woman,Right,
,,,,,,,,,,,,,,,,,1003,21,Woman,Right,2,27,0.4,2,180,0,0,0.25100739999993493,['y'],0.8162608000000091,1.966,1079.1317834000001,,,,,1003,21,Woman,Right,
,,,,,,,,,,,,,,,,,1003,21,Woman,Right,2,11,0.4,2,180,0,0,0.3829238000000714,['y'],0.624127400000134,1.966,1082.1491138000001,,,,,1003,21,Woman,Right,
,,,,,,,,,,,,,,,,,1003,21,Woman,Right,2,49,0.15,2,0,180,180,0.4848566999999093,['y'],0.2559699000000819,1.966,1084.9987775,,,,,1003,21,Woman,Right,
,,,,,,,,,,,,,,,,,1003,21,Woman,Right,2,43,0.4,2,180,0,0,0.45800149999990936,['y'],1.7600976999999602,1.966,1089.3322775000001,,,,,1003,21,Woman,Right,
,,,,,,,,,,,,,,,,,1003,21,Woman,Right,2,17,0.4,2,0,180,180,0.3487465999999131,['y'],0.3039386000000377,1.966,1092.049662,,,,,1003,21,Woman,Right,
,,,,,,,,,,,,,,,,,1003,21,Woman,Right,2,60,0.15,1,0,-,0,0.7282337999999982,['n'],1.616190700000061,1.966,1096.6500649,,,,,1003,21,Woman,Right,
,,,,,,,,,,,,,,,,,1003,21,Woman,Right,2,24,0.4,1,0,-,0,1.267091000000164,['n'],1.392163900000014,1.966,1101.3662368,,,,,1003,21,Woman,Right,
,,,,,,,,,,,,,,,,,1003,21,Woman,Right,2,36,0.4,1,0,-,0,0.6122051999998348,['y'],1.4082632999998168,1.966,1105.5157930999999,,,,,1003,21,Woman,Right,
,,,,,,,,,,,,,,,,,1003,21,Woman,Right,2,22,0.4,1,180,-,180,0.38262910000003103,['y'],0.5761500999999498,1.966,1108.7994353999998,,,,,1003,21,Woman,Right,
,,,,,,,,,,,,,,,,,1003,21,Woman,Right,2,34,0.4,1,180,-,180,0.8976803000000473,['n'],0.896035700000084,1.966,1112.8151982999998,,,,,1003,21,Woman,Right,
,,,,,,,,,,,,,,,,,1003,21,Woman,Right,2,13,0.4,2,0,180,180,0.3811541000000034,['y'],0.5552623999999469,1.966,1115.8828586,,,,,1003,21,Woman,Right,
,,,,,,,,,,,,,,,,,1003,21,Woman,Right,2,44,0.15,1,0,-,0,0.42279050000001916,['n'],1.4320886000000428,1.966,1119.8818316000002,,,,,1003,21,Woman,Right,
,,,,,,,,,,,,,,,,,1003,21,Woman,Right,2,63,0.15,2,180,0,0,0.6300656000000799,['y'],0.9921417999998994,1.966,1123.6328417999998,,,,,1003,21,Woman,Right,
,,,,,,,,,,,,,,,,,1003,21,Woman,Right,2,19,0.4,2,180,0,0,0.37657390000003943,['y'],0.9680243999998766,1.966,1127.2649680999998,,,,,1003,21,Woman,Right,
,,,,,,,,,,,,,,,,,1003,21,Woman,Right,2,29,0.4,2,0,180,180,0.5651476000000457,['n'],1.4640835000000152,1.966,1131.4165706999997,,,,,1003,21,Woman,Right,
,,,,,,,,,,,,,,,,,1003,21,Woman,Right,2,54,0.15,1,180,-,0,0.6292017000000669,['n'],1.384102700000085,1.966,1135.599639,,,,,1003,21,Woman,Right,
,,,,,,,,,,,,,,,,,1003,21,Woman,Right,2,18,0.4,1,180,-,180,0.41690300000004754,['n'],1.4077025000001413,1.966,1139.9828718999997,,,,,1003,21,Woman,Right,
,,,,,,,,,,,,,,,,,1003,21,Woman,Right,2,55,0.15,2,180,0,0,1.4489452000000256,['y'],0.8322706999999809,1.966,1144.3484775000002,,,,,1003,21,Woman,Right,
,,,,,,,,,,,,,,,,,1003,21,Woman,Right,2,38,0.4,1,180,-,180,1.0772996000000603,['n'],1.3761974999999893,1.966,1149.0821024000002,,,,,1003,21,Woman,Right,
,,,,,,,,,,,,,,,,,1003,21,Woman,Right,2,15,0.4,2,180,0,0,0.5756739000000834,['y'],1.0720404999999573,1.966,1152.7984701999999,,,,,1003,21,Woman,Right,
,,,,,,,,,,,,,,,,,1003,21,Woman,Right,2,69,0.15,2,0,180,0,0.7144106000000647,['n'],0.6159680999999182,1.966,1156.1984354,,,,,1003,21,Woman,Right,
,,,,,,,,,,,,,,,,,1003,21,Woman,Right,2,42,0.4,1,180,-,180,0.5593625999999858,['n'],0.6399160999999367,1.966,1159.5151228,,,,,1003,21,Woman,Right,
,,,,,,,,,,,,,,,,,1003,21,Woman,Right,2,3,1,2,180,0,0,0.35576819999982945,['y'],0.46405710000021827,1.966,1162.4984842999997,,,,,1003,21,Woman,Right,
,,,,,,,,,,,,,,,,,1003,21,Woman,Right,2,65,0.15,2,0,180,180,0.798051199999918,['n'],0.6315799000001334,1.966,1165.9989160999999,,,,,1003,21,Woman,Right,
,,,,,,,,,,,,,,,,,1003,21,Woman,Right,2,41,0.4,2,0,180,180,0.35346770000001015,['y'],0.4396561000000929,1.966,1168.8654155,,,,,1003,21,Woman,Right,
,,,,,,,,,,,,,,,,,1003,21,Woman,Right,2,28,0.4,1,0,-,0,1.2700973999999405,['y'],0.3277714000000742,1.966,1172.6003759,,,,,1003,21,Woman,Right,
,,,,,,,,,,,,,,,,,1003,21,Woman,Right,2,16,0.4,1,0,-,0,1.2312082000000828,['n'],0.6674986999998964,1.966,1176.5491432,,,,,1003,21,Woman,Right,
,,,,,,,,,,,,,,,,,1003,21,Woman,Right,2,47,0.15,2,180,0,180,0.5878936999999951,['y'],1.984144199999946,1.998,1181.4660122,,,,,1003,21,Woman,Right,
,,,,,,,,,,,,,,,,,1003,21,Woman,Right,2,46,0.15,1,180,-,180,0.9780822000000171,['y'],4.5916597000000365,1.892,1189.0506187,,,,,1003,21,Woman,Right,
,,,,,,,,,,,,,,,,,1003,21,Woman,Right,2,37,0.4,2,0,180,180,0.5322355000000698,['y'],0.3756775000001653,1.978,1192.1666873999998,,,,,1003,21,Woman,Right,
,,,,,,,,,,,,,,,,,1003,21,Woman,Right,2,1,1,2,0,180,180,0.24473820000002888,['y'],0.5678166000000147,1.958,1195.0336016,,,,,1003,21,Woman,Right,
,,,,,,,,,,,,,,,,,1003,21,Woman,Right,2,50,0.15,1,180,-,0,0.641569299999901,['n'],0.8966268000001492,1.958,1198.5830753999999,,,,,1003,21,Woman,Right,
,,,,,,,,,,,,,,,,,1003,21,Woman,Right,2,64,0.15,1,0,-,0,2.0980799999999817,['n'],1.1277979999999843,1.948,1203.9325957,,,,,1003,21,Woman,Right,
,,,,,,,,,,,,,,,,,1003,21,Woman,Right,2,48,0.15,1,0,-,180,0.7811687999999322,['n'],0.8077023999999255,1.96,1207.5319583,,,,,1003,21,Woman,Right,
,,,,,,,,,,,,,,,,,1003,21,Woman,Right,2,59,0.15,2,180,0,0,0.5915899000001446,['n'],0.5998945000001186,1.958,1210.8149044000002,,,,,1003,21,Woman,Right,
,,,,,,,,,,,,,,,,,1003,21,Woman,Right,2,33,0.4,2,0,180,180,1.2825062000001708,['y'],0.7836913999999524,1.994,1214.9820117,,,,,1003,21,Woman,Right,
,,,,,,,,,,,,,,,,,1003,21,Woman,Right,2,73,0.15,2,0,180,180,0.8358204999999543,['n'],0.9678653999999369,1.962,1218.8488336,,,,,1003,21,Woman,Right,
,,,,,,,,,,,,,,,,,1003,21,Woman,Right,2,39,0.4,2,180,0,180,0.6981815000001461,['y'],0.38342710000006264,1.966,1222.2334833999998,,,,,1003,21,Woman,Right,
,,,,,,,,,,,,,,,,,1003,21,Woman,Right,2,30,0.4,1,180,-,180,0.8201146999999764,['y'],0.4793224999998529,1.974,1225.5499378,,,,,1003,21,Woman,Right,
,,,,,,,,,,,,,,,,,1003,21,Woman,Right,2,77,0.15,2,0,180,0,0.7413987999998426,['n'],0.8080758999999489,1.974,1229.1817808,,,,,1003,21,Woman,Right,
,,,,,,,,,,,,,,,,,1003,21,Woman,Right,2,68,0.15,1,0,-,0,1.444630400000051,['n'],0.7922283000000334,1.974,1233.4319004,,,,,1003,21,Woman,Right,
,,,,,,,,,,,,,,,,,1003,21,Woman,Right,2,66,0.15,1,180,-,0,1.1478801000000658,['n'],0.5892097999999351,1.974,1237.1997255,,,,,1003,21,Woman,Right,
,,,,,,,,,,,,,,,,,1003,21,Woman,Right,2,25,0.4,2,0,180,180,0.38663470000005873,['y'],0.4159912999998596,1.974,1240.0651429999998,,,,,1003,21,Woman,Right,
,,,,,,,,,,,,,,,,,1003,21,Woman,Right,2,40,0.4,1,0,-,0,0.415175999999974,['n'],0.9281464000000597,1.974,1243.5324105999998,,,,,1003,21,Woman,Right,
,,,,,,,,,,,,,,,,,1003,21,Woman,Right,2,6,1,1,180,-,180,0.2776071000000684,['y'],0.29602509999995164,1.974,1246.1987241000002,,,,,1003,21,Woman,Right,
,,,,,,,,,,,,,,,,,1003,21,Woman,Right,2,58,0.15,1,180,-,0,0.37083289999986846,['n'],0.6240286999998261,1.974,1249.266219,,,,,1003,21,Woman,Right,
,,,,,,,,,,,,,,,,,1003,21,Woman,Right,2,26,0.4,1,180,-,180,0.3147139000000152,['y'],0.23221650000004956,1.974,1251.8151558999998,,,,,1003,21,Woman,Right,
,,,,,,,,,,,,,,,,,1003,21,Woman,Right,2,35,0.4,2,180,0,0,0.28951549999987947,['y'],0.3520101000001432,1.974,1255.0151184000001,,,,,1003,21,Woman,Right,
,,,,,,,,,,,,,,,,,1003,21,Woman,Right,2,23,0.4,2,180,0,0,0.47566630000005716,['y'],0.3759176999999454,1.974,1257.8484113,,,,,1003,21,Woman,Right,
,,,,,,,,,,,,,,,,,1003,21,Woman,Right,2,75,0.15,2,180,0,0,0.9975670999999693,['y'],0.31200349999994614,1.974,1261.4488078999998,,,,,1003,21,Woman,Right,
,,,,,,,,,,,,,,,,,1003,21,Woman,Right,2,70,0.15,1,180,-,180,0.850541099999873,['n'],0.7439335999999912,1.974,1265.1148008999999,,,,,1003,21,Woman,Right,
,,,,,,,,,,,,,,,,,1003,21,Woman,Right,2,72,0.15,1,0,-,180,0.4242071999997279,['n'],0.7519688000002134,1.974,1268.2983289,,,,,1003,21,Woman,Right,
,,,,,,,,,,,,,,,,,1003,21,Woman,Right,2,21,0.4,2,0,180,180,0.2552212000000509,['y'],0.4400282999999945,1.974,1271.0498948,,,,,1003,21,Woman,Right,
,,,,,,,,,,,,,,,,,1003,21,Woman,Right,2,31,0.4,2,180,0,0,0.32829460000039035,['y'],0.3920165999998062,1.974,1273.8324504000002,,,,,1003,21,Woman,Right,
,,,,,,,,,,,,,,,,,1003,21,Woman,Right,2,76,0.15,1,0,-,0,0.5602579999999762,['y'],0.45635100000026796,1.974,1276.8985416,,,,,1003,21,Woman,Right,
,,,,,,,,,,,,,,,,,1003,21,Woman,Right,2,32,0.4,1,0,-,0,0.36770160000014585,['n'],0.536191300000155,1.974,1279.8165549,,,,,1003,21,Woman,Right,
,,,,,,,,,,,,,,,,,1003,21,Woman,Right,2,53,0.15,2,0,180,0,1.1936341000000539,['n'],0.56802209999978,1.974,1283.731484,,,,,1003,21,Woman,Right,
,,,,,,,,,,,,,,,,,1003,21,Woman,Right,2,78,0.15,1,180,-,180,0.887738100000206,['n'],0.24790459999985615,1.972,1286.8989405000002,,,,,1003,21,Woman,Right,
,,,,,,,,,,,,,,,,,1003,21,Woman,Right,2,8,0.4,1,0,-,0,0.24954990000014732,['y'],0.4080966999999873,1.972,1289.6331487000002,,,,,1003,21,Woman,Right,
,,,,,,,,,,,,,,,,,1003,21,Woman,Right,2,12,0.4,1,0,-,180,0.6377307000002475,['y'],0.5842142999999851,1.972,1292.7324345000002,,,,,1003,21,Woman,Right,
,,,,,,,,,,,,,,,,,1003,21,Woman,Right,2,71,0.15,2,180,0,0,1.181061199999931,['n'],0.5380060000002231,1.972,1296.4154211,,,,,1003,21,Woman,Right,
,,,,,,,,,,,,,,,,,1003,21,Woman,Right,2,5,1,2,0,180,180,0.29907989999992424,['y'],0.2718262999997023,1.96,1299.0162850000002,,,,,1003,21,Woman,Right,
,,,,,,,,,,,,,,,,,1003,21,Woman,Right,2,57,0.15,2,0,180,180,1.1359407999998439,['n'],0.5592729999998483,1.946,1302.5984447,,,,,1003,21,Woman,Right,
,,,,,,,,,,,,,,,,,1003,21,Woman,Right,2,67,0.15,2,180,0,0,0.5815489999999954,['y'],0.29375930000014705,1.974,1305.4999557,,,,,1003,21,Woman,Right,
,,,,,,,,,,,,,,,,,1003,21,Woman,Right,3,79,0.15,2,180,0,180,2.2040514000000258,['y'],0.5997596000001977,2.0,1332.6650321000002,660.0,62.5,67.5,,1003,21,Woman,Right,
,,,,,,,,,,,,,,,,,1003,21,Woman,Right,3,25,0.4,2,0,180,180,1.0183161999998447,['y'],0.3029788999997436,1.996,1336.0324745000003,,,,,1003,21,Woman,Right,
,,,,,,,,,,,,,,,,,1003,21,Woman,Right,3,24,0.4,1,0,-,0,0.5099375999998301,['n'],0.6883385999999518,1.996,1339.4984727,,,,,1003,21,Woman,Right,
,,,,,,,,,,,,,,,,,1003,21,Woman,Right,3,9,0.4,2,0,180,180,0.35408060000008845,['y'],0.256063499999982,1.996,1342.2491218,,,,,1003,21,Woman,Right,
,,,,,,,,,,,,,,,,,1003,21,Woman,Right,3,52,0.15,1,0,-,0,0.6949143000001641,['y'],0.9037812999999915,1.996,1345.9162854,,,,,1003,21,Woman,Right,
,,,,,,,,,,,,,,,,,1003,21,Woman,Right,3,71,0.15,2,180,0,180,0.4899728000000323,['y'],0.7040705000003982,1.996,1349.0334280000002,,,,,1003,21,Woman,Right,
,,,,,,,,,,,,,,,,,1003,21,Woman,Right,3,60,0.15,1,0,-,180,2.404794899999615,['n'],3.4798813000002156,1.996,1357.1157081000001,,,,,1003,21,Woman,Right,
,,,,,,,,,,,,,,,,,1003,21,Woman,Right,3,36,0.4,1,0,-,0,0.8650554000000739,['n'],1.376318000000083,1.996,1361.5823696000002,,,,,1003,21,Woman,Right,
,,,,,,,,,,,,,,,,,1003,21,Woman,Right,3,63,0.15,2,180,0,0,1.9432685000001584,['y'],0.31138759999976173,1.984,1365.8315718,,,,,1003,21,Woman,Right,
,,,,,,,,,,,,,,,,,1003,21,Woman,Right,3,18,0.4,1,180,-,180,0.5598884999999427,['n'],0.6238594999999805,1.984,1369.0655637,,,,,1003,21,Woman,Right,
,,,,,,,,,,,,,,,,,1003,21,Woman,Right,3,27,0.4,2,180,0,0,0.33999409999978525,['y'],0.6880329999999049,1.976,1372.0820459000001,,,,,1003,21,Woman,Right,
,,,,,,,,,,,,,,,,,1003,21,Woman,Right,3,62,0.15,1,180,-,180,0.4360654000001887,['n'],0.5762107000000469,1.976,1375.0820167000002,,,,,1003,21,Woman,Right,
,,,,,,,,,,,,,,,,,1003,21,Woman,Right,3,10,0.4,1,180,-,180,0.3200347000001784,['n'],0.6001253999997971,1.976,1378.1158498,,,,,1003,21,Woman,Right,
,,,,,,,,,,,,,,,,,1003,21,Woman,Right,3,48,0.15,1,0,-,0,1.5940861000003679,['n'],0.7835900000000038,1.98,1382.5162645999999,,,,,1003,21,Woman,Right,
,,,,,,,,,,,,,,,,,1003,21,Woman,Right,3,2,1,1,180,-,180,0.5102867000000515,['n'],0.7440389000003051,1.98,1385.9481439,,,,,1003,21,Woman,Right,
,,,,,,,,,,,,,,,,,1003,21,Woman,Right,3,54,0.15,1,180,-,180,1.0941791000000194,['n'],0.648309799999879,1.98,1389.7332835000002,,,,,1003,21,Woman,Right,
,,,,,,,,,,,,,,,,,1003,21,Woman,Right,3,45,0.15,2,0,180,180,0.5558601000002454,['y'],0.4715731000001142,1.974,1394.1166200000002,,,,,1003,21,Woman,Right,
,,,,,,,,,,,,,,,,,1003,21,Woman,Right,3,76,0.15,1,0,-,180,1.768768700000237,['n'],0.5364138999998431,1.974,1398.548143,,,,,1003,21,Woman,Right,
,,,,,,,,,,,,,,,,,1003,21,Woman,Right,3,3,1,2,180,0,0,0.2478889000003619,['y'],0.448024599999826,1.974,1401.1980107,,,,,1003,21,Woman,Right,
,,,,,,,,,,,,,,,,,1003,21,Woman,Right,3,64,0.15,1,0,-,0,0.9408889000001182,['n'],0.2639122000000498,1.974,1404.4987618,,,,,1003,21,Woman,Right,
,,,,,,,,,,,,,,,,,1003,21,Woman,Right,3,29,0.4,2,0,180,180,0.47349060000033205,['y'],0.6800846000001002,1.974,1407.6330009000003,,,,,1003,21,Woman,Right,
,,,,,,,,,,,,,,,,,1003,21,Woman,Right,3,57,0.15,2,0,180,180,0.7084946999998465,['n'],0.5199726999999257,1.974,1410.8324729,,,,,1003,21,Woman,Right,
,,,,,,,,,,,,,,,,,1003,21,Woman,Right,3,51,0.15,2,180,0,0,1.1374829000001228,['y'],0.7921000000001186,1.964,1415.2151859,,,,,1003,21,Woman,Right,
,,,,,,,,,,,,,,,,,1003,21,Woman,Right,3,59,0.15,2,180,0,180,0.5315067999999883,['n'],0.40961330000027374,1.964,1418.2312350000002,,,,,1003,21,Woman,Right,
,,,,,,,,,,,,,,,,,1003,21,Woman,Right,3,12,0.4,1,0,-,0,0.8370466000001215,['n'],0.7603366000003007,1.964,1421.9488467,,,,,1003,21,Woman,Right,
,,,,,,,,,,,,,,,,,1003,21,Woman,Right,3,42,0.4,1,180,-,180,0.658520800000133,['n'],0.9358680999998796,2.0,1425.7824696000002,,,,,1003,21,Woman,Right,
,,,,,,,,,,,,,,,,,1003,21,Woman,Right,3,67,0.15,2,180,0,180,1.7495967999998356,['n'],0.647699300000113,2.0,1430.1830385000003,,,,,1003,21,Woman,Right,
,,,,,,,,,,,,,,,,,1003,21,Woman,Right,3,77,0.15,2,0,180,0,0.7570799999998599,['n'],0.6484538999998222,2.0,1433.6166031000002,,,,,1003,21,Woman,Right,
,,,,,,,,,,,,,,,,,1003,21,Woman,Right,3,44,0.15,1,0,-,0,0.5574285000002419,['n'],0.503809000000274,1.986,1436.6981487000003,,,,,1003,21,Woman,Right,
,,,,,,,,,,,,,,,,,1003,21,Woman,Right,3,41,0.4,2,0,180,180,0.3630699000000277,['y'],0.6314698000001044,1.984,1439.6815961000002,,,,,1003,21,Woman,Right,
,,,,,,,,,,,,,,,,,1003,21,Woman,Right,3,74,0.15,1,180,-,180,0.3316583000000719,['n'],0.8480237999997371,1.984,1442.8323937999999,,,,,1003,21,Woman,Right,
,,,,,,,,,,,,,,,,,1003,21,Woman,Right,3,16,0.4,1,0,-,0,0.44304390000024796,['n'],0.5680728999996063,1.984,1445.881191,,,,,1003,21,Woman,Right,
,,,,,,,,,,,,,,,,,1003,21,Woman,Right,3,35,0.4,2,180,0,0,0.3367385999999897,['y'],0.42425669999965976,1.984,1448.6315294,,,,,1003,21,Woman,Right,
,,,,,,,,,,,,,,,,,1003,21,Woman,Right,3,33,0.4,2,0,180,180,0.6549498999997923,['y'],0.3198750999999902,1.984,1451.4989977999999,,,,,1003,21,Woman,Right,
,,,,,,,,,,,,,,,,,1003,21,Woman,Right,3,30,0.4,1,180,-,180,0.9077722000001813,['n'],1.5600650999999743,1.984,1455.8998365000002,,,,,1003,21,Woman,Right,
,,,,,,,,,,,,,,,,,1003,21,Woman,Right,3,1,1,2,0,180,180,0.35321490000023914,['y'],0.67211559999987,1.984,1458.9145896,,,,,1003,21,Woman,Right,
,,,,,,,,,,,,,,,,,1003,21,Woman,Right,3,22,0.4,1,180,-,180,0.4984334000000672,['n'],0.47202659999993557,1.984,1461.8487734999999,,,,,1003,21,Woman,Right,
,,,,,,,,,,,,,,,,,1003,21,Woman,Right,3,61,0.15,2,0,180,0,1.2128772000000936,['n'],0.3280589000000873,1.984,1465.414655,,,,,1003,21,Woman,Right,
,,,,,,,,,,,,,,,,,1003,21,Woman,Right,3,75,0.15,2,180,0,180,0.6953106999999363,['n'],0.31190069999956904,1.984,1468.3311398,,,,,1003,21,Woman,Right,
,,,,,,,,,,,,,,,,,1003,21,Woman,Right,3,14,0.4,1,180,-,180,0.8874565000000985,['y'],0.20804980000002615,1.984,1472.0660997,,,,,1003,21,Woman,Right,
,,,,,,,,,,,,,,,,,1003,21,Woman,Right,3,26,0.4,1,180,-,180,0.5158667000000605,['n'],0.4679329000000507,1.974,1476.7664137000002,,,,,1003,21,Woman,Right,
,,,,,,,,,,,,,,,,,1003,21,Woman,Right,3,21,0.4,2,0,180,180,1.2318344000000252,['y'],0.45593979999966905,1.974,1480.4332608,,,,,1003,21,Woman,Right,
,,,,,,,,,,,,,,,,,1003,21,Woman,Right,3,6,1,1,180,-,180,0.6203244000002996,['n'],0.5841338999998698,1.974,1483.6481654,,,,,1003,21,Woman,Right,
,,,,,,,,,,,,,,,,,1003,21,Woman,Right,3,34,0.4,1,180,-,180,0.30816279999999097,['n'],1.0484003999999914,1.974,1487.3665348,,,,,1003,21,Woman,Right,
,,,,,,,,,,,,,,,,,1003,21,Woman,Right,3,68,0.15,1,0,-,0,0.7680075999996916,['n'],0.4640498999997362,1.974,1490.7321948,,,,,1003,21,Woman,Right,
,,,,,,,,,,,,,,,,,1003,21,Woman,Right,3,53,0.15,2,0,180,180,0.5545329999999922,['n'],0.4880238000000645,1.974,1493.9827834000002,,,,,1003,21,Woman,Right,
,,,,,,,,,,,,,,,,,1003,21,Woman,Right,3,7,1,2,180,0,0,0.24589649999961694,['y'],0.5761942000003728,1.974,1496.8164335000001,,,,,1003,21,Woman,Right,
,,,,,,,,,,,,,,,,,1003,21,Woman,Right,3,49,0.15,2,0,180,180,0.7332633999999416,['y'],0.3763573000001088,1.974,1499.9827553999999,,,,,1003,21,Woman,Right,
,,,,,,,,,,,,,,,,,1003,21,Woman,Right,3,28,0.4,1,0,-,0,0.8878924999999072,['n'],0.7359722000001057,1.974,1504.8161285,,,,,1003,21,Woman,Right,
,,,,,,,,,,,,,,,,,1003,21,Woman,Right,3,4,1,1,0,-,0,0.2792293000002246,['n'],0.7595700000001671,2.0,1507.8490198,,,,,1003,21,Woman,Right,
,,,,,,,,,,,,,,,,,1003,21,Woman,Right,3,46,0.15,1,180,-,180,0.9381376000001183,['n'],0.7516367000002901,2.0,1511.8315539,,,,,1003,21,Woman,Right,
,,,,,,,,,,,,,,,,,1003,21,Woman,Right,3,65,0.15,2,0,180,180,1.0851702999998452,['y'],0.19938559999991412,1.994,1515.0988683,,,,,1003,21,Woman,Right,
,,,,,,,,,,,,,,,,,1003,21,Woman,Right,3,50,0.15,1,180,-,180,3.4676078000002235,['n'],0.5202392000001055,1.99,1521.0313076000002,,,,,1003,21,Woman,Right,
,,,,,,,,,,,,,,,,,1003,21,Woman,Right,3,17,0.4,2,0,180,180,0.42624949999981254,['y'],0.3754857999997512,1.988,1523.8980609999999,,,,,1003,21,Woman,Right,
,,,,,,,,,,,,,,,,,1003,21,Woman,Right,3,78,0.15,1,180,-,0,0.6176173000003473,['n'],0.5921576999999161,1.988,1527.1146515,,,,,1003,21,Woman,Right,
,,,,,,,,,,,,,,,,,1003,21,Woman,Right,3,37,0.4,2,0,180,180,0.4893165000003137,['y'],0.2880254000001514,1.988,1529.9646715,,,,,1003,21,Woman,Right,
,,,,,,,,,,,,,,,,,1003,21,Woman,Right,3,58,0.15,1,180,-,0,0.4581889000000956,['n'],0.5360559000000649,1.988,1532.9812702,,,,,1003,21,Woman,Right,
,,,,,,,,,,,,,,,,,1003,21,Woman,Right,3,0,1,1,0,-,0,0.6542612999996891,['n'],0.9760555999996541,1.988,1536.9494507,,,,,1003,21,Woman,Right,
,,,,,,,,,,,,,,,,,1003,21,Woman,Right,3,31,0.4,2,180,0,0,0.3643632999996953,['y'],0.5840978000001087,1.988,1540.6332883,,,,,1003,21,Woman,Right,
,,,,,,,,,,,,,,,,,1003,21,Woman,Right,3,32,0.4,1,0,-,0,0.6867594999998801,['n'],0.4640214000000924,1.988,1544.1813980000002,,,,,1003,21,Woman,Right,
,,,,,,,,,,,,,,,,,1003,21,Woman,Right,3,38,0.4,1,180,-,180,1.7009256999999707,['n'],0.73602609999989,1.988,1548.6654267,,,,,1003,21,Woman,Right,
,,,,,,,,,,,,,,,,,1003,21,Woman,Right,3,23,0.4,2,180,0,0,0.4268889999998464,['y'],0.4400940000000446,1.988,1551.6314322000003,,,,,1003,21,Woman,Right,
,,,,,,,,,,,,,,,,,1003,21,Woman,Right,3,55,0.15,2,180,0,0,2.5345854000001964,['y'],0.2720764999999119,1.976,1556.4328856000002,,,,,1003,21,Woman,Right,
,,,,,,,,,,,,,,,,,1003,21,Woman,Right,3,19,0.4,2,180,0,0,0.4143423000000439,['y'],0.23209399999996094,1.97,1559.0819838000002,,,,,1003,21,Woman,Right,
,,,,,,,,,,,,,,,,,1003,21,Woman,Right,3,8,0.4,1,0,-,0,0.23738200000025245,['n'],0.9920489999999518,1.968,1562.6320049,,,,,1003,21,Woman,Right,
,,,,,,,,,,,,,,,,,1003,21,Woman,Right,3,72,0.15,1,0,-,0,0.43183360000011817,['n'],0.5679605000000265,1.968,1566.0479696000002,,,,,1003,21,Woman,Right,
,,,,,,,,,,,,,,,,,1003,21,Woman,Right,3,56,0.15,1,0,-,180,1.2780514000000949,['n'],0.27209220000031564,1.968,1569.5994214000002,,,,,1003,21,Woman,Right,
,,,,,,,,,,,,,,,,,1003,21,Woman,Right,3,70,0.15,1,180,-,180,0.5756546000002345,['n'],0.4554521999998542,1.984,1573.148365,,,,,1003,21,Woman,Right,
,,,,,,,,,,,,,,,,,1003,21,Woman,Right,3,39,0.4,2,180,0,0,0.27772079999976995,['y'],0.3600533999997424,1.978,1575.915583,,,,,1003,21,Woman,Right,
,,,,,,,,,,,,,,,,,1003,21,Woman,Right,3,40,0.4,1,0,-,0,0.5313869999999952,['n'],0.3437721000000238,1.974,1578.8321044,,,,,1003,21,Woman,Right,
,,,,,,,,,,,,,,,,,1003,21,Woman,Right,3,66,0.15,1,180,-,180,0.493566600000122,['n'],0.2882377999999335,1.974,1581.8163544,,,,,1003,21,Woman,Right,
,,,,,,,,,,,,,,,,,1003,21,Woman,Right,3,43,0.4,2,180,0,0,0.26898539999956483,['y'],0.32012019999956465,1.974,1584.4985709000002,,,,,1003,21,Woman,Right,
,,,,,,,,,,,,,,,,,1003,21,Woman,Right,3,11,0.4,2,180,0,0,0.25859310000032565,['y'],0.21612240000013117,1.974,1587.0319261,,,,,1003,21,Woman,Right,
,,,,,,,,,,,,,,,,,1003,21,Woman,Right,3,73,0.15,2,0,180,0,0.7097745999999461,['n'],0.2880299999997078,1.974,1590.0477882,,,,,1003,21,Woman,Right,
,,,,,,,,,,,,,,,,,1003,21,Woman,Right,3,47,0.15,2,180,0,0,0.34966910000002827,['n'],0.7839542000001529,1.974,1593.3813422000003,,,,,1003,21,Woman,Right,
,,,,,,,,,,,,,,,,,1003,21,Woman,Right,3,69,0.15,2,0,180,0,0.4786303000000771,['n'],0.3922787999999855,1.974,1596.3313633000002,,,,,1003,21,Woman,Right,
,,,,,,,,,,,,,,,,,1003,21,Woman,Right,3,20,0.4,1,0,-,0,0.19128170000021782,['y'],0.8479961000002731,1.974,1599.7658995000002,,,,,1003,21,Woman,Right,
,,,,,,,,,,,,,,,,,1003,21,Woman,Right,3,13,0.4,2,0,180,180,1.6647828999998637,['y'],0.1902535999997781,1.974,1604.4323370000002,,,,,1003,21,Woman,Right,
,,,,,,,,,,,,,,,,,1003,21,Woman,Right,3,15,0.4,2,180,0,0,0.36562309999999343,['y'],0.3360431000000972,1.952,1607.3477605000003,,,,,1003,21,Woman,Right,
,,,,,,,,,,,,,,,,,1003,21,Woman,Right,3,5,1,2,0,180,180,0.6944864999995843,['y'],0.24753480000026684,1.996,1610.6311856000002,,,,,1003,21,Woman,Right,
,,,,,,,,,,,,,,,,,1003,21,Woman,Right,4,24,0.4,1,0,-,0,0.974713900000097,['n'],0.2874656999997569,1.942,1629.1313187,660.0,92.5,75.0,,1003,21,Woman,Right,
,,,,,,,,,,,,,,,,,1003,21,Woman,Right,4,27,0.4,2,180,0,0,0.4845053000003645,['y'],0.319629999999961,1.974,1632.0646341000001,,,,,1003,21,Woman,Right,
,,,,,,,,,,,,,,,,,1003,21,Woman,Right,4,26,0.4,1,180,-,180,0.7885052000001451,['n'],0.6633240999999543,1.964,1635.5813413,,,,,1003,21,Woman,Right,
,,,,,,,,,,,,,,,,,1003,21,Woman,Right,4,7,1,2,180,0,0,0.23901100000011866,['y'],0.2480786999999509,1.978,1638.1979618,,,,,1003,21,Woman,Right,
,,,,,,,,,,,,,,,,,1003,21,Woman,Right,4,56,0.15,1,0,-,0,1.2101005999998051,['n'],0.3354141999998319,1.978,1641.8477714,,,,,1003,21,Woman,Right,
,,,,,,,,,,,,,,,,,1003,21,Woman,Right,4,33,0.4,2,0,180,180,0.38942720000022746,['y'],0.2319987000000765,1.98,1644.5475654000002,,,,,1003,21,Woman,Right,
,,,,,,,,,,,,,,,,,1003,21,Woman,Right,4,19,0.4,2,180,0,0,0.6315720999996302,['y'],0.21565689999988535,1.962,1647.4478973,,,,,1003,21,Woman,Right,
,,,,,,,,,,,,,,,,,1003,21,Woman,Right,4,49,0.15,2,0,180,0,0.8058782999996765,['n'],0.38360240000019985,1.954,1650.6657662000002,,,,,1003,21,Woman,Right,
,,,,,,,,,,,,,,,,,1003,21,Woman,Right,4,63,0.15,2,180,0,180,0.5744337999999516,['n'],0.5272606999997151,1.96,1653.7983973,,,,,1003,21,Woman,Right,
,,,,,,,,,,,,,,,,,1003,21,Woman,Right,4,68,0.15,1,0,-,0,0.7504129000003559,['n'],0.3917787000000317,1.942,1656.9325237000003,,,,,1003,21,Woman,Right,
,,,,,,,,,,,,,,,,,1003,21,Woman,Right,4,78,0.15,1,180,-,180,0.39994430000024295,['n'],0.5515368999999737,1.98,1659.9478425000002,,,,,1003,21,Woman,Right,
,,,,,,,,,,,,,,,,,1003,21,Woman,Right,4,30,0.4,1,180,-,180,0.4642398000000867,['n'],0.5119755000000623,1.98,1662.9482916000002,,,,,1003,21,Woman,Right,
,,,,,,,,,,,,,,,,,1003,21,Woman,Right,4,16,0.4,1,0,-,0,0.4458537000000433,['y'],0.22370480000017778,1.968,1665.6979217000003,,,,,1003,21,Woman,Right,
,,,,,,,,,,,,,,,,,1003,21,Woman,Right,4,75,0.15,2,180,0,0,0.6313072999996621,['y'],0.21579659999997602,1.968,1669.4491717,,,,,1003,21,Woman,Right,
,,,,,,,,,,,,,,,,,1003,21,Woman,Right,4,70,0.15,1,180,-,180,0.7813875000001644,['n'],0.28800649999993766,1.968,1672.4662604,,,,,1003,21,Woman,Right,
,,,,,,,,,,,,,,,,,1003,21,Woman,Right,4,21,0.4,2,0,180,180,0.6902237999997851,['y'],0.17610259999992195,1.968,1675.3647297000002,,,,,1003,21,Woman,Right,
,,,,,,,,,,,,,,,,,1003,21,Woman,Right,4,36,0.4,1,0,-,0,0.3376175999997031,['n'],0.415902300000198,1.968,1678.1481849000002,,,,,1003,21,Woman,Right,
,,,,,,,,,,,,,,,,,1003,21,Woman,Right,4,54,0.15,1,180,-,180,3.312593300000117,['n'],0.9273054999998749,1.98,1684.3644356,,,,,1003,21,Woman,Right,
,,,,,,,,,,,,,,,,,1003,21,Woman,Right,4,59,0.15,2,180,0,0,0.7583988999999747,['n'],0.2791489000001093,1.978,1687.4653665,,,,,1003,21,Woman,Right,
,,,,,,,,,,,,,,,,,1003,21,Woman,Right,4,47,0.15,2,180,0,0,2.347493199999917,['y'],1.4553024000001642,1.974,1693.281132,,,,,1003,21,Woman,Right,
,,,,,,,,,,,,,,,,,1003,21,Woman,Right,4,69,0.15,2,0,180,0,2.018761099999665,['y'],0.7755864999999176,1.97,1698.0651463,,,,,1003,21,Woman,Right,
,,,,,,,,,,,,,,,,,1003,21,Woman,Right,4,66,0.15,1,180,-,180,0.8026829999998881,['y'],0.4641189000003578,1.97,1701.3320931000003,,,,,1003,21,Woman,Right,
,,,,,,,,,,,,,,,,,1003,21,Woman,Right,4,29,0.4,2,0,180,180,1.3207475999997769,['y'],0.20831289999978253,1.97,1704.8329749,,,,,1003,21,Woman,Right,
,,,,,,,,,,,,,,,,,1003,21,Woman,Right,4,76,0.15,1,0,-,0,2.2297914000000674,['y'],0.6241554999996879,1.97,1709.6482547,,,,,1003,21,Woman,Right,
,,,,,,,,,,,,,,,,,1003,21,Woman,Right,4,73,0.15,2,0,180,180,0.4597223999999187,['y'],0.18408510000017486,1.97,1712.2644341,,,,,1003,21,Woman,Right,
,,,,,,,,,,,,,,,,,1003,21,Woman,Right,4,79,0.15,2,180,0,0,1.2998317999999927,['y'],0.1840978999998697,1.97,1716.3165801999999,,,,,1003,21,Woman,Right,
,,,,,,,,,,,,,,,,,1003,21,Woman,Right,4,43,0.4,2,180,0,0,3.0323542999999518,['y'],0.2420241999998325,1.97,1721.8310572,,,,,1003,21,Woman,Right,
,,,,,,,,,,,,,,,,,1003,21,Woman,Right,4,10,0.4,1,180,-,180,1.0491151000001082,['n'],0.31019489999971483,1.97,1725.297759,,,,,1003,21,Woman,Right,
,,,,,,,,,,,,,,,,,1003,21,Woman,Right,4,55,0.15,2,180,0,0,3.12235469999996,['n'],0.3754468000001907,1.964,1730.7976867000002,,,,,1003,21,Woman,Right,
,,,,,,,,,,,,,,,,,1003,21,Woman,Right,4,44,0.15,1,0,-,180,1.4593188999997437,['n'],1.375493600000027,1.942,1735.7974668000002,,,,,1003,21,Woman,Right,
,,,,,,,,,,,,,,,,,1003,21,Woman,Right,4,15,0.4,2,180,0,0,2.871751900000163,['y'],0.25623029999997016,1.942,1740.8827440999999,,,,,1003,21,Woman,Right,
,,,,,,,,,,,,,,,,,1003,21,Woman,Right,4,25,0.4,2,0,180,180,0.42850700000008146,['y'],0.44790899999998146,1.94,1743.6819716,,,,,1003,21,Woman,Right,
,,,,,,,,,,,,,,,,,1003,21,Woman,Right,4,57,0.15,2,0,180,180,1.0684175999999752,['y'],0.5353860000000168,1.956,1747.2150826000002,,,,,1003,21,Woman,Right,
,,,,,,,,,,,,,,,,,1003,21,Woman,Right,4,65,0.15,2,0,180,180,0.765890500000296,['y'],0.3357661999998527,1.952,1750.2826962,,,,,1003,21,Woman,Right,
,,,,,,,,,,,,,,,,,1003,21,Woman,Right,4,50,0.15,1,180,-,180,3.8927631000001384,['n'],0.38331369999968956,1.942,1756.5160575,,,,,1003,21,Woman,Right,
,,,,,,,,,,,,,,,,,1003,21,Woman,Right,4,11,0.4,2,180,0,0,0.35894069999994827,['y'],0.29543439999997645,1.956,1759.2662744,,,,,1003,21,Woman,Right,
,,,,,,,,,,,,,,,,,1003,21,Woman,Right,4,77,0.15,2,0,180,180,1.218772899999749,['n'],0.26325580000002446,1.952,1762.8145789,,,,,1003,21,Woman,Right,
,,,,,,,,,,,,,,,,,1003,21,Woman,Right,4,61,0.15,2,0,180,180,0.6121642999996766,['y'],0.4240143000001808,1.952,1765.8656248000002,,,,,1003,21,Woman,Right,
,,,,,,,,,,,,,,,,,1003,21,Woman,Right,4,58,0.15,1,180,-,180,0.884254399999918,['n'],0.29594700000006924,1.952,1769.0663432000001,,,,,1003,21,Woman,Right,
,,,,,,,,,,,,,,,,,1003,21,Woman,Right,4,51,0.15,2,180,0,0,0.33934969999972964,['y'],0.2320478000001458,1.952,1771.6661432,,,,,1003,21,Woman,Right,
,,,,,,,,,,,,,,,,,1003,21,Woman,Right,4,13,0.4,2,0,180,180,0.6138535999998567,['y'],0.15146789999971588,1.95,1774.4325236,,,,,1003,21,Woman,Right,
,,,,,,,,,,,,,,,,,1003,21,Woman,Right,4,5,1,2,0,180,180,0.4385378000001765,['y'],0.17559159999973417,1.948,1777.0819692,,,,,1003,21,Woman,Right,
,,,,,,,,,,,,,,,,,1003,21,Woman,Right,4,53,0.15,2,0,180,0,0.6316680999998425,['n'],0.39900319999969724,1.948,1780.0826835000003,,,,,1003,21,Woman,Right,
,,,,,,,,,,,,,,,,,1003,21,Woman,Right,4,23,0.4,2,180,0,0,0.36330089999955817,['y'],0.25535519999993994,1.946,1782.6986700000002,,,,,1003,21,Woman,Right,
,,,,,,,,,,,,,,,,,1003,21,Woman,Right,4,64,0.15,1,0,-,180,0.4642573999999513,['n'],0.46819349999987026,1.946,1785.6316419,,,,,1003,21,Woman,Right,
,,,,,,,,,,,,,,,,,1003,21,Woman,Right,4,12,0.4,1,0,-,0,0.549238399999922,['n'],1.0472829000000274,1.974,1789.6639383000002,,,,,1003,21,Woman,Right,
,,,,,,,,,,,,,,,,,1003,21,Woman,Right,4,14,0.4,1,180,-,180,1.2923605000000862,['n'],0.25554190000002563,1.984,1793.2993482000002,,,,,1003,21,Woman,Right,
,,,,,,,,,,,,,,,,,1003,21,Woman,Right,4,72,0.15,1,0,-,180,0.6365502999997261,['n'],0.29567520000000513,1.974,1796.2480565,,,,,1003,21,Woman,Right,
,,,,,,,,,,,,,,,,,1003,21,Woman,Right,4,42,0.4,1,180,-,180,0.6473323999998684,['n'],0.2480078999997204,1.974,1799.3158392999999,,,,,1003,21,Woman,Right,
,,,,,,,,,,,,,,,,,1003,21,Woman,Right,4,67,0.15,2,180,0,0,0.5399600999999166,['y'],0.7355609000001095,1.958,1802.5662682000002,,,,,1003,21,Woman,Right,
,,,,,,,,,,,,,,,,,1003,21,Woman,Right,4,45,0.15,2,0,180,180,0.8739829999999529,['n'],0.4150703999998768,1.952,1806.0315944,,,,,1003,21,Woman,Right,
,,,,,,,,,,,,,,,,,1003,21,Woman,Right,4,6,1,1,180,-,180,0.8140113999997993,['n'],0.2874890000002779,1.98,1809.1153231000003,,,,,1003,21,Woman,Right,
,,,,,,,,,,,,,,,,,1003,21,Woman,Right,4,39,0.4,2,180,0,0,0.626164400000107,['y'],1.599442100000033,1.964,1813.3479475,,,,,1003,21,Woman,Right,
,,,,,,,,,,,,,,,,,1003,21,Woman,Right,4,60,0.15,1,0,-,0,0.889797499999986,['n'],0.5840272000000368,1.96,1816.8318090000002,,,,,1003,21,Woman,Right,
,,,,,,,,,,,,,,,,,1003,21,Woman,Right,4,18,0.4,1,180,-,180,0.37357380000003104,['n'],1.1840397999999368,1.96,1820.4660221,,,,,1003,21,Woman,Right,
,,,,,,,,,,,,,,,,,1003,21,Woman,Right,4,34,0.4,1,180,-,180,0.9341005000001132,['n'],0.383942300000399,1.96,1823.7161742000003,,,,,1003,21,Woman,Right,
,,,,,,,,,,,,,,,,,1003,21,Woman,Right,4,9,0.4,2,0,180,180,0.6091020000003482,['y'],0.28754539999999906,1.96,1823.7161742000003,,,,,1003,21,Woman,Right,
,,,,,,,,,,,,,,,,,1003,21,Woman,Right,4,37,0.4,2,0,180,180,0.5774834999997438,['y'],0.20779880000009143,1.948,1829.3649808999999,,,,,1003,21,Woman,Right,
,,,,,,,,,,,,,,,,,1003,21,Woman,Right,4,35,0.4,2,180,0,0,0.4009425999997802,['y'],0.5920478999996703,1.956,1832.3825824,,,,,1003,21,Woman,Right,
,,,,,,,,,,,,,,,,,1003,21,Woman,Right,4,22,0.4,1,180,-,180,0.5051710000002458,['n'],0.5833780000002662,1.96,1835.5828774000001,,,,,1003,21,Woman,Right,
,,,,,,,,,,,,,,,,,1003,21,Woman,Right,4,8,0.4,1,0,-,0,0.36531319999994594,['n'],0.5555604999999559,1.974,1838.5643705000002,,,,,1003,21,Woman,Right,
,,,,,,,,,,,,,,,,,1003,21,Woman,Right,4,3,1,2,180,0,0,0.2580849000000853,['y'],0.3993325999999797,1.97,1841.2488177,,,,,1003,21,Woman,Right,
,,,,,,,,,,,,,,,,,1003,21,Woman,Right,4,32,0.4,1,0,-,0,0.5112773999999263,['n'],0.33597809999992023,1.994,1844.1156217000002,,,,,1003,21,Woman,Right,
,,,,,,,,,,,,,,,,,1003,21,Woman,Right,4,31,0.4,2,180,0,0,1.2121124999998756,['y'],0.24783759999991162,1.992,1847.7149805,,,,,1003,21,Woman,Right,
,,,,,,,,,,,,,,,,,1003,21,Woman,Right,4,74,0.15,1,180,-,180,1.1963812999997572,['n'],0.2392760999996426,1.986,1851.4149668,,,,,1003,21,Woman,Right,
,,,,,,,,,,,,,,,,,1003,21,Woman,Right,4,1,1,2,0,180,180,0.23081869999987248,['y'],0.2239929999996093,2.0,1853.9152216000002,,,,,1003,21,Woman,Right,
,,,,,,,,,,,,,,,,,1003,21,Woman,Right,4,71,0.15,2,180,0,180,0.6351196999999047,['y'],0.15193559999988793,1.994,1856.7974410000002,,,,,1003,21,Woman,Right,
,,,,,,,,,,,,,,,,,1003,21,Woman,Right,4,17,0.4,2,0,180,180,0.6624311999999009,['y'],0.16010710000000472,1.994,1859.7146892,,,,,1003,21,Woman,Right,
,,,,,,,,,,,,,,,,,1003,21,Woman,Right,4,62,0.15,1,180,-,0,0.4997594999999819,['n'],0.6882233999999698,1.99,1863.2981130000003,,,,,1003,21,Woman,Right,
,,,,,,,,,,,,,,,,,1003,21,Woman,Right,4,40,0.4,1,0,-,0,0.44601890000012645,['n'],0.7038833000001432,1.976,1866.5814624,,,,,1003,21,Woman,Right,
,,,,,,,,,,,,,,,,,1003,21,Woman,Right,4,2,1,1,180,-,180,0.2624873999998272,['y'],0.20809579999968264,1.976,1869.7983305000002,,,,,1003,21,Woman,Right,
,,,,,,,,,,,,,,,,,1003,21,Woman,Right,4,20,0.4,1,0,-,0,0.9517090000003918,['n'],0.4795742999999675,1.988,1876.1485374,,,,,1003,21,Woman,Right,
,,,,,,,,,,,,,,,,,1003,21,Woman,Right,4,4,1,1,0,-,0,0.17626109999991968,['n'],0.9676337999999305,1.978,1879.9322779,,,,,1003,21,Woman,Right,
,,,,,,,,,,,,,,,,,1003,21,Woman,Right,4,52,0.15,1,0,-,180,0.5126549999999952,['n'],0.6475276999999551,1.97,1883.1492094,,,,,1003,21,Woman,Right,
,,,,,,,,,,,,,,,,,1003,21,Woman,Right,4,28,0.4,1,0,-,0,0.2875792999998339,['n'],0.5675493000003371,1.966,1886.3978333999999,,,,,1003,21,Woman,Right,
,,,,,,,,,,,,,,,,,1003,21,Woman,Right,4,48,0.15,1,0,-,0,0.3026636999998118,['n'],0.5920554999997876,1.976,1889.4977979999999,,,,,1003,21,Woman,Right,
,,,,,,,,,,,,,,,,,1003,21,Woman,Right,4,46,0.15,1,180,-,180,0.2683337999997093,['n'],0.40765200000032564,1.972,1892.2487059,,,,,1003,21,Woman,Right,
,,,,,,,,,,,,,,,,,1003,21,Woman,Right,4,0,1,1,0,-,0,0.34006270000008954,['n'],0.7438518999997541,1.974,1895.4820837000002,,,,,1003,21,Woman,Right,
,,,,,,,,,,,,,,,,,1003,21,Woman,Right,4,41,0.4,2,0,180,180,0.5401756999999634,['y'],0.3917404000003444,1.97,1898.4658053000003,,,,,1003,21,Woman,Right,
,,,,,,,,,,,,,,,,,1003,21,Woman,Right,4,38,0.4,1,180,-,180,0.3177824999997938,['n'],0.4876709000000119,1.954,1901.3316570000002,,,,,1003,21,Woman,Right,
,,,,,,,,,,,,,,,,,1003,21,Woman,Right,5,9,0.4,2,0,180,180,0.703847499999938,['y'],0.5517402999998922,1.984,1913.19846,700.0,90.0,82.5,,1003,21,Woman,Right,
,,,,,,,,,,,,,,,,,1003,21,Woman,Right,5,35,0.4,2,180,0,0,0.3913665000000037,['y'],0.2234045000000151,2.0,1915.9483673,,,,,1003,21,Woman,Right,
,,,,,,,,,,,,,,,,,1003,21,Woman,Right,5,78,0.15,1,180,-,180,0.4569808999999623,['y'],0.271639299999606,1.998,1921.0311292000001,,,,,1003,21,Woman,Right,
,,,,,,,,,,,,,,,,,1003,21,Woman,Right,5,79,0.15,2,180,0,180,0.5920984999997927,['n'],1.1439107999999578,1.98,1925.1322938000003,,,,,1003,21,Woman,Right,
,,,,,,,,,,,,,,,,,1003,21,Woman,Right,5,55,0.15,2,180,0,180,0.33989999999994325,['n'],0.3755977000000712,1.988,1927.9489355,,,,,1003,21,Woman,Right,
,,,,,,,,,,,,,,,,,1003,21,Woman,Right,5,52,0.15,1,0,-,0,0.46669870000005176,['n'],0.7841960000000654,1.988,1931.2149223000001,,,,,1003,21,Woman,Right,
,,,,,,,,,,,,,,,,,1003,21,Woman,Right,5,69,0.15,2,0,180,180,0.25560819999964224,['n'],0.42408720000003086,1.988,1934.0818324000002,,,,,1003,21,Woman,Right,
,,,,,,,,,,,,,,,,,1003,21,Woman,Right,5,17,0.4,2,0,180,180,0.9082300999998552,['y'],0.7033305999998447,1.982,1937.9823274,,,,,1003,21,Woman,Right,
,,,,,,,,,,,,,,,,,1003,21,Woman,Right,5,63,0.15,2,180,0,180,0.7598049000002902,['n'],0.40752919999977166,1.968,1941.2821258,,,,,1003,21,Woman,Right,
,,,,,,,,,,,,,,,,,1003,21,Woman,Right,5,16,0.4,1,0,-,180,1.0295016999998552,['y'],0.38323239999999714,1.982,1944.8641553000002,,,,,1003,21,Woman,Right,
,,,,,,,,,,,,,,,,,1003,21,Woman,Right,5,25,0.4,2,0,180,180,0.5247976000000563,['n'],0.3834401999997681,1.966,1947.8990968000003,,,,,1003,21,Woman,Right,
,,,,,,,,,,,,,,,,,1003,21,Woman,Right,5,3,1,2,180,0,0,0.35549540000010893,['y'],0.6720390999998926,1.972,1951.1329283999999,,,,,1003,21,Woman,Right,
,,,,,,,,,,,,,,,,,1003,21,Woman,Right,5,23,0.4,2,180,0,0,0.4010653000000275,['y'],0.4404509999999391,1.984,1954.3486932,,,,,1003,21,Woman,Right,
,,,,,,,,,,,,,,,,,1003,21,Woman,Right,5,27,0.4,2,180,0,0,1.0499558999999863,['y'],0.3355231000000458,1.98,1957.9151387000002,,,,,1003,21,Woman,Right,
,,,,,,,,,,,,,,,,,1003,21,Woman,Right,5,13,0.4,2,0,180,180,0.7076429000003372,['y'],0.487395899999683,1.966,1961.2814925000002,,,,,1003,21,Woman,Right,
,,,,,,,,,,,,,,,,,1003,21,Woman,Right,5,56,0.15,1,0,-,0,2.5149513000001207,['n'],0.47121649999962756,1.964,1966.4477353000002,,,,,1003,21,Woman,Right,
,,,,,,,,,,,,,,,,,1003,21,Woman,Right,5,14,0.4,1,180,-,180,0.3901272000002791,['n'],0.7117874999999003,1.962,1969.8646319,,,,,1003,21,Woman,Right,
,,,,,,,,,,,,,,,,,1003,21,Woman,Right,5,49,0.15,2,0,180,180,1.388130799999999,['y'],0.7836882999999943,1.998,1974.4983230000003,,,,,1003,21,Woman,Right,
,,,,,,,,,,,,,,,,,1003,21,Woman,Right,5,61,0.15,2,0,180,0,0.530916800000341,['n'],0.4552740000003723,1.994,1978.0822898000001,,,,,1003,21,Woman,Right,
,,,,,,,,,,,,,,,,,1003,21,Woman,Right,5,15,0.4,2,180,0,0,0.49361250000038126,['y'],0.3274311999998645,1.974,1981.064303,,,,,1003,21,Woman,Right,
,,,,,,,,,,,,,,,,,1003,21,Woman,Right,5,1,1,2,0,180,180,0.26834329999974216,['y'],0.7117807999998149,1.994,1984.3316306000002,,,,,1003,21,Woman,Right,
,,,,,,,,,,,,,,,,,1003,21,Woman,Right,5,37,0.4,2,0,180,180,0.3152240000003985,['y'],0.5838827000002311,1.994,1987.3643862,,,,,1003,21,Woman,Right,
,,,,,,,,,,,,,,,,,1003,21,Woman,Right,5,28,0.4,1,0,-,0,0.45040910000034273,['n'],0.9758755000002566,1.998,1990.9472719999999,,,,,1003,21,Woman,Right,
,,,,,,,,,,,,,,,,,1003,21,Woman,Right,5,5,1,2,0,180,180,0.22670519999974204,['y'],0.35964489999969373,2.0,1993.7149662000002,,,,,1003,21,Woman,Right,
,,,,,,,,,,,,,,,,,1003,21,Woman,Right,5,44,0.15,1,0,-,0,0.5458588000001328,['n'],1.4076790000003712,1.976,1998.0816094000002,,,,,1003,21,Woman,Right,
,,,,,,,,,,,,,,,,,1003,21,Woman,Right,5,10,0.4,1,180,-,180,0.487090900000112,['n'],0.33546350000005987,1.974,2001.0153897999999,,,,,1003,21,Woman,Right,
,,,,,,,,,,,,,,,,,1003,21,Woman,Right,5,47,0.15,2,180,0,0,0.5521217999998953,['y'],1.9672959999998056,1.96,2005.6312397000002,,,,,1003,21,Woman,Right,
,,,,,,,,,,,,,,,,,1003,21,Woman,Right,5,50,0.15,1,180,-,180,0.33237830000007307,['n'],1.3042163999998593,1.97,2009.4814781,,,,,1003,21,Woman,Right,
,,,,,,,,,,,,,,,,,1003,21,Woman,Right,5,71,0.15,2,180,0,0,0.43110969999997906,['n'],0.5912859999998545,1.962,2012.6652798999999,,,,,1003,21,Woman,Right,
,,,,,,,,,,,,,,,,,1003,21,Woman,Right,5,11,0.4,2,180,0,0,0.9903282999998737,['y'],0.3595557000003282,1.962,2016.1485748999999,,,,,1003,21,Woman,Right,
,,,,,,,,,,,,,,,,,1003,21,Woman,Right,5,4,1,1,0,-,0,0.37068760000011025,['n'],0.8077725999996801,1.964,2019.5322449,,,,,1003,21,Woman,Right,
,,,,,,,,,,,,,,,,,1003,21,Woman,Right,5,41,0.4,2,0,180,180,0.3912802999998348,['y'],0.32010929999978543,1.964,2022.5977467000002,,,,,1003,21,Woman,Right,
,,,,,,,,,,,,,,,,,1003,21,Woman,Right,5,22,0.4,1,180,-,180,0.8900297000000137,['n'],0.3439591000001201,1.978,2025.8980856000003,,,,,1003,21,Woman,Right,
,,,,,,,,,,,,,,,,,1003,21,Woman,Right,5,39,0.4,2,180,0,0,0.23591720000013083,['y'],0.37537220000012894,1.988,2028.598748,,,,,1003,21,Woman,Right,
,,,,,,,,,,,,,,,,,1003,21,Woman,Right,5,64,0.15,1,0,-,0,0.21660109999993438,['n'],0.4234483000000182,1.98,2031.2976241000001,,,,,1003,21,Woman,Right,
,,,,,,,,,,,,,,,,,1003,21,Woman,Right,5,18,0.4,1,180,-,180,0.196495799999866,['y'],0.28797099999974307,1.98,2034.4320638,,,,,1003,21,Woman,Right,
,,,,,,,,,,,,,,,,,1003,21,Woman,Right,5,40,0.4,1,0,-,0,0.3254152999998041,['n'],0.2961443000003783,1.98,2037.5653435,,,,,1003,21,Woman,Right,
,,,,,,,,,,,,,,,,,1003,21,Woman,Right,5,20,0.4,1,0,-,0,0.43398049999996147,['n'],0.39219490000004953,1.98,2040.3974610999999,,,,,1003,21,Woman,Right,
,,,,,,,,,,,,,,,,,1003,21,Woman,Right,5,0,1,1,0,-,0,0.23914379999996527,['n'],0.4000532000000021,1.98,2043.6481036999999,,,,,1003,21,Woman,Right,
,,,,,,,,,,,,,,,,,1003,21,Woman,Right,5,73,0.15,2,0,180,180,0.9660155000001396,['n'],0.6640956999999617,1.98,2047.3986333000003,,,,,1003,21,Woman,Right,
,,,,,,,,,,,,,,,,,1003,21,Woman,Right,5,30,0.4,1,180,-,180,0.32701479999968797,['n'],0.25606580000021495,1.98,2050.1319241,,,,,1003,21,Woman,Right,
,,,,,,,,,,,,,,,,,1003,21,Woman,Right,5,76,0.15,1,0,-,180,0.9558223000003636,['n'],0.2793992000001708,1.976,2053.3986141,,,,,1003,21,Woman,Right,
,,,,,,,,,,,,,,,,,1003,21,Woman,Right,5,42,0.4,1,180,-,180,0.11145020000003569,['n'],0.384006600000248,1.97,2056.0490943,,,,,1003,21,Woman,Right,
,,,,,,,,,,,,,,,,,1003,21,Woman,Right,5,54,0.15,1,180,-,180,0.059855700000298384,['n'],0.40752070000007734,1.964,2058.7145055,,,,,1003,21,Woman,Right,
,,,,,,,,,,,,,,,,,1003,21,Woman,Right,5,19,0.4,2,180,0,0,0.497338099999979,['y'],0.5513765999999123,1.956,2062.0641755,,,,,1003,21,Woman,Right,
,,,,,,,,,,,,,,,,,1003,21,Woman,Right,5,77,0.15,2,0,180,180,0.7541023999997378,['n'],0.2713637000001654,1.954,2065.447971,,,,,1003,21,Woman,Right,
,,,,,,,,,,,,,,,,,1003,21,Woman,Right,5,68,0.15,1,0,-,0,0.40582610000001296,['n'],0.3915460999996867,1.946,2068.4489532000002,,,,,1003,21,Woman,Right,
,,,,,,,,,,,,,,,,,1003,21,Woman,Right,5,36,0.4,1,0,-,0,1.821263700000145,['n'],0.2716645000000426,1.942,2072.7487258,,,,,1003,21,Woman,Right,
,,,,,,,,,,,,,,,,,1003,21,Woman,Right,5,12,0.4,1,0,-,180,1.064711499999703,['n'],0.3356195999999727,1.944,2076.1647169000003,,,,,1003,21,Woman,Right,
,,,,,,,,,,,,,,,,,1003,21,Woman,Right,5,59,0.15,2,180,0,180,0.3656313000001319,['n'],0.28806200000008175,1.946,2078.9969429000002,,,,,1003,21,Woman,Right,
,,,,,,,,,,,,,,,,,1003,21,Woman,Right,5,60,0.15,1,0,-,180,0.3258563999997932,['n'],0.3037213000002339,1.97,2081.7315921,,,,,1003,21,Woman,Right,
,,,,,,,,,,,,,,,,,1003,21,Woman,Right,5,6,1,1,180,-,180,0.4140759000001708,['n'],0.31580339999982243,1.97,2084.5474335,,,,,1003,21,Woman,Right,
,,,,,,,,,,,,,,,,,1003,21,Woman,Right,5,32,0.4,1,0,-,0,0.39382860000023356,['n'],0.3682657000003928,1.97,2087.3817818,,,,,1003,21,Woman,Right,
,,,,,,,,,,,,,,,,,1003,21,Woman,Right,5,58,0.15,1,180,-,180,0.09630859999970198,['n'],0.29604969999991226,1.984,2090.3979648,,,,,1003,21,Woman,Right,
,,,,,,,,,,,,,,,,,1003,21,Woman,Right,5,26,0.4,1,180,-,180,0.07144620000008217,['n'],0.3275029999999788,1.98,2092.9813411,,,,,1003,21,Woman,Right,
,,,,,,,,,,,,,,,,,1003,21,Woman,Right,5,21,0.4,2,0,180,180,0.7207702999999128,['y'],0.2956707000003007,1.976,2096.0306476,,,,,1003,21,Woman,Right,
,,,,,,,,,,,,,,,,,1003,21,Woman,Right,5,57,0.15,2,0,180,180,1.6703419999998914,['y'],0.47194649999983085,1.976,2100.2313505,,,,,1003,21,Woman,Right,
,,,,,,,,,,,,,,,,,1003,21,Woman,Right,5,46,0.15,1,180,-,180,0.35913699999991877,['n'],0.5120099999999184,1.976,2103.0974959,,,,,1003,21,Woman,Right,
,,,,,,,,,,,,,,,,,1003,21,Woman,Right,5,66,0.15,1,180,-,180,0.26066639999999097,['n'],0.3600459999997838,1.976,2105.8307812000003,,,,,1003,21,Woman,Right,
,,,,,,,,,,,,,,,,,1003,21,Woman,Right,5,33,0.4,2,0,180,180,1.4956459999998515,['y'],0.23206919999984166,1.976,2109.5976175,,,,,1003,21,Woman,Right,
,,,,,,,,,,,,,,,,,1003,21,Woman,Right,5,74,0.15,1,180,-,180,0.5443623999999545,['n'],0.29610760000014125,1.976,2112.4974645,,,,,1003,21,Woman,Right,
,,,,,,,,,,,,,,,,,1003,21,Woman,Right,5,70,0.15,1,180,-,180,0.32554860000027475,['n'],0.4482215999996697,1.976,2115.2640393,,,,,1003,21,Woman,Right,
,,,,,,,,,,,,,,,,,1003,21,Woman,Right,5,34,0.4,1,180,-,180,0.14180979999991905,['n'],0.4242309999999634,1.976,2117.9825215,,,,,1003,21,Woman,Right,
,,,,,,,,,,,,,,,,,1003,21,Woman,Right,5,53,0.15,2,0,180,180,0.4774774000002253,['n'],0.28005510000002687,1.976,2120.8644587,,,,,1003,21,Woman,Right,
,,,,,,,,,,,,,,,,,1003,21,Woman,Right,5,72,0.15,1,0,-,180,0.24404880000020057,['n'],0.2960441999998693,1.976,2123.5318788,,,,,1003,21,Woman,Right,
,,,,,,,,,,,,,,,,,1003,21,Woman,Right,5,38,0.4,1,180,-,180,0.1871740999999929,['n'],0.783419800000047,1.972,2126.8317437,,,,,1003,21,Woman,Right,
,,,,,,,,,,,,,,,,,1003,21,Woman,Right,5,67,0.15,2,180,0,180,0.38435859999981403,['n'],0.22337400000014895,1.964,2129.5312925000003,,,,,1003,21,Woman,Right,
,,,,,,,,,,,,,,,,,1003,21,Woman,Right,5,43,0.4,2,180,0,0,0.38685050000003685,['y'],0.3280171999999766,1.972,2132.2821518,,,,,1003,21,Woman,Right,
,,,,,,,,,,,,,,,,,1003,21,Woman,Right,5,29,0.4,2,0,180,180,1.4704290999998193,['y'],0.20795240000006743,1.972,2135.9142065,,,,,1003,21,Woman,Right,
,,,,,,,,,,,,,,,,,1003,21,Woman,Right,5,7,1,2,180,0,0,0.4931186999997408,['y'],0.24001029999999446,1.972,2138.6147447000003,,,,,1003,21,Woman,Right,
,,,,,,,,,,,,,,,,,1003,21,Woman,Right,5,65,0.15,2,0,180,180,0.8624714999996286,['y'],0.23971780000010767,1.97,2141.7984036000003,,,,,1003,21,Woman,Right,
,,,,,,,,,,,,,,,,,1003,21,Woman,Right,5,75,0.15,2,180,0,0,1.9956861000000572,['y'],0.21587330000011207,1.966,2145.9648265,,,,,1003,21,Woman,Right,
,,,,,,,,,,,,,,,,,1003,21,Woman,Right,5,2,1,1,180,-,180,0.3538782999999057,['y'],0.2960854000002655,1.966,2148.9646619,,,,,1003,21,Woman,Right,
,,,,,,,,,,,,,,,,,1003,21,Woman,Right,5,45,0.15,2,0,180,180,2.7918327000002137,['n'],0.17608330000030037,1.966,2153.9976773,,,,,1003,21,Woman,Right,
,,,,,,,,,,,,,,,,,1003,21,Woman,Right,5,48,0.15,1,0,-,180,0.33789699999988443,['n'],0.2240724000002956,1.966,2156.6813794,,,,,1003,21,Woman,Right,
,,,,,,,,,,,,,,,,,1003,21,Woman,Right,5,24,0.4,1,0,-,0,1.1905746000002182,['y'],0.22400340000012875,1.966,2160.0821194,,,,,1003,21,Woman,Right,
,,,,,,,,,,,,,,,,,1003,21,Woman,Right,5,62,0.15,1,180,-,180,0.5999256999998579,['n'],0.23200249999990774,1.966,2162.9311897000002,,,,,1003,21,Woman,Right,
,,,,,,,,,,,,,,,,,1003,21,Woman,Right,5,51,0.15,2,180,0,180,0.6938542000002599,['n'],0.7441344999997455,1.966,2166.3484448,,,,,1003,21,Woman,Right,
,,,,,,,,,,,,,,,,,1003,21,Woman,Right,5,31,0.4,2,180,0,0,0.45928660000026866,['y'],0.19194059999972524,1.966,2169.0153588000003,,,,,1003,21,Woman,Right,
,,,,,,,,,,,,,,,,,1003,21,Woman,Right,5,8,0.4,1,0,-,0,0.4248407000000043,['n'],0.38431679999985136,1.966,2171.8649804,,,,,1003,21,Woman,Right,
,,,,,,,,,,,,,,,,,,,,,,,,,,,,,,,,,670.0,87.5,65.0,1948.6300400999999,,,,,
