p_block,p_section,p_coherence,p_direction1,p_direction2,p_direction_response,p_direction_RT,p_change_response,p_change_RT,p_confidence,p_full_correct,p_without5_correct,p_full_total,p_without5_total,p_full_avg,p_witout5_avg,p_total_time,sub,age,sex,handedness,loop,trial randomization,coherence,condition,direction1,direction2,direction_response,direction_RT,change_response,change_RT,change_confidence,change_confidence_RT,block_direction_avg,block_stable_avg,block_change_avg,total_time,sub,age,sex,handedness,
1,1,1.0,0,-,0,2.034259699998074,-,-,-,,,,,,,,518,20,Woman,Right,,,,,,,,,,,,,,,,,518,20,Woman,Right,
1,1,1.0,0,-,0,1.4032223999965936,-,-,-,,,,,,,,518,20,Woman,Right,,,,,,,,,,,,,,,,,518,20,Woman,Right,
1,1,1.0,0,-,0,1.406611400001566,-,-,-,,,,,,,,518,20,Woman,Right,,,,,,,,,,,,,,,,,518,20,Woman,Right,
1,1,1.0,0,-,0,1.1931436000013491,-,-,-,,,,,,,,518,20,Woman,Right,,,,,,,,,,,,,,,,,518,20,Woman,Right,
1,1,1.0,0,-,0,0.6849873999963165,-,-,-,,,,,,,,518,20,Woman,Right,,,,,,,,,,,,,,,,,518,20,Woman,Right,
1,1,1.0,180,-,180,0.4839226999974926,-,-,-,,,,,,,,518,20,Woman,Right,,,,,,,,,,,,,,,,,518,20,Woman,Right,
1,1,1.0,0,-,0,0.2429991999961203,-,-,-,,,,,,,,518,20,Woman,Right,,,,,,,,,,,,,,,,,518,20,Woman,Right,
1,1,1.0,180,-,180,0.3332349000047543,-,-,-,,,,,,,,518,20,Woman,Right,,,,,,,,,,,,,,,,,518,20,Woman,Right,
1,1,1.0,0,-,0,0.5138965000005555,-,-,-,,,,,,,,518,20,Woman,Right,,,,,,,,,,,,,,,,,518,20,Woman,Right,
1,1,1.0,0,-,0,0.40026689999649534,-,-,-,10,10,10,10,1.0,1.0,,518,20,Woman,Right,,,,,,,,,,,,,,,,,518,20,Woman,Right,
2,1,0.15,0,-,0,0.6696613999956753,-,-,-,,,,,,,,518,20,Woman,Right,,,,,,,,,,,,,,,,,518,20,Woman,Right,
2,1,0.4,180,-,180,0.6543441000030725,-,-,-,,,,,,,,518,20,Woman,Right,,,,,,,,,,,,,,,,,518,20,Woman,Right,
2,1,0.15,180,-,180,0.5821035000044503,-,-,-,,,,,,,,518,20,Woman,Right,,,,,,,,,,,,,,,,,518,20,Woman,Right,
2,1,0.15,0,-,180,0.7852733999970951,-,-,-,,,,,,,,518,20,Woman,Right,,,,,,,,,,,,,,,,,518,20,Woman,Right,
2,1,0.4,0,-,0,0.5403778999971109,-,-,-,,,,,,,,518,20,Woman,Right,,,,,,,,,,,,,,,,,518,20,Woman,Right,
2,1,0.15,0,-,0,0.6745702999978676,-,-,-,,,,,,,,518,20,Woman,Right,,,,,,,,,,,,,,,,,518,20,Woman,Right,
2,1,0.4,180,-,180,0.45780650000233436,-,-,-,,,,,,,,518,20,Woman,Right,,,,,,,,,,,,,,,,,518,20,Woman,Right,
2,1,0.4,0,-,0,0.5862540000016452,-,-,-,,,,,,,,518,20,Woman,Right,,,,,,,,,,,,,,,,,518,20,Woman,Right,
2,1,0.15,0,-,0,0.7339338000019779,-,-,-,,,,,,,,518,20,Woman,Right,,,,,,,,,,,,,,,,,518,20,Woman,Right,
2,1,0.4,0,-,0,0.4353248000043095,-,-,-,9,5,10,5,0.9,1.0,,518,20,Woman,Right,,,,,,,,,,,,,,,,,518,20,Woman,Right,
3,2,1.0,0,180,180,2.833488900003431,['y'],3.5682406999985687,2,,,,,,,,518,20,Woman,Right,,,,,,,,,,,,,,,,,518,20,Woman,Right,
3,2,1.0,0,180,180,2.224822399999539,['y'],1.8832214000067324,2.0,,,,,,,,518,20,Woman,Right,,,,,,,,,,,,,,,,,518,20,Woman,Right,
3,2,1.0,0,180,180,1.090382700000191,['y'],1.2816058000025805,2.0,,,,,,,,518,20,Woman,Right,,,,,,,,,,,,,,,,,518,20,Woman,Right,
3,2,1.0,180,0,0,1.6944373000005726,['y'],1.7634945999961928,2.0,,,,,,,,518,20,Woman,Right,,,,,,,,,,,,,,,,,518,20,Woman,Right,
3,2,1.0,0,180,180,2.238029699998151,['y'],2.1116589000012027,2.0,,,,,,,,518,20,Woman,Right,,,,,,,,,,,,,,,,,518,20,Woman,Right,
3,2,1.0,0,180,180,0.8081555999960983,['y'],1.0832694000055199,2.0,,,,,,,,518,20,Woman,Right,,,,,,,,,,,,,,,,,518,20,Woman,Right,
3,2,1.0,180,0,0,0.9232297999988077,['y'],2.7200433000034536,1.8900000000000001,,,,,,,,518,20,Woman,Right,,,,,,,,,,,,,,,,,518,20,Woman,Right,
3,2,1.0,180,0,0,0.6000371999980416,['y'],1.2822755000015604,2.0,,,,,,,,518,20,Woman,Right,,,,,,,,,,,,,,,,,518,20,Woman,Right,
3,2,1.0,0,180,180,1.3269437000053586,['y'],1.141200600002776,2.0,,,,,,,,518,20,Woman,Right,,,,,,,,,,,,,,,,,518,20,Woman,Right,
3,2,1.0,0,180,180,0.5852888999943389,['y'],1.1016133000011905,1.93,10,10,10,10,1.0,1.0,,518,20,Woman,Right,,,,,,,,,,,,,,,,,518,20,Woman,Right,
4,2,0.4,180,0,0,1.0960196000014548,['y'],0.9913267999945674,1.944,,,,,,,,518,20,Woman,Right,,,,,,,,,,,,,,,,,518,20,Woman,Right,
4,2,0.4,180,0,0,0.7950074999971548,['y'],0.7018567999984953,1.954,,,,,,,,518,20,Woman,Right,,,,,,,,,,,,,,,,,518,20,Woman,Right,
4,2,0.4,180,0,0,0.8384900000019115,['y'],1.1984909000020707,1.892,,,,,,,,518,20,Woman,Right,,,,,,,,,,,,,,,,,518,20,Woman,Right,
4,2,0.4,0,180,180,0.8219352000014624,['y'],1.0244543999942834,1.892,,,,,,,,518,20,Woman,Right,,,,,,,,,,,,,,,,,518,20,Woman,Right,
4,2,0.15,0,180,180,0.5261788999996497,['y'],1.186358899998595,1.874,,,,,,,,518,20,Woman,Right,,,,,,,,,,,,,,,,,518,20,Woman,Right,
4,2,0.15,0,180,0,1.2440174000003026,['y'],1.1246144999968237,1.766,,,,,,,,518,20,Woman,Right,,,,,,,,,,,,,,,,,518,20,Woman,Right,
4,2,0.4,0,180,180,0.448898000002373,['y'],0.9865082000032999,1.866,,,,,,,,518,20,Woman,Right,,,,,,,,,,,,,,,,,518,20,Woman,Right,
4,2,0.4,0,180,0,1.8055871000033221,['y'],0.7762796000024537,1.87,,,,,,,,518,20,Woman,Right,,,,,,,,,,,,,,,,,518,20,Woman,Right,
4,2,0.4,0,180,180,0.49513170000136597,['y'],0.8152383000051486,1.854,,,,,,,,518,20,Woman,Right,,,,,,,,,,,,,,,,,518,20,Woman,Right,
4,2,0.4,0,180,180,0.524928999999247,['y'],0.8658962999979849,1.8439999999999999,8,7,10,8,0.8,0.875,,518,20,Woman,Right,,,,,,,,,,,,,,,,,518,20,Woman,Right,
5,3,1.0,0,180,180,0.6316133000000264,['y'],1.1373112000001129,1.944,,,,,,,,518,20,Woman,Right,,,,,,,,,,,,,,,,,518,20,Woman,Right,
5,3,0.4,0,-,180,0.7812724000032176,['y'],1.3297773000012967,1.734,,,,,,,,518,20,Woman,Right,,,,,,,,,,,,,,,,,518,20,Woman,Right,
5,3,1.0,0,-,0,2.216973100003088,['n'],0.7566821000000346,1.724,,,,,,,,518,20,Woman,Right,,,,,,,,,,,,,,,,,518,20,Woman,Right,
5,3,0.15,0,180,0,1.3693233999947552,['n'],1.0371279999963008,1.6,,,,,,,,518,20,Woman,Right,,,,,,,,,,,,,,,,,518,20,Woman,Right,
5,3,0.4,0,-,0,1.6083246000052895,['n'],0.7945689000043785,1.764,,,,,,,,518,20,Woman,Right,,,,,,,,,,,,,,,,,518,20,Woman,Right,
5,3,0.4,180,-,180,0.6504398999968544,['n'],0.5781063000031281,1.806,,,,,,,,518,20,Woman,Right,,,,,,,,,,,,,,,,,518,20,Woman,Right,
5,3,0.4,180,0,180,2.1376049000027706,['n'],3.758501599993906,1.68,,,,,,,,518,20,Woman,Right,,,,,,,,,,,,,,,,,518,20,Woman,Right,
5,3,0.15,0,-,180,0.7667137999960687,['n'],1.0779900999987149,1.69,,,,,,,,518,20,Woman,Right,,,,,,,,,,,,,,,,,518,20,Woman,Right,
5,3,0.15,180,0,180,1.4216323000000557,['n'],1.2867480999993859,1.6480000000000001,,,,,,,,518,20,Woman,Right,,,,,,,,,,,,,,,,,518,20,Woman,Right,
5,3,0.15,0,-,0,3.092219099999056,['n'],1.290864700000384,1.6440000000000001,,,,,,,,518,20,Woman,Right,,,,,,,,,,,,,,,,,518,20,Woman,Right,
5,3,1.0,180,0,0,1.4280474999977741,['y'],1.4278819000028307,1.824,,,,,,,,518,20,Woman,Right,,,,,,,,,,,,,,,,,518,20,Woman,Right,
5,3,0.15,0,-,0,1.3576040000043577,['n'],1.217523599996639,1.676,,,,,,,,518,20,Woman,Right,,,,,,,,,,,,,,,,,518,20,Woman,Right,
5,3,0.15,180,0,0,2.1671015999963856,['n'],0.41080719999445137,1.6600000000000001,,,,,,,,518,20,Woman,Right,,,,,,,,,,,,,,,,,518,20,Woman,Right,
5,3,0.15,0,180,0,2.4336627000011504,['n'],0.2740209999974468,1.576,,,,,,,,518,20,Woman,Right,,,,,,,,,,,,,,,,,518,20,Woman,Right,
5,3,1.0,0,180,180,1.4119926999992458,['y'],1.4546521000011126,1.954,,,,,,,,518,20,Woman,Right,,,,,,,,,,,,,,,,,518,20,Woman,Right,
5,3,0.15,0,-,0,4.9152954000019236,['n'],0.6730533000009018,1.626,,,,,,,,518,20,Woman,Right,,,,,,,,,,,,,,,,,518,20,Woman,Right,
5,3,1.0,180,0,0,1.3385756999996374,['y'],1.007397300003504,1.5739999999999998,,,,,,,,518,20,Woman,Right,,,,,,,,,,,,,,,,,518,20,Woman,Right,
5,3,1.0,180,0,0,0.742290200003481,['y'],1.1391231000015978,1.696,,,,,,,,518,20,Woman,Right,,,,,,,,,,,,,,,,,518,20,Woman,Right,
5,3,0.4,180,-,0,1.61487710000074,['n'],0.9372375000020838,1.57,,,,,,,,518,20,Woman,Right,,,,,,,,,,,,,,,,,518,20,Woman,Right,
5,3,0.4,0,180,180,0.8703687000015634,['n'],0.46956080000381917,1.554,8,5,10,6,0.8,0.8333333333333334,,518,20,Woman,Right,,,,,,,,,,,,,,,,,518,20,Woman,Right,
,,,,,,,,,,,,,,,,6.200003554113209e-06,518,20,Woman,Right,,,,,,,,,,,,,,,,,518,20,Woman,Right,
,,,,,,,,,,,,,,,,,518,20,Woman,Right,0,4,1,1,0,-,180,1.0948629999984405,['y'],2.5360393000009935,1.556,444.8966610999996,,,,,518,20,Woman,Right,
,,,,,,,,,,,,,,,,,518,20,Woman,Right,0,6,1,1,180,-,0,1.7162696000013966,['y'],2.5842387000011513,1.564,452.963408399999,,,,,518,20,Woman,Right,
,,,,,,,,,,,,,,,,,518,20,Woman,Right,0,37,0.4,2,0,180,180,0.8691930999993929,['y'],1.3515935999967041,1.65,458.94653819999803,,,,,518,20,Woman,Right,
,,,,,,,,,,,,,,,,,518,20,Woman,Right,0,44,0.15,1,0,-,0,2.572618100006366,['n'],0.9996383999969112,1.6179999999999999,466.2295634999973,,,,,518,20,Woman,Right,
,,,,,,,,,,,,,,,,,518,20,Woman,Right,0,70,0.15,1,180,-,0,2.453051399999822,['n'],0.7511503999994602,1.3639999999999999,472.69568119999894,,,,,518,20,Woman,Right,
,,,,,,,,,,,,,,,,,518,20,Woman,Right,0,7,1,2,180,0,0,1.3311713000002783,['y'],1.2958623999948031,2.0,479.7630324999991,,,,,518,20,Woman,Right,
,,,,,,,,,,,,,,,,,518,20,Woman,Right,0,25,0.4,2,0,180,180,1.6207495999988168,['n'],0.9196551999993972,1.748,485.9955945999973,,,,,518,20,Woman,Right,
,,,,,,,,,,,,,,,,,518,20,Woman,Right,0,78,0.15,1,180,-,180,1.5492140999995172,['n'],1.055638400001044,1.692,492.32880250000017,,,,,518,20,Woman,Right,
,,,,,,,,,,,,,,,,,518,20,Woman,Right,0,65,0.15,2,0,180,180,2.537047800004075,['n'],0.8155540000007022,1.608,499.0455228999999,,,,,518,20,Woman,Right,
,,,,,,,,,,,,,,,,,518,20,Woman,Right,0,79,0.15,2,180,0,180,0.7352334000024712,['n'],1.0316476000007242,1.762,504.0121239,,,,,518,20,Woman,Right,
,,,,,,,,,,,,,,,,,518,20,Woman,Right,0,1,1,2,0,180,180,1.5846788999988348,['y'],1.1908862999989651,1.938,510.7953404,,,,,518,20,Woman,Right,
,,,,,,,,,,,,,,,,,518,20,Woman,Right,0,8,0.4,1,0,-,0,1.9625027000001865,['n'],1.0002750999992713,1.426,517.428585200003,,,,,518,20,Woman,Right,
,,,,,,,,,,,,,,,,,518,20,Woman,Right,0,75,0.15,2,180,0,180,3.03121889999602,['n'],1.1991369999959716,1.43,525.061875899999,,,,,518,20,Woman,Right,
,,,,,,,,,,,,,,,,,518,20,Woman,Right,0,60,0.15,1,0,-,0,1.1241578999979538,['n'],0.9594368000034592,1.556,531.0451608000003,,,,,518,20,Woman,Right,
,,,,,,,,,,,,,,,,,518,20,Woman,Right,0,23,0.4,2,180,0,0,1.7568680999975186,['y'],0.9352051000023494,1.5899999999999999,537.5451106999972,,,,,518,20,Woman,Right,
,,,,,,,,,,,,,,,,,518,20,Woman,Right,0,77,0.15,2,0,180,0,1.917081200001121,['n'],1.0359058999965782,1.0,544.3449877000021,,,,,518,20,Woman,Right,
,,,,,,,,,,,,,,,,,518,20,Woman,Right,0,53,0.15,2,0,180,0,1.1891969999996945,['n'],1.6556138999949326,1.0,550.828436900003,,,,,518,20,Woman,Right,
,,,,,,,,,,,,,,,,,518,20,Woman,Right,0,57,0.15,2,0,180,0,1.2724459000019124,['n'],1.0547813999946811,1.422,556.5122743000029,,,,,518,20,Woman,Right,
,,,,,,,,,,,,,,,,,518,20,Woman,Right,0,10,0.4,1,180,-,180,1.0215303000004496,['n'],0.9432449999949313,1.626,562.2282689999993,,,,,518,20,Woman,Right,
,,,,,,,,,,,,,,,,,518,20,Woman,Right,0,61,0.15,2,0,180,0,0.97543549999682,['n'],2.703818300004059,1.706,569.4121911999973,,,,,518,20,Woman,Right,
,,,,,,,,,,,,,,,,,518,20,Woman,Right,0,54,0.15,1,180,-,180,2.1580971000003046,['n'],1.4552672999998322,1.0,576.4130561999991,,,,,518,20,Woman,Right,
,,,,,,,,,,,,,,,,,518,20,Woman,Right,0,15,0.4,2,180,0,180,1.421186099993065,['n'],0.8637331999998423,1.0,581.8620332999999,,,,,518,20,Woman,Right,
,,,,,,,,,,,,,,,,,518,20,Woman,Right,0,52,0.15,1,0,-,0,0.977574900003674,['n'],1.2154599999994389,1.654,587.2445458000002,,,,,518,20,Woman,Right,
,,,,,,,,,,,,,,,,,518,20,Woman,Right,0,11,0.4,2,180,0,0,1.2990902999954415,['y'],0.6162019999974291,1.764,594.228834900001,,,,,518,20,Woman,Right,
,,,,,,,,,,,,,,,,,518,20,Woman,Right,0,3,1,2,180,0,0,1.233477400004631,['y'],1.5430974999981117,2.0,601.5784984999991,,,,,518,20,Woman,Right,
,,,,,,,,,,,,,,,,,518,20,Woman,Right,0,0,1,1,0,-,0,2.2987046999987797,['n'],1.1595862000031048,1.694,608.4110731999972,,,,,518,20,Woman,Right,
,,,,,,,,,,,,,,,,,518,20,Woman,Right,0,39,0.4,2,180,0,0,1.2413939999969443,['y'],0.9996031999980914,1.654,613.6110149000015,,,,,518,20,Woman,Right,
,,,,,,,,,,,,,,,,,518,20,Woman,Right,0,45,0.15,2,0,180,0,1.0250288999959594,['n'],0.9679359000001568,1.588,618.5286940000005,,,,,518,20,Woman,Right,
,,,,,,,,,,,,,,,,,518,20,Woman,Right,0,48,0.15,1,0,-,0,0.9588570999985677,['n'],0.8154610999990837,1.572,623.2942268999977,,,,,518,20,Woman,Right,
,,,,,,,,,,,,,,,,,518,20,Woman,Right,0,30,0.4,1,180,-,180,1.1549289000031422,['n'],0.8153825999979745,1.258,628.1775128000008,,,,,518,20,Woman,Right,
,,,,,,,,,,,,,,,,,518,20,Woman,Right,0,69,0.15,2,0,180,0,0.9164651999963098,['n'],0.7799213999969652,1.0,633.0952572000024,,,,,518,20,Woman,Right,
,,,,,,,,,,,,,,,,,518,20,Woman,Right,0,40,0.4,1,0,-,180,2.4624574999979814,['y'],1.7749193999989075,1.3559999999999999,640.9614079000021,,,,,518,20,Woman,Right,
,,,,,,,,,,,,,,,,,518,20,Woman,Right,0,24,0.4,1,0,-,0,2.7101218000025256,['n'],0.9440474000002723,1.0,647.827621700002,,,,,518,20,Woman,Right,
,,,,,,,,,,,,,,,,,518,20,Woman,Right,0,21,0.4,2,0,180,180,1.2233573999983491,['y'],0.8867680999974255,1.74,652.9949579000022,,,,,518,20,Woman,Right,
,,,,,,,,,,,,,,,,,518,20,Woman,Right,0,41,0.4,2,0,180,180,3.2996449999991455,['y'],1.6742455000057817,1.54,661.4278262000007,,,,,518,20,Woman,Right,
,,,,,,,,,,,,,,,,,518,20,Woman,Right,0,26,0.4,1,180,-,180,0.579711699996551,['n'],0.9595570999954361,1.524,665.8440923000016,,,,,518,20,Woman,Right,
,,,,,,,,,,,,,,,,,518,20,Woman,Right,0,43,0.4,2,180,0,0,0.6725927000006777,['n'],0.9032433000029414,1.558,670.4776934000038,,,,,518,20,Woman,Right,
,,,,,,,,,,,,,,,,,518,20,Woman,Right,0,36,0.4,1,0,-,0,1.195103600002767,['n'],1.7832826000012574,1.26,677.1111634999979,,,,,518,20,Woman,Right,
,,,,,,,,,,,,,,,,,518,20,Woman,Right,0,13,0.4,2,0,180,180,1.22245649999968,['y'],0.7679869000057806,1.56,682.4103518999982,,,,,518,20,Woman,Right,
,,,,,,,,,,,,,,,,,518,20,Woman,Right,0,9,0.4,2,0,180,180,0.866017299995292,['y'],1.5758013000013307,1.542,689.1109878999996,,,,,518,20,Woman,Right,
,,,,,,,,,,,,,,,,,518,20,Woman,Right,0,28,0.4,1,0,-,180,2.3922538999977405,['n'],1.5442687000031583,1.0,696.0611628000042,,,,,518,20,Woman,Right,
,,,,,,,,,,,,,,,,,518,20,Woman,Right,0,34,0.4,1,180,-,180,0.8132471999997506,['n'],0.5917808000012883,1.548,701.227304,,,,,518,20,Woman,Right,
,,,,,,,,,,,,,,,,,518,20,Woman,Right,0,66,0.15,1,180,-,180,0.8019605000008596,['n'],0.9281313000028604,1.7,706.1434615000035,,,,,518,20,Woman,Right,
,,,,,,,,,,,,,,,,,518,20,Woman,Right,0,12,0.4,1,0,-,0,3.4724225999962073,['n'],2.9757949999984703,1.512,718.2272997999971,,,,,518,20,Woman,Right,
,,,,,,,,,,,,,,,,,518,20,Woman,Right,0,16,0.4,1,0,-,0,1.0999360999994678,['n'],0.9761203999951249,1.758,723.2272539000041,,,,,518,20,Woman,Right,
,,,,,,,,,,,,,,,,,518,20,Woman,Right,0,38,0.4,1,180,-,180,0.6799662000048556,['n'],0.9433134999999311,1.6,727.8435213999983,,,,,518,20,Woman,Right,
,,,,,,,,,,,,,,,,,518,20,Woman,Right,0,27,0.4,2,180,0,0,1.4555776999986847,['y'],0.815212800000154,1.55,733.1108889000025,,,,,518,20,Woman,Right,
,,,,,,,,,,,,,,,,,518,20,Woman,Right,0,63,0.15,2,180,0,180,0.8351765999977943,['n'],0.8476243000040995,1.6360000000000001,738.1432657999976,,,,,518,20,Woman,Right,
,,,,,,,,,,,,,,,,,518,20,Woman,Right,0,74,0.15,1,180,-,180,1.1781451999995625,['n'],1.167393700001412,1.912,743.6107288999992,,,,,518,20,Woman,Right,
,,,,,,,,,,,,,,,,,518,20,Woman,Right,0,59,0.15,2,180,0,0,1.2099357999977656,['y'],0.9115102000068873,1.2,749.5930851000012,,,,,518,20,Woman,Right,
,,,,,,,,,,,,,,,,,518,20,Woman,Right,0,2,1,1,180,-,0,2.3440442999999505,['y'],1.2074628000045777,1.588,756.309694399999,,,,,518,20,Woman,Right,
,,,,,,,,,,,,,,,,,518,20,Woman,Right,0,29,0.4,2,0,180,180,0.8161695999951917,['n'],1.8237599999993108,1.0,762.1602714999972,,,,,518,20,Woman,Right,
,,,,,,,,,,,,,,,,,518,20,Woman,Right,0,67,0.15,2,180,0,0,0.9148169000036432,['y'],0.7911973000009311,1.6600000000000001,767.5271106,,,,,518,20,Woman,Right,
,,,,,,,,,,,,,,,,,518,20,Woman,Right,0,47,0.15,2,180,0,0,0.7917585999966832,['y'],2.3600617999982205,1.422,775.8260919000022,,,,,518,20,Woman,Right,
,,,,,,,,,,,,,,,,,518,20,Woman,Right,0,56,0.15,1,0,-,0,0.7620650999961072,['n'],0.7280068000036408,1.684,780.2927238999982,,,,,518,20,Woman,Right,
,,,,,,,,,,,,,,,,,518,20,Woman,Right,0,55,0.15,2,180,0,180,0.6211882999996305,['n'],2.9753105999989202,1.6280000000000001,786.9109616999995,,,,,518,20,Woman,Right,
,,,,,,,,,,,,,,,,,518,20,Woman,Right,0,18,0.4,1,180,-,180,0.7110833000042476,['n'],9.59211000000505,1.0,800.2093459000025,,,,,518,20,Woman,Right,
,,,,,,,,,,,,,,,,,518,20,Woman,Right,0,32,0.4,1,0,-,0,0.6446593000000576,['n'],0.7194293000065954,1.608,804.475821400003,,,,,518,20,Woman,Right,
,,,,,,,,,,,,,,,,,518,20,Woman,Right,0,31,0.4,2,180,0,0,1.6897179000006872,['y'],1.071230599998671,1.554,811.5106741999989,,,,,518,20,Woman,Right,
,,,,,,,,,,,,,,,,,518,20,Woman,Right,0,64,0.15,1,0,-,0,0.5989123999970616,['y'],1.4798808000050485,1.584,817.0590185999972,,,,,518,20,Woman,Right,
,,,,,,,,,,,,,,,,,518,20,Woman,Right,0,42,0.4,1,180,-,0,1.521233100000245,['y'],0.8958316999996896,1.1560000000000001,822.8596485000016,,,,,518,20,Woman,Right,
,,,,,,,,,,,,,,,,,518,20,Woman,Right,0,22,0.4,1,180,-,180,0.7337903000006918,['y'],3.2472635000012815,1.274,830.0589163000041,,,,,518,20,Woman,Right,
,,,,,,,,,,,,,,,,,518,20,Woman,Right,0,58,0.15,1,180,-,180,1.3186419000048772,['n'],0.424145299999509,1.532,836.0421389999974,,,,,518,20,Woman,Right,
,,,,,,,,,,,,,,,,,518,20,Woman,Right,0,14,0.4,1,180,-,180,0.8956877000018721,['n'],0.6238441999958013,1.456,840.8756330000033,,,,,518,20,Woman,Right,
,,,,,,,,,,,,,,,,,518,20,Woman,Right,0,73,0.15,2,0,180,0,3.3126056999972207,['n'],0.7269509000034304,1.432,848.1587677999996,,,,,518,20,Woman,Right,
,,,,,,,,,,,,,,,,,518,20,Woman,Right,0,49,0.15,2,0,180,0,0.9099185000013676,['n'],1.1913378999961424,1.52,853.4586506999985,,,,,518,20,Woman,Right,
,,,,,,,,,,,,,,,,,518,20,Woman,Right,0,62,0.15,1,180,-,0,2.786875100006,['n'],0.8710449999998673,1.45,860.6252601000015,,,,,518,20,Woman,Right,
,,,,,,,,,,,,,,,,,518,20,Woman,Right,0,35,0.4,2,180,0,0,0.7725704999975278,['n'],1.0719400000016321,1.6179999999999999,865.5259994000007,,,,,518,20,Woman,Right,
,,,,,,,,,,,,,,,,,518,20,Woman,Right,0,50,0.15,1,180,-,180,1.1123955000002752,['n'],1.119167799995921,1.548,870.6592509000038,,,,,518,20,Woman,Right,
,,,,,,,,,,,,,,,,,518,20,Woman,Right,0,19,0.4,2,180,0,0,1.5725957000031485,['n'],0.7435389999955078,1.556,875.7923647999996,,,,,518,20,Woman,Right,
,,,,,,,,,,,,,,,,,518,20,Woman,Right,0,17,0.4,2,0,180,0,1.1056976999971084,['n'],0.7991802999968058,1.562,880.8249216999975,,,,,518,20,Woman,Right,
,,,,,,,,,,,,,,,,,518,20,Woman,Right,0,51,0.15,2,180,0,0,0.6640499999994063,['n'],0.6785510999980033,1.566,885.7917748999971,,,,,518,20,Woman,Right,
,,,,,,,,,,,,,,,,,518,20,Woman,Right,0,20,0.4,1,0,-,0,0.6086250000007567,['n'],0.4945672999965609,1.584,890.2415649000031,,,,,518,20,Woman,Right,
,,,,,,,,,,,,,,,,,518,20,Woman,Right,0,72,0.15,1,0,-,0,0.5745497000025352,['n'],0.9436291000019992,1.568,894.8422859999991,,,,,518,20,Woman,Right,
,,,,,,,,,,,,,,,,,518,20,Woman,Right,0,71,0.15,2,180,0,0,0.651749500000733,['n'],0.8072329999995418,1.576,899.6086866999976,,,,,518,20,Woman,Right,
,,,,,,,,,,,,,,,,,518,20,Woman,Right,0,46,0.15,1,180,-,0,1.0167507000005571,['n'],0.7846311000030255,1.556,905.0087876000034,,,,,518,20,Woman,Right,
,,,,,,,,,,,,,,,,,518,20,Woman,Right,0,76,0.15,1,0,-,180,0.8521059999984573,['n'],0.6470556999993278,1.554,910.2913235000015,,,,,518,20,Woman,Right,
,,,,,,,,,,,,,,,,,518,20,Woman,Right,0,33,0.4,2,0,180,0,0.93738210000447,['n'],0.8557962999984738,1.544,915.1748147000035,,,,,518,20,Woman,Right,
,,,,,,,,,,,,,,,,,518,20,Woman,Right,0,5,1,2,0,180,180,1.4609586000005947,['y'],1.583972399996128,1.556,921.2086693000019,,,,,518,20,Woman,Right,
,,,,,,,,,,,,,,,,,518,20,Woman,Right,0,68,0.15,1,0,-,0,0.8506419000041205,['n'],0.5039041000054567,1.572,925.3746327999979,,,,,518,20,Woman,Right,
,,,,,,,,,,,,,,,,,518,20,Woman,Right,1,48,0.15,1,0,-,180,1.3991777999981423,['n'],1.2070212999969954,1.554,948.9744183000003,68.75,82.5,42.5,,518,20,Woman,Right,
,,,,,,,,,,,,,,,,,518,20,Woman,Right,1,63,0.15,2,180,0,180,1.6105699999970966,['n'],1.5753085000033025,1.416,955.2917959000042,,,,,518,20,Woman,Right,
,,,,,,,,,,,,,,,,,518,20,Woman,Right,1,29,0.4,2,0,180,180,1.316773699996702,['n'],0.9075700999965193,1.6,960.7409626000008,,,,,518,20,Woman,Right,
,,,,,,,,,,,,,,,,,518,20,Woman,Right,1,9,0.4,2,0,180,0,1.1667795999965165,['y'],3.5287721999993664,1.422,969.0415091000032,,,,,518,20,Woman,Right,
,,,,,,,,,,,,,,,,,518,20,Woman,Right,1,15,0.4,2,180,0,0,0.9931609999985085,['y'],1.0154113999960828,1.544,974.3080713000018,,,,,518,20,Woman,Right,
,,,,,,,,,,,,,,,,,518,20,Woman,Right,1,62,0.15,1,180,-,180,0.5830238000053214,['n'],1.5041809999966063,1.544,979.5074649000017,,,,,518,20,Woman,Right,
,,,,,,,,,,,,,,,,,518,20,Woman,Right,1,19,0.4,2,180,0,0,0.7037586000005831,['y'],0.6876279999996768,1.566,983.5573674999978,,,,,518,20,Woman,Right,
,,,,,,,,,,,,,,,,,518,20,Woman,Right,1,12,0.4,1,0,-,180,0.7203682999970624,['y'],1.0716689999972004,1.54,988.2241547000012,,,,,518,20,Woman,Right,
,,,,,,,,,,,,,,,,,518,20,Woman,Right,1,72,0.15,1,0,-,0,1.1913975999996183,['n'],0.35177610000391724,1.55,992.3910260999983,,,,,518,20,Woman,Right,
,,,,,,,,,,,,,,,,,518,20,Woman,Right,1,16,0.4,1,0,-,0,0.7068547000017134,['n'],0.5117526000030921,1.536,996.291312100002,,,,,518,20,Woman,Right,
,,,,,,,,,,,,,,,,,518,20,Woman,Right,1,0,1,1,0,-,0,0.7245162999970489,['n'],0.48759090000385186,1.55,1000.1238718000022,,,,,518,20,Woman,Right,
,,,,,,,,,,,,,,,,,518,20,Woman,Right,1,4,1,1,0,-,0,0.558705799994641,['n'],1.903918000003614,2.0,1005.1911450999978,,,,,518,20,Woman,Right,
,,,,,,,,,,,,,,,,,518,20,Woman,Right,1,43,0.4,2,180,0,180,2.274546399996325,['n'],1.1752171000043745,1.0,1011.4573126000032,,,,,518,20,Woman,Right,
,,,,,,,,,,,,,,,,,518,20,Woman,Right,1,10,0.4,1,180,-,180,0.8257607999985339,['n'],1.032111900000018,1.44,1016.6576569000026,,,,,518,20,Woman,Right,
,,,,,,,,,,,,,,,,,518,20,Woman,Right,1,2,1,1,180,-,180,0.7334197000018321,['n'],0.3940638999993098,1.788,1020.723836600002,,,,,518,20,Woman,Right,
,,,,,,,,,,,,,,,,,518,20,Woman,Right,1,67,0.15,2,180,0,180,1.5877294999954756,['n'],0.5755277999996906,1.3559999999999999,1026.0577551000024,,,,,518,20,Woman,Right,
,,,,,,,,,,,,,,,,,518,20,Woman,Right,1,68,0.15,1,0,-,0,0.6380493999968166,['n'],0.7195815999948536,1.788,1030.8569640999995,,,,,518,20,Woman,Right,
,,,,,,,,,,,,,,,,,518,20,Woman,Right,1,54,0.15,1,180,-,180,0.5467652999941492,['n'],0.39934720000019297,1.5899999999999999,1034.8074632999997,,,,,518,20,Woman,Right,
,,,,,,,,,,,,,,,,,518,20,Woman,Right,1,25,0.4,2,0,180,0,0.772205599998415,['n'],0.9119958000010229,1.526,1039.4402534999972,,,,,518,20,Woman,Right,
,,,,,,,,,,,,,,,,,518,20,Woman,Right,1,59,0.15,2,180,0,180,0.5066951000044355,['n'],0.7362948000009055,1.55,1043.8238872000002,,,,,518,20,Woman,Right,
,,,,,,,,,,,,,,,,,518,20,Woman,Right,1,40,0.4,1,0,-,0,0.4388376999995671,['n'],0.4155079000047408,1.5899999999999999,1048.5233689000015,,,,,518,20,Woman,Right,
,,,,,,,,,,,,,,,,,518,20,Woman,Right,1,6,1,1,180,-,180,0.47350420000293525,['n'],0.4472371999945608,2.0,1052.3407705999998,,,,,518,20,Woman,Right,
,,,,,,,,,,,,,,,,,518,20,Woman,Right,1,41,0.4,2,0,180,180,0.9338590000043041,['y'],0.5831862999984878,1.75,1057.1901354000001,,,,,518,20,Woman,Right,
,,,,,,,,,,,,,,,,,518,20,Woman,Right,1,66,0.15,1,180,-,0,4.679422000001068,['n'],0.48775810000370257,1.0,1065.5398501000018,,,,,518,20,Woman,Right,
,,,,,,,,,,,,,,,,,518,20,Woman,Right,1,14,0.4,1,180,-,0,1.54161820000445,['n'],0.9516928000011831,1.182,1071.6065376999977,,,,,518,20,Woman,Right,
,,,,,,,,,,,,,,,,,518,20,Woman,Right,1,60,0.15,1,0,-,0,0.5565884999959962,['n'],0.3829035999951884,1.684,1075.2565486000021,,,,,518,20,Woman,Right,
,,,,,,,,,,,,,,,,,518,20,Woman,Right,1,21,0.4,2,0,180,180,0.5931588000021293,['n'],0.5673776999974507,1.56,1079.7731829999975,,,,,518,20,Woman,Right,
,,,,,,,,,,,,,,,,,518,20,Woman,Right,1,73,0.15,2,0,180,0,2.088318900001468,['n'],0.4954054999980144,1.428,1085.9404213000016,,,,,518,20,Woman,Right,
,,,,,,,,,,,,,,,,,518,20,Woman,Right,1,79,0.15,2,180,0,0,1.2854197999986354,['n'],1.1037964999995893,1.316,1092.8569179999977,,,,,518,20,Woman,Right,
,,,,,,,,,,,,,,,,,518,20,Woman,Right,1,17,0.4,2,0,180,180,1.8748676000031992,['y'],0.9830768000028911,1.53,1099.7396344000008,,,,,518,20,Woman,Right,
,,,,,,,,,,,,,,,,,518,20,Woman,Right,1,77,0.15,2,0,180,0,2.5211017000037828,['n'],0.7272513000061736,1.0,1106.3068496999986,,,,,518,20,Woman,Right,
,,,,,,,,,,,,,,,,,518,20,Woman,Right,1,56,0.15,1,0,-,0,0.6273998999968171,['n'],0.36014820000127656,1.77,1110.3560824000015,,,,,518,20,Woman,Right,
,,,,,,,,,,,,,,,,,518,20,Woman,Right,1,50,0.15,1,180,-,0,1.6245318000001134,['y'],0.6880221999963396,1.568,1116.840539500001,,,,,518,20,Woman,Right,
,,,,,,,,,,,,,,,,,518,20,Woman,Right,1,46,0.15,1,180,-,180,0.697887800000899,['n'],1.311634600002435,1.444,1123.6227321000042,,,,,518,20,Woman,Right,
,,,,,,,,,,,,,,,,,518,20,Woman,Right,1,42,0.4,1,180,-,180,0.6161559000029229,['n'],0.4318520999950124,1.548,1127.7734074999971,,,,,518,20,Woman,Right,
,,,,,,,,,,,,,,,,,518,20,Woman,Right,1,55,0.15,2,180,0,0,0.7209979000035673,['y'],1.7203080999970553,1.534,1133.0397761999993,,,,,518,20,Woman,Right,
,,,,,,,,,,,,,,,,,518,20,Woman,Right,1,35,0.4,2,180,0,0,0.6752132999972673,['y'],1.0796676000027219,1.558,1137.8570478999973,,,,,518,20,Woman,Right,
,,,,,,,,,,,,,,,,,518,20,Woman,Right,1,18,0.4,1,180,-,0,1.300397700004396,['n'],0.3479485999996541,1.552,1142.6069212000002,,,,,518,20,Woman,Right,
,,,,,,,,,,,,,,,,,518,20,Woman,Right,1,69,0.15,2,0,180,0,1.7284079999953974,['n'],0.3432412999973167,1.564,1148.4898809000006,,,,,518,20,Woman,Right,
,,,,,,,,,,,,,,,,,518,20,Woman,Right,1,38,0.4,1,180,-,0,0.9677565999954822,['n'],0.416302599995106,1.57,1152.7724295000007,,,,,518,20,Woman,Right,
,,,,,,,,,,,,,,,,,518,20,Woman,Right,1,32,0.4,1,0,-,0,1.6193484000032186,['n'],0.3516252000044915,1.626,1157.8396859999993,,,,,518,20,Woman,Right,
,,,,,,,,,,,,,,,,,518,20,Woman,Right,1,11,0.4,2,180,0,0,1.0668839999998454,['y'],0.8237552999999025,1.726,1163.0056627000013,,,,,518,20,Woman,Right,
,,,,,,,,,,,,,,,,,518,20,Woman,Right,1,30,0.4,1,180,-,0,3.6474920000036946,['y'],1.463688199997705,1.682,1171.2222867000019,,,,,518,20,Woman,Right,
,,,,,,,,,,,,,,,,,518,20,Woman,Right,1,31,0.4,2,180,0,0,0.8217250000016065,['y'],0.6635169000001042,1.646,1175.7054825000014,,,,,518,20,Woman,Right,
,,,,,,,,,,,,,,,,,518,20,Woman,Right,1,13,0.4,2,0,180,180,0.9323607999976957,['y'],2.1593734999987646,1.6400000000000001,1181.7893794999982,,,,,518,20,Woman,Right,
,,,,,,,,,,,,,,,,,518,20,Woman,Right,1,39,0.4,2,180,0,0,1.2013599000056274,['y'],1.8804255000068224,1.6099999999999999,1188.0887882000025,,,,,518,20,Woman,Right,
,,,,,,,,,,,,,,,,,518,20,Woman,Right,1,8,0.4,1,0,-,0,0.7935480999949505,['n'],0.7916769000003114,1.232,1193.1893524000043,,,,,518,20,Woman,Right,
,,,,,,,,,,,,,,,,,518,20,Woman,Right,1,64,0.15,1,0,-,0,0.8760770999942906,['n'],0.6386799999963841,1.0,1198.0552338999987,,,,,518,20,Woman,Right,
,,,,,,,,,,,,,,,,,518,20,Woman,Right,1,26,0.4,1,180,-,180,0.8486828000022797,['n'],0.5833679999996093,1.304,1202.7393415999977,,,,,518,20,Woman,Right,
,,,,,,,,,,,,,,,,,518,20,Woman,Right,1,44,0.15,1,0,-,0,1.039928800004418,['n'],0.3830203000034089,1.584,1206.8724564000004,,,,,518,20,Woman,Right,
,,,,,,,,,,,,,,,,,518,20,Woman,Right,1,5,1,2,0,180,180,2.226660599997558,['y'],0.631033199999365,2.0,1212.6724890999976,,,,,518,20,Woman,Right,
,,,,,,,,,,,,,,,,,518,20,Woman,Right,1,27,0.4,2,180,0,0,0.8430566000024555,['y'],0.479116200003773,1.884,1217.1217303000012,,,,,518,20,Woman,Right,
,,,,,,,,,,,,,,,,,518,20,Woman,Right,1,49,0.15,2,0,180,180,1.0483566999973846,['n'],0.6792338000013842,1.6099999999999999,1221.988444100003,,,,,518,20,Woman,Right,
,,,,,,,,,,,,,,,,,518,20,Woman,Right,1,47,0.15,2,180,0,0,2.3183906999984174,['n'],1.1837660000019241,1.6400000000000001,1228.8383675000005,,,,,518,20,Woman,Right,
,,,,,,,,,,,,,,,,,518,20,Woman,Right,1,7,1,2,180,0,0,0.6670975999950315,['y'],0.8557345999943209,2.0,1233.6216822999995,,,,,518,20,Woman,Right,
,,,,,,,,,,,,,,,,,518,20,Woman,Right,1,36,0.4,1,0,-,0,1.0310795000041253,['n'],0.528161900001578,1.6680000000000001,1238.371561699998,,,,,518,20,Woman,Right,
,,,,,,,,,,,,,,,,,518,20,Woman,Right,1,28,0.4,1,0,-,0,0.8439768999960506,['n'],0.3672080999967875,1.678,1242.9057864999995,,,,,518,20,Woman,Right,
,,,,,,,,,,,,,,,,,518,20,Woman,Right,1,74,0.15,1,180,-,180,1.2814271000024746,['n'],0.9831623999998556,1.678,1248.1548392999975,,,,,518,20,Woman,Right,
,,,,,,,,,,,,,,,,,518,20,Woman,Right,1,45,0.15,2,0,180,180,0.7800338999950327,['n'],0.42424079999909736,1.762,1252.4546740000005,,,,,518,20,Woman,Right,
,,,,,,,,,,,,,,,,,518,20,Woman,Right,1,3,1,2,180,0,0,0.8990370000028634,['y'],0.7597939999977825,2.0,1256.8386936000024,,,,,518,20,Woman,Right,
,,,,,,,,,,,,,,,,,518,20,Woman,Right,1,75,0.15,2,180,0,180,0.997678799998539,['n'],0.4234502999970573,1.758,1261.7050357000044,,,,,518,20,Woman,Right,
,,,,,,,,,,,,,,,,,518,20,Woman,Right,1,51,0.15,2,180,0,0,0.5833788000018103,['n'],0.3968435999995563,1.76,1266.204767000003,,,,,518,20,Woman,Right,
,,,,,,,,,,,,,,,,,518,20,Woman,Right,1,53,0.15,2,0,180,0,0.6539405000003171,['n'],0.31959400000050664,1.75,1269.8215447999974,,,,,518,20,Woman,Right,
,,,,,,,,,,,,,,,,,518,20,Woman,Right,1,22,0.4,1,180,-,0,1.5164991999990889,['y'],0.8796424000029219,1.0,1275.1056927000027,,,,,518,20,Woman,Right,
,,,,,,,,,,,,,,,,,518,20,Woman,Right,1,34,0.4,1,180,-,180,0.537192399999185,['n'],0.8156319000045187,1.4020000000000001,1279.2711777000004,,,,,518,20,Woman,Right,
,,,,,,,,,,,,,,,,,518,20,Woman,Right,1,33,0.4,2,0,180,0,0.4356008999966434,['n'],0.6396935000011581,1.564,1283.2211258000025,,,,,518,20,Woman,Right,
,,,,,,,,,,,,,,,,,518,20,Woman,Right,1,71,0.15,2,180,0,180,0.7782071999972686,['n'],2.8399306000064826,1.552,1289.7045522999979,,,,,518,20,Woman,Right,
,,,,,,,,,,,,,,,,,518,20,Woman,Right,1,37,0.4,2,0,180,180,2.539897499998915,['y'],1.8558531000016956,1.428,1297.0877545999974,,,,,518,20,Woman,Right,
,,,,,,,,,,,,,,,,,518,20,Woman,Right,1,24,0.4,1,0,-,0,0.4125300999949104,['n'],2.1439953000008245,1.49,1303.7376569000044,,,,,518,20,Woman,Right,
,,,,,,,,,,,,,,,,,518,20,Woman,Right,1,70,0.15,1,180,-,180,0.5689268999994965,['n'],2.4238546999986283,1.52,1309.5546088999981,,,,,518,20,Woman,Right,
,,,,,,,,,,,,,,,,,518,20,Woman,Right,1,23,0.4,2,180,0,0,0.6776938999973936,['y'],0.7596922000011546,1.5779999999999998,1313.6542388000016,,,,,518,20,Woman,Right,
,,,,,,,,,,,,,,,,,518,20,Woman,Right,1,58,0.15,1,180,-,0,0.674221100001887,['n'],0.33562300000630785,1.54,1317.1374846000035,,,,,518,20,Woman,Right,
,,,,,,,,,,,,,,,,,518,20,Woman,Right,1,61,0.15,2,0,180,0,0.44142699999792967,['n'],0.34360040000319714,1.554,1320.4543247000038,,,,,518,20,Woman,Right,
,,,,,,,,,,,,,,,,,518,20,Woman,Right,1,20,0.4,1,0,-,0,0.4291908000013791,['n'],0.3275790000043344,1.608,1324.1707709999973,,,,,518,20,Woman,Right,
,,,,,,,,,,,,,,,,,518,20,Woman,Right,1,76,0.15,1,0,-,0,0.4303981000048225,['n'],0.3755706000010832,1.6019999999999999,1327.7706588,,,,,518,20,Woman,Right,
,,,,,,,,,,,,,,,,,518,20,Woman,Right,1,65,0.15,2,0,180,0,0.4472345000031055,['n'],0.3357636000000639,1.5819999999999999,1331.354043600004,,,,,518,20,Woman,Right,
,,,,,,,,,,,,,,,,,518,20,Woman,Right,1,1,1,2,0,180,180,0.608529000004637,['y'],0.7116736000025412,2.0,1335.320584000001,,,,,518,20,Woman,Right,
,,,,,,,,,,,,,,,,,518,20,Woman,Right,1,78,0.15,1,180,-,0,0.5371484999996028,['n'],0.3916787000052864,1.758,1339.6039261000042,,,,,518,20,Woman,Right,
,,,,,,,,,,,,,,,,,518,20,Woman,Right,1,57,0.15,2,0,180,0,0.46493520000512945,['n'],0.7756640999941737,1.558,1343.3538728999993,,,,,518,20,Woman,Right,
,,,,,,,,,,,,,,,,,518,20,Woman,Right,1,52,0.15,1,0,-,0,0.4582337000028929,['n'],0.3277111999996123,1.69,1347.1711379999979,,,,,518,20,Woman,Right,
,,,,,,,,,,,,,,,,,518,20,Woman,Right,2,38,0.4,1,180,-,180,0.45968790000188164,['n'],5.776403099996969,1.0,1369.3543242000014,66.25,90.0,45.0,,518,20,Woman,Right,
,,,,,,,,,,,,,,,,,518,20,Woman,Right,2,1,1,2,0,180,180,1.8574855999977444,['y'],0.7270809000037843,2.0,1376.5701313000027,,,,,518,20,Woman,Right,
,,,,,,,,,,,,,,,,,518,20,Woman,Right,2,46,0.15,1,180,-,0,0.8239687000022968,['n'],0.7590892000007443,1.436,1381.9875832000034,,,,,518,20,Woman,Right,
,,,,,,,,,,,,,,,,,518,20,Woman,Right,2,9,0.4,2,0,180,180,0.5742393000036827,['y'],1.5599111000046832,1.556,1387.3036485999983,,,,,518,20,Woman,Right,
,,,,,,,,,,,,,,,,,518,20,Woman,Right,2,26,0.4,1,180,-,0,0.4647363999974914,['n'],0.3197807999968063,1.548,1391.1033214999989,,,,,518,20,Woman,Right,
,,,,,,,,,,,,,,,,,518,20,Woman,Right,2,13,0.4,2,0,180,180,0.39966979999735486,['y'],0.40725380000367295,1.554,1395.053633399999,,,,,518,20,Woman,Right,
,,,,,,,,,,,,,,,,,518,20,Woman,Right,2,53,0.15,2,0,180,180,1.908726800000295,['y'],0.831793799996376,1.3780000000000001,1402.3205682999978,,,,,518,20,Woman,Right,
,,,,,,,,,,,,,,,,,518,20,Woman,Right,2,10,0.4,1,180,-,180,0.6128839999946649,['n'],0.7518057000052067,1.5899999999999999,1407.0532310999988,,,,,518,20,Woman,Right,
,,,,,,,,,,,,,,,,,518,20,Woman,Right,2,27,0.4,2,180,0,0,1.613552199996775,['n'],0.5839218000037363,1.572,1413.6873178000023,,,,,518,20,Woman,Right,
,,,,,,,,,,,,,,,,,518,20,Woman,Right,2,64,0.15,1,0,-,0,0.6611115999985486,['n'],0.3025894999955199,1.562,1417.637169200003,,,,,518,20,Woman,Right,
,,,,,,,,,,,,,,,,,518,20,Woman,Right,2,74,0.15,1,180,-,0,0.39420800000516465,['n'],0.3826060999999754,1.528,1421.0204862000028,,,,,518,20,Woman,Right,
,,,,,,,,,,,,,,,,,518,20,Woman,Right,2,42,0.4,1,180,-,180,0.44579840000369586,['n'],0.5673757000040496,1.548,1424.737114800002,,,,,518,20,Woman,Right,
,,,,,,,,,,,,,,,,,518,20,Woman,Right,2,76,0.15,1,0,-,180,0.35101740000391146,['n'],0.5272855000002892,1.546,1428.119589300004,,,,,518,20,Woman,Right,
,,,,,,,,,,,,,,,,,518,20,Woman,Right,2,59,0.15,2,180,0,0,0.3989651000010781,['n'],0.4719725999966613,1.538,1431.7536527999982,,,,,518,20,Woman,Right,
,,,,,,,,,,,,,,,,,518,20,Woman,Right,2,8,0.4,1,0,-,0,0.3533229000022402,['n'],1.3356621999992058,1.534,1437.1197641000035,,,,,518,20,Woman,Right,
,,,,,,,,,,,,,,,,,518,20,Woman,Right,2,14,0.4,1,180,-,180,0.3691850000031991,['n'],0.33516030000464525,1.544,1440.269947599998,,,,,518,20,Woman,Right,
,,,,,,,,,,,,,,,,,518,20,Woman,Right,2,69,0.15,2,0,180,0,0.3064675999994506,['n'],0.7115911000000779,1.546,1444.2871023000043,,,,,518,20,Woman,Right,
,,,,,,,,,,,,,,,,,518,20,Woman,Right,2,79,0.15,2,180,0,0,0.36187400000198977,['n'],0.6796130999937304,1.538,1448.336049700003,,,,,518,20,Woman,Right,
,,,,,,,,,,,,,,,,,518,20,Woman,Right,2,29,0.4,2,0,180,180,0.8205165999970632,['y'],0.8554790999987745,1.552,1453.4861089000042,,,,,518,20,Woman,Right,
,,,,,,,,,,,,,,,,,518,20,Woman,Right,2,0,1,1,0,-,0,0.5518456999998307,['n'],0.39192040000489214,1.55,1457.036054199998,,,,,518,20,Woman,Right,
,,,,,,,,,,,,,,,,,518,20,Woman,Right,2,3,1,2,180,0,0,0.6559716999981902,['y'],0.5990362000011373,1.81,1461.3192879999988,,,,,518,20,Woman,Right,
,,,,,,,,,,,,,,,,,518,20,Woman,Right,2,47,0.15,2,180,0,0,0.6521525999996811,['n'],0.36791149999771733,1.418,1466.7860642000014,,,,,518,20,Woman,Right,
,,,,,,,,,,,,,,,,,518,20,Woman,Right,2,58,0.15,1,180,-,0,0.3446516999974847,['n'],0.31927889999496983,1.546,1470.2859026000006,,,,,518,20,Woman,Right,
,,,,,,,,,,,,,,,,,518,20,Woman,Right,2,19,0.4,2,180,0,0,0.6064068999985466,['y'],0.45516670000506565,1.418,1474.5365921999983,,,,,518,20,Woman,Right,
,,,,,,,,,,,,,,,,,518,20,Woman,Right,2,67,0.15,2,180,0,180,0.3271524000010686,['n'],1.7189342999990913,1.524,1479.3873946000022,,,,,518,20,Woman,Right,
,,,,,,,,,,,,,,,,,518,20,Woman,Right,2,56,0.15,1,0,-,180,0.3686253000050783,['n'],0.8876866999999038,1.634,1483.369907100001,,,,,518,20,Woman,Right,
,,,,,,,,,,,,,,,,,518,20,Woman,Right,2,49,0.15,2,0,180,0,0.429980599998089,['n'],0.6475800999978674,1.696,1487.7697606000002,,,,,518,20,Woman,Right,
,,,,,,,,,,,,,,,,,518,20,Woman,Right,2,66,0.15,1,180,-,180,0.643732500000624,['n'],0.3756970000031288,1.704,1491.802764699998,,,,,518,20,Woman,Right,
,,,,,,,,,,,,,,,,,518,20,Woman,Right,2,75,0.15,2,180,0,180,0.5389893000028678,['n'],0.4233702000055928,1.6280000000000001,1495.7022889,,,,,518,20,Woman,Right,
,,,,,,,,,,,,,,,,,518,20,Woman,Right,2,72,0.15,1,0,-,0,0.3739696999982698,['n'],0.3355870000013965,1.662,1499.3692013000036,,,,,518,20,Woman,Right,
,,,,,,,,,,,,,,,,,518,20,Woman,Right,2,71,0.15,2,180,0,0,0.3999870999978157,['n'],0.3114715999981854,1.62,1502.7025653000019,,,,,518,20,Woman,Right,
,,,,,,,,,,,,,,,,,518,20,Woman,Right,2,11,0.4,2,180,0,180,0.3755925000004936,['n'],0.36752659999910975,1.6099999999999999,1507.2854958000025,,,,,518,20,Woman,Right,
,,,,,,,,,,,,,,,,,518,20,Woman,Right,2,2,1,1,180,-,180,0.3388340000019525,['n'],0.2959039000052144,2.0,1510.4355539000026,,,,,518,20,Woman,Right,
,,,,,,,,,,,,,,,,,518,20,Woman,Right,2,48,0.15,1,0,-,0,0.39520210000046063,['n'],0.32690179999917746,1.806,1513.8860924000037,,,,,518,20,Woman,Right,
,,,,,,,,,,,,,,,,,518,20,Woman,Right,2,68,0.15,1,0,-,0,0.5322213000035845,['n'],0.32733359999838285,1.812,1517.7027522999997,,,,,518,20,Woman,Right,
,,,,,,,,,,,,,,,,,518,20,Woman,Right,2,55,0.15,2,180,0,180,0.3555421000055503,['n'],0.7428055999989738,1.63,1522.236381900002,,,,,518,20,Woman,Right,
,,,,,,,,,,,,,,,,,518,20,Woman,Right,2,40,0.4,1,0,-,0,1.7020842999991146,['n'],0.9997092000048724,1.6059999999999999,1528.685350300002,,,,,518,20,Woman,Right,
,,,,,,,,,,,,,,,,,518,20,Woman,Right,2,60,0.15,1,0,-,180,1.0223990000013146,['n'],1.503480799998215,1.3519999999999999,1534.0525867000033,,,,,518,20,Woman,Right,
,,,,,,,,,,,,,,,,,518,20,Woman,Right,2,73,0.15,2,0,180,0,0.3773345000008703,['n'],1.7676700999945751,1.5819999999999999,1539.5185883000013,,,,,518,20,Woman,Right,
,,,,,,,,,,,,,,,,,518,20,Woman,Right,2,24,0.4,1,0,-,0,1.4866609000018798,['n'],0.9115906999941217,1.184,1544.5525106999994,,,,,518,20,Woman,Right,
,,,,,,,,,,,,,,,,,518,20,Woman,Right,2,20,0.4,1,0,-,0,1.0363780000043334,['n'],0.6237768999999389,1.536,1549.3018550999986,,,,,518,20,Woman,Right,
,,,,,,,,,,,,,,,,,518,20,Woman,Right,2,45,0.15,2,0,180,0,0.6167585000002873,['n'],0.9836685999980546,1.204,1553.5852300999977,,,,,518,20,Woman,Right,
,,,,,,,,,,,,,,,,,518,20,Woman,Right,2,22,0.4,1,180,-,180,0.42195499999797903,['n'],0.5517657999953371,1.804,1557.4026021000027,,,,,518,20,Woman,Right,
,,,,,,,,,,,,,,,,,518,20,Woman,Right,2,52,0.15,1,0,-,0,0.43602829999872483,['n'],0.487235900000087,1.554,1561.4689042000027,,,,,518,20,Woman,Right,
,,,,,,,,,,,,,,,,,518,20,Woman,Right,2,65,0.15,2,0,180,0,0.7766975999984425,['n'],1.0797153000021353,1.566,1565.9690573000044,,,,,518,20,Woman,Right,
,,,,,,,,,,,,,,,,,518,20,Woman,Right,2,77,0.15,2,0,180,180,0.3768006999962381,['n'],0.6788360999998986,1.53,1571.4515346999979,,,,,518,20,Woman,Right,
,,,,,,,,,,,,,,,,,518,20,Woman,Right,2,39,0.4,2,180,0,180,0.37151900000026217,['n'],0.3996179000023403,1.806,1574.868742300001,,,,,518,20,Woman,Right,
,,,,,,,,,,,,,,,,,518,20,Woman,Right,2,51,0.15,2,180,0,180,1.2153382000033162,['n'],0.7193670999986352,1.3719999999999999,1579.2348875000025,,,,,518,20,Woman,Right,
,,,,,,,,,,,,,,,,,518,20,Woman,Right,2,61,0.15,2,0,180,180,0.9043309999979101,['n'],0.4549306999979308,1.5739999999999998,1583.2348459999994,,,,,518,20,Woman,Right,
,,,,,,,,,,,,,,,,,518,20,Woman,Right,2,30,0.4,1,180,-,180,1.1372226999956183,['n'],0.6881448999993154,1.3639999999999999,1587.9188426000037,,,,,518,20,Woman,Right,
,,,,,,,,,,,,,,,,,518,20,Woman,Right,2,37,0.4,2,0,180,0,0.42868669999734266,['n'],0.42287770000257296,1.3399999999999999,1591.5188533000037,,,,,518,20,Woman,Right,
,,,,,,,,,,,,,,,,,518,20,Woman,Right,2,54,0.15,1,180,-,180,0.7246053999988362,['n'],0.35977160000038566,1.256,1595.4347437000033,,,,,518,20,Woman,Right,
,,,,,,,,,,,,,,,,,518,20,Woman,Right,2,7,1,2,180,0,0,2.009338800002297,['y'],1.0637793999994756,1.736,1601.534661800004,,,,,518,20,Woman,Right,
,,,,,,,,,,,,,,,,,518,20,Woman,Right,2,16,0.4,1,0,-,0,2.270449700001336,['n'],0.9917158000025665,1.17,1607.9020928000027,,,,,518,20,Woman,Right,
,,,,,,,,,,,,,,,,,518,20,Woman,Right,2,17,0.4,2,0,180,180,1.759132999999565,['y'],1.6000143999990541,1.3900000000000001,1614.5677886999983,,,,,518,20,Woman,Right,
,,,,,,,,,,,,,,,,,518,20,Woman,Right,2,12,0.4,1,0,-,0,0.5441101999967941,['n'],1.1840698999949382,1.404,1619.318909900001,,,,,518,20,Woman,Right,
,,,,,,,,,,,,,,,,,518,20,Woman,Right,2,31,0.4,2,180,0,180,0.5438730000023497,['n'],3.1923137999983737,1.0,1626.0178237,,,,,518,20,Woman,Right,
,,,,,,,,,,,,,,,,,518,20,Woman,Right,2,50,0.15,1,180,-,180,0.541174800004228,['n'],1.2392253999933018,1.672,1631.9183199000036,,,,,518,20,Woman,Right,
,,,,,,,,,,,,,,,,,518,20,Woman,Right,2,32,0.4,1,0,-,0,0.6581424000032712,['n'],0.3359892000007676,1.4140000000000001,1636.652283000003,,,,,518,20,Woman,Right,
,,,,,,,,,,,,,,,,,518,20,Woman,Right,2,21,0.4,2,0,180,0,0.31614429999899585,['n'],1.599726800006465,1.224,1641.3175622999988,,,,,518,20,Woman,Right,
,,,,,,,,,,,,,,,,,518,20,Woman,Right,2,15,0.4,2,180,0,0,1.1694719000006444,['y'],0.8884991999948397,1.276,1646.1516686000032,,,,,518,20,Woman,Right,
,,,,,,,,,,,,,,,,,518,20,Woman,Right,2,25,0.4,2,0,180,180,1.6423325999930967,['y'],0.7353819999989355,1.3399999999999999,1651.3515764999975,,,,,518,20,Woman,Right,
,,,,,,,,,,,,,,,,,518,20,Woman,Right,2,44,0.15,1,0,-,0,0.5973965000011958,['n'],0.912017200003902,1.63,1656.0015668999986,,,,,518,20,Woman,Right,
,,,,,,,,,,,,,,,,,518,20,Woman,Right,2,63,0.15,2,180,0,180,0.6879509999998845,['y'],0.6719196999983978,1.0,1660.0013213999991,,,,,518,20,Woman,Right,
,,,,,,,,,,,,,,,,,518,20,Woman,Right,2,36,0.4,1,0,-,0,0.4198774999968009,['n'],0.792143999999098,1.62,1664.1007043999998,,,,,518,20,Woman,Right,
,,,,,,,,,,,,,,,,,518,20,Woman,Right,2,23,0.4,2,180,0,0,0.40758989999449113,['n'],1.310822499995993,1.532,1668.8009622000027,,,,,518,20,Woman,Right,
,,,,,,,,,,,,,,,,,518,20,Woman,Right,2,78,0.15,1,180,-,0,0.5008528999969712,['n'],0.6719542999999248,1.56,1672.7006383000044,,,,,518,20,Woman,Right,
,,,,,,,,,,,,,,,,,518,20,Woman,Right,2,33,0.4,2,0,180,180,0.7016741000043112,['y'],0.5191602999984752,1.278,1676.8674144000033,,,,,518,20,Woman,Right,
,,,,,,,,,,,,,,,,,518,20,Woman,Right,2,18,0.4,1,180,-,180,0.5972563999966951,['n'],0.8069777000055183,1.666,1680.983877999999,,,,,518,20,Woman,Right,
,,,,,,,,,,,,,,,,,518,20,Woman,Right,2,41,0.4,2,0,180,180,0.6317720000006375,['y'],0.6555761999989045,1.3980000000000001,1685.050828200001,,,,,518,20,Woman,Right,
,,,,,,,,,,,,,,,,,518,20,Woman,Right,2,5,1,2,0,180,180,1.4297659000003478,['y'],0.43174569999973755,2.0,1689.400515100002,,,,,518,20,Woman,Right,
,,,,,,,,,,,,,,,,,518,20,Woman,Right,2,4,1,1,0,-,0,0.7395555999974022,['n'],0.37505070000042906,1.81,1693.1838217999975,,,,,518,20,Woman,Right,
,,,,,,,,,,,,,,,,,518,20,Woman,Right,2,57,0.15,2,0,180,0,1.5113965999989887,['n'],0.3524316000039107,1.4020000000000001,1697.7018059999973,,,,,518,20,Woman,Right,
,,,,,,,,,,,,,,,,,518,20,Woman,Right,2,43,0.4,2,180,0,0,0.7152464000027976,['n'],0.34324230000493117,1.542,1701.5505140000023,,,,,518,20,Woman,Right,
,,,,,,,,,,,,,,,,,518,20,Woman,Right,2,28,0.4,1,0,-,0,0.5557248999975855,['n'],0.4315833000000566,1.5739999999999998,1705.0170263999971,,,,,518,20,Woman,Right,
,,,,,,,,,,,,,,,,,518,20,Woman,Right,2,35,0.4,2,180,0,0,1.3279590999954962,['y'],0.34394199999951525,1.38,1709.383645599999,,,,,518,20,Woman,Right,
,,,,,,,,,,,,,,,,,518,20,Woman,Right,2,62,0.15,1,180,-,180,0.44215880000410834,['n'],0.35874909999984084,1.558,1713.0675470999995,,,,,518,20,Woman,Right,
,,,,,,,,,,,,,,,,,518,20,Woman,Right,2,34,0.4,1,180,-,0,0.6146047000002,['n'],1.103912799997488,1.544,1717.7509800999978,,,,,518,20,Woman,Right,
,,,,,,,,,,,,,,,,,518,20,Woman,Right,2,70,0.15,1,180,-,180,2.894615099998191,['n'],0.30334440000297036,1.546,1723.8341340000043,,,,,518,20,Woman,Right,
,,,,,,,,,,,,,,,,,518,20,Woman,Right,2,6,1,1,180,-,180,0.38445779999892693,['n'],0.9201955999960774,2.0,1727.6166853000032,,,,,518,20,Woman,Right,
,,,,,,,,,,,,,,,,,518,20,Woman,Right,3,2,1,1,180,-,180,0.5656856999994488,['n'],0.8787997999970685,1.896,1741.2006325999973,68.75,100.0,40.0,,518,20,Woman,Right,
,,,,,,,,,,,,,,,,,518,20,Woman,Right,3,26,0.4,1,180,-,0,5.920857299999625,['n'],1.3915505000040866,1.714,1752.8836736000012,,,,,518,20,Woman,Right,
,,,,,,,,,,,,,,,,,518,20,Woman,Right,3,39,0.4,2,180,0,0,1.2603029999954742,['y'],0.5434767999977339,1.548,1757.7998447999998,,,,,518,20,Woman,Right,
,,,,,,,,,,,,,,,,,518,20,Woman,Right,3,20,0.4,1,0,-,0,0.4070263000030536,['n'],0.5429430000003777,1.3399999999999999,1761.3998092999973,,,,,518,20,Woman,Right,
,,,,,,,,,,,,,,,,,518,20,Woman,Right,3,37,0.4,2,0,180,180,1.0791260999976657,['y'],1.2879247999953805,1.0,1767.6164537000004,,,,,518,20,Woman,Right,
,,,,,,,,,,,,,,,,,518,20,Woman,Right,3,48,0.15,1,0,-,0,0.47080300000379793,['n'],0.3917576999956509,1.51,1771.8164191000033,,,,,518,20,Woman,Right,
,,,,,,,,,,,,,,,,,518,20,Woman,Right,3,54,0.15,1,180,-,0,0.6321844000049168,['n'],0.4069025999997393,1.6360000000000001,1776.2006016000014,,,,,518,20,Woman,Right,
,,,,,,,,,,,,,,,,,518,20,Woman,Right,3,46,0.15,1,180,-,0,0.4298914999963017,['n'],0.5112732999987202,1.576,1780.949564100003,,,,,518,20,Woman,Right,
,,,,,,,,,,,,,,,,,518,20,Woman,Right,3,16,0.4,1,0,-,0,0.37167670000053477,['n'],0.5117432999977609,1.56,1785.4995490000001,,,,,518,20,Woman,Right,
,,,,,,,,,,,,,,,,,518,20,Woman,Right,3,15,0.4,2,180,0,180,0.7731923999963328,['n'],0.3993713000018033,1.554,1789.766249500004,,,,,518,20,Woman,Right,
,,,,,,,,,,,,,,,,,518,20,Woman,Right,3,4,1,1,0,-,0,0.5744775999992271,['n'],0.7430304000008618,1.3559999999999999,1793.900131100003,,,,,518,20,Woman,Right,
,,,,,,,,,,,,,,,,,518,20,Woman,Right,3,14,0.4,1,180,-,180,1.058737100000144,['n'],1.8075917000023765,1.566,1799.466876700004,,,,,518,20,Woman,Right,
,,,,,,,,,,,,,,,,,518,20,Woman,Right,3,23,0.4,2,180,0,0,0.6672505999958958,['y'],0.43895899999915855,1.53,1806.283383300004,,,,,518,20,Woman,Right,
,,,,,,,,,,,,,,,,,518,20,Woman,Right,3,36,0.4,1,0,-,0,0.750487899997097,['n'],0.655488599993987,1.562,1810.7492859999984,,,,,518,20,Woman,Right,
,,,,,,,,,,,,,,,,,518,20,Woman,Right,3,25,0.4,2,0,180,0,0.3189107999933185,['n'],0.6633684999978868,1.548,1814.5666493000026,,,,,518,20,Woman,Right,
,,,,,,,,,,,,,,,,,518,20,Woman,Right,3,34,0.4,1,180,-,180,1.0562927999999374,['n'],0.4795155999963754,1.8439999999999999,1818.9330507999985,,,,,518,20,Woman,Right,
,,,,,,,,,,,,,,,,,518,20,Woman,Right,3,51,0.15,2,180,0,180,0.3054539000004297,['n'],0.7915670000002137,1.5779999999999998,1825.6504054000034,,,,,518,20,Woman,Right,
,,,,,,,,,,,,,,,,,518,20,Woman,Right,3,11,0.4,2,180,0,180,0.5162660999994841,['n'],0.7434116000003996,1.562,1829.716694900002,,,,,518,20,Woman,Right,
,,,,,,,,,,,,,,,,,518,20,Woman,Right,3,17,0.4,2,0,180,0,0.7501233000002685,['n'],0.42845439999655355,1.544,1834.0497977999985,,,,,518,20,Woman,Right,
,,,,,,,,,,,,,,,,,518,20,Woman,Right,3,67,0.15,2,180,0,180,1.2402380000057747,['n'],0.39206279999780236,1.786,1838.4324189000035,,,,,518,20,Woman,Right,
,,,,,,,,,,,,,,,,,518,20,Woman,Right,3,74,0.15,1,180,-,0,0.50492139999551,['n'],1.2396330999981728,2.0,1843.6163300999979,,,,,518,20,Woman,Right,
,,,,,,,,,,,,,,,,,518,20,Woman,Right,3,29,0.4,2,0,180,0,0.7046249999984866,['n'],0.3111830000052578,2.0,1848.5996898000012,,,,,518,20,Woman,Right,
,,,,,,,,,,,,,,,,,518,20,Woman,Right,3,70,0.15,1,180,-,0,1.6325691000020015,['n'],0.287141500004509,2.0,1853.2154649000004,,,,,518,20,Woman,Right,
,,,,,,,,,,,,,,,,,518,20,Woman,Right,3,3,1,2,180,0,0,1.8158322000017506,['y'],0.9838491999980761,2.0,1858.782800699999,,,,,518,20,Woman,Right,
,,,,,,,,,,,,,,,,,518,20,Woman,Right,3,38,0.4,1,180,-,180,0.6501213000010466,['n'],0.3041483999986667,1.812,1862.9158824000042,,,,,518,20,Woman,Right,
,,,,,,,,,,,,,,,,,518,20,Woman,Right,3,76,0.15,1,0,-,0,0.4110780999981216,['n'],0.3032722000061767,1.75,1866.765435100002,,,,,518,20,Woman,Right,
,,,,,,,,,,,,,,,,,518,20,Woman,Right,3,19,0.4,2,180,0,0,0.559955999997328,['n'],0.8235629000046174,1.0,1873.8660270999972,,,,,518,20,Woman,Right,
,,,,,,,,,,,,,,,,,518,20,Woman,Right,3,8,0.4,1,0,-,0,1.7913002999994205,['n'],0.27981829999771435,1.634,1878.8825789000039,,,,,518,20,Woman,Right,
,,,,,,,,,,,,,,,,,518,20,Woman,Right,3,12,0.4,1,0,-,0,0.3422253000026103,['n'],2.351755099996808,1.6680000000000001,1889.7999001999997,,,,,518,20,Woman,Right,
,,,,,,,,,,,,,,,,,518,20,Woman,Right,3,41,0.4,2,0,180,180,0.6266892000057851,['y'],0.6555432000022847,1.318,1893.8825902000026,,,,,518,20,Woman,Right,
,,,,,,,,,,,,,,,,,518,20,Woman,Right,3,40,0.4,1,0,-,180,0.6010879000023124,['y'],1.0241013999984716,1.3940000000000001,1898.098480200002,,,,,518,20,Woman,Right,
,,,,,,,,,,,,,,,,,518,20,Woman,Right,3,66,0.15,1,180,-,0,4.156778600001417,['n'],0.33546840000053635,1.0,1907.1653614000024,,,,,518,20,Woman,Right,
,,,,,,,,,,,,,,,,,518,20,Woman,Right,3,63,0.15,2,180,0,0,0.6081253000011202,['n'],0.5346503000037046,1.726,1911.0316250000033,,,,,518,20,Woman,Right,
,,,,,,,,,,,,,,,,,518,20,Woman,Right,3,0,1,1,0,-,0,0.412212900002487,['n'],0.43899299999611685,2.0,1914.5824159999975,,,,,518,20,Woman,Right,
,,,,,,,,,,,,,,,,,518,20,Woman,Right,3,59,0.15,2,180,0,180,0.41307019999658223,['n'],0.7917539999980363,1.798,1918.7649170000004,,,,,518,20,Woman,Right,
,,,,,,,,,,,,,,,,,518,20,Woman,Right,3,55,0.15,2,180,0,180,0.5777209000007133,['n'],0.3271413999973447,1.694,1922.6149098000024,,,,,518,20,Woman,Right,
,,,,,,,,,,,,,,,,,518,20,Woman,Right,3,77,0.15,2,0,180,0,0.4175314999956754,['n'],0.2561363000058918,1.686,1926.3990107999998,,,,,518,20,Woman,Right,
,,,,,,,,,,,,,,,,,518,20,Woman,Right,3,32,0.4,1,0,-,0,0.6067208999957074,['n'],0.5997767000008025,1.458,1930.4649497999999,,,,,518,20,Woman,Right,
,,,,,,,,,,,,,,,,,518,20,Woman,Right,3,62,0.15,1,180,-,0,0.40506009999808157,['n'],0.35988179999549175,1.696,1933.9321046999976,,,,,518,20,Woman,Right,
,,,,,,,,,,,,,,,,,518,20,Woman,Right,3,30,0.4,1,180,-,180,0.4756462000004831,['n'],0.42345149999891873,1.742,1937.7820982999983,,,,,518,20,Woman,Right,
,,,,,,,,,,,,,,,,,518,20,Woman,Right,3,18,0.4,1,180,-,180,0.28196070000558393,['n'],0.32697669999470236,1.702,1941.064712899999,,,,,518,20,Woman,Right,
,,,,,,,,,,,,,,,,,518,20,Woman,Right,3,31,0.4,2,180,0,0,2.5089970999979414,['y'],0.34429480000108015,1.334,1946.531348299999,,,,,518,20,Woman,Right,
,,,,,,,,,,,,,,,,,518,20,Woman,Right,3,69,0.15,2,0,180,180,2.214523399998143,['n'],0.2942246000020532,1.262,1951.631282800001,,,,,518,20,Woman,Right,
,,,,,,,,,,,,,,,,,518,20,Woman,Right,3,47,0.15,2,180,0,180,0.7348411999992095,['n'],0.5357313999993494,1.354,1955.831240899999,,,,,518,20,Woman,Right,
,,,,,,,,,,,,,,,,,518,20,Woman,Right,3,42,0.4,1,180,-,180,0.46587410000211094,['n'],0.6308929999941029,1.346,1960.0993297000023,,,,,518,20,Woman,Right,
,,,,,,,,,,,,,,,,,518,20,Woman,Right,3,50,0.15,1,180,-,180,0.3339581999971415,['n'],0.33470240000315243,1.5859999999999999,1963.4480210999973,,,,,518,20,Woman,Right,
,,,,,,,,,,,,,,,,,518,20,Woman,Right,3,5,1,2,0,180,180,2.3219991000005393,['y'],0.9682248000026448,2.0,1969.4317419,,,,,518,20,Woman,Right,
,,,,,,,,,,,,,,,,,518,20,Woman,Right,3,6,1,1,180,-,180,0.6000921000013477,['n'],0.328291599995282,1.546,1972.9817124000037,,,,,518,20,Woman,Right,
,,,,,,,,,,,,,,,,,518,20,Woman,Right,3,68,0.15,1,0,-,0,0.3495337999993353,['n'],0.5028144999960205,1.6019999999999999,1977.3480424000008,,,,,518,20,Woman,Right,
,,,,,,,,,,,,,,,,,518,20,Woman,Right,3,56,0.15,1,0,-,0,0.3275818000038271,['n'],2.2958207999981823,1.424,1983.681162599998,,,,,518,20,Woman,Right,
,,,,,,,,,,,,,,,,,518,20,Woman,Right,3,75,0.15,2,180,0,180,0.29722580000088783,['n'],0.262870099999418,1.734,1987.248228299999,,,,,518,20,Woman,Right,
,,,,,,,,,,,,,,,,,518,20,Woman,Right,3,79,0.15,2,180,0,180,1.2959332999962498,['n'],0.3755338999981177,1.6640000000000001,1991.3308317999981,,,,,518,20,Woman,Right,
,,,,,,,,,,,,,,,,,518,20,Woman,Right,3,78,0.15,1,180,-,180,1.0236431999946944,['n'],0.5197492000006605,1.5939999999999999,1995.731385500003,,,,,518,20,Woman,Right,
,,,,,,,,,,,,,,,,,518,20,Woman,Right,3,10,0.4,1,180,-,180,0.484447499999078,['n'],0.35101079999731155,1.548,1999.2317679000043,,,,,518,20,Woman,Right,
,,,,,,,,,,,,,,,,,518,20,Woman,Right,3,43,0.4,2,180,0,180,0.8250690999993822,['y'],2.0396202000047197,1.0,2004.5640767000004,,,,,518,20,Woman,Right,
,,,,,,,,,,,,,,,,,518,20,Woman,Right,3,35,0.4,2,180,0,180,0.9177203999934136,['n'],1.1597290999998222,1.4,2009.3328325999973,,,,,518,20,Woman,Right,
,,,,,,,,,,,,,,,,,518,20,Woman,Right,3,73,0.15,2,0,180,180,0.6042465999998967,['n'],0.6230179999984102,1.3780000000000001,2013.3314532000004,,,,,518,20,Woman,Right,
,,,,,,,,,,,,,,,,,518,20,Woman,Right,3,27,0.4,2,180,0,0,0.9871291000017663,['y'],1.120703600005072,1.0,2018.330829999999,,,,,518,20,Woman,Right,
,,,,,,,,,,,,,,,,,518,20,Woman,Right,3,7,1,2,180,0,0,0.4769379999997909,['y'],0.6798611000049277,2.0,2022.0139047999983,,,,,518,20,Woman,Right,
,,,,,,,,,,,,,,,,,518,20,Woman,Right,3,49,0.15,2,0,180,180,0.5695630999980494,['n'],0.43108829999982845,1.624,2025.5805553000027,,,,,518,20,Woman,Right,
,,,,,,,,,,,,,,,,,518,20,Woman,Right,3,72,0.15,1,0,-,0,0.6112271999954828,['n'],0.4873243999973056,1.566,2035.6307744000005,,,,,518,20,Woman,Right,
,,,,,,,,,,,,,,,,,518,20,Woman,Right,3,33,0.4,2,0,180,180,1.0283029000056558,['y'],0.7109020999996574,1.0,2039.9304749000003,,,,,518,20,Woman,Right,
,,,,,,,,,,,,,,,,,518,20,Woman,Right,3,60,0.15,1,0,-,0,0.5835718000016641,['n'],0.33505620000505587,1.77,2043.7809839999973,,,,,518,20,Woman,Right,
,,,,,,,,,,,,,,,,,518,20,Woman,Right,3,28,0.4,1,0,-,0,0.31023650000133784,['n'],0.7361832000024151,1.694,2048.063747500004,,,,,518,20,Woman,Right,
,,,,,,,,,,,,,,,,,518,20,Woman,Right,3,53,0.15,2,0,180,0,1.203685200001928,['n'],0.24667829999816604,2.0,2052.146993299997,,,,,518,20,Woman,Right,
,,,,,,,,,,,,,,,,,518,20,Woman,Right,3,24,0.4,1,0,-,0,0.3964105999984895,['n'],0.5111269000044558,2.0,2056.380256700002,,,,,518,20,Woman,Right,
,,,,,,,,,,,,,,,,,518,20,Woman,Right,3,9,0.4,2,0,180,0,0.7673054999977467,['n'],0.77571860000171,1.206,2062.1975371000008,,,,,518,20,Woman,Right,
,,,,,,,,,,,,,,,,,518,20,Woman,Right,3,58,0.15,1,180,-,0,0.8537629000056768,['n'],0.36727830000018,2.0,2066.3969658999995,,,,,518,20,Woman,Right,
,,,,,,,,,,,,,,,,,518,20,Woman,Right,3,45,0.15,2,0,180,0,0.5247353000013391,['n'],0.502805600001011,1.662,2071.913572700003,,,,,518,20,Woman,Right,
,,,,,,,,,,,,,,,,,518,20,Woman,Right,3,71,0.15,2,180,0,180,0.48849060000065947,['n'],1.8557073999982094,1.722,2077.763978200004,,,,,518,20,Woman,Right,
,,,,,,,,,,,,,,,,,518,20,Woman,Right,3,22,0.4,1,180,-,180,0.9953839000008884,['n'],1.2236376000000746,1.568,2082.7466981000034,,,,,518,20,Woman,Right,
,,,,,,,,,,,,,,,,,518,20,Woman,Right,3,65,0.15,2,0,180,0,0.36677570000028936,['n'],1.0557559999942896,1.556,2086.7305744999976,,,,,518,20,Woman,Right,
,,,,,,,,,,,,,,,,,518,20,Woman,Right,3,64,0.15,1,0,-,0,0.26802329999918584,['n'],0.7757573999988381,1.546,2090.5972747999986,,,,,518,20,Woman,Right,
,,,,,,,,,,,,,,,,,518,20,Woman,Right,3,13,0.4,2,0,180,0,0.44206320000375854,['n'],0.4474474000016926,1.424,2094.963177400001,,,,,518,20,Woman,Right,
,,,,,,,,,,,,,,,,,518,20,Woman,Right,3,21,0.4,2,0,180,0,0.22266769999987446,['n'],0.8549477000051411,1.5899999999999999,2100.7473142000017,,,,,518,20,Woman,Right,
,,,,,,,,,,,,,,,,,518,20,Woman,Right,3,44,0.15,1,0,-,0,0.26568810000026133,['n'],0.37587669999629725,1.616,2104.1805109999987,,,,,518,20,Woman,Right,
,,,,,,,,,,,,,,,,,518,20,Woman,Right,3,61,0.15,2,0,180,0,0.47239429999899585,['n'],0.782771899997897,1.532,2110.063863700001,,,,,518,20,Woman,Right,
,,,,,,,,,,,,,,,,,518,20,Woman,Right,3,57,0.15,2,0,180,0,0.11234089999925345,['n'],1.4958684000012,1.56,2114.9973415999993,,,,,518,20,Woman,Right,
,,,,,,,,,,,,,,,,,518,20,Woman,Right,3,1,1,2,0,180,180,0.721437899999728,['y'],0.4549948999992921,2.0,2118.946901000003,,,,,518,20,Woman,Right,
,,,,,,,,,,,,,,,,,518,20,Woman,Right,3,52,0.15,1,0,-,0,0.46124199999758275,['n'],0.3029326000032597,1.638,2122.1634386000005,,,,,518,20,Woman,Right,
,,,,,,,,,,,,,,,,,518,20,Woman,Right,4,43,0.4,2,180,0,0,4.775201899996318,['n'],0.9191550999967149,1.0,2149.5306399000037,58.75,97.5,30.0,,518,20,Woman,Right,
,,,,,,,,,,,,,,,,,518,20,Woman,Right,4,20,0.4,1,0,-,0,3.2594375999979093,['n'],1.223619200005487,1.3519999999999999,2157.247000700001,,,,,518,20,Woman,Right,
,,,,,,,,,,,,,,,,,518,20,Woman,Right,4,61,0.15,2,0,180,180,2.644533300001058,['y'],0.8154520000025514,1.238,2163.179991600002,,,,,518,20,Woman,Right,
,,,,,,,,,,,,,,,,,518,20,Woman,Right,4,22,0.4,1,180,-,180,0.31648909999785246,['n'],0.5152061999979196,1.422,2166.9129831000027,,,,,518,20,Woman,Right,
,,,,,,,,,,,,,,,,,518,20,Woman,Right,4,36,0.4,1,0,-,0,0.6847859000044991,['n'],0.2949317999955383,1.0,2170.4970324000024,,,,,518,20,Woman,Right,
,,,,,,,,,,,,,,,,,518,20,Woman,Right,4,66,0.15,1,180,-,180,0.37135549999948125,['n'],0.455925299997034,1.328,2175.4300116000013,,,,,518,20,Woman,Right,
,,,,,,,,,,,,,,,,,518,20,Woman,Right,4,75,0.15,2,180,0,180,0.3576688999964972,['n'],0.4713629999969271,1.304,2178.979812800004,,,,,518,20,Woman,Right,
,,,,,,,,,,,,,,,,,518,20,Woman,Right,4,27,0.4,2,180,0,180,0.8250981999954092,['n'],0.5433463000008487,1.702,2182.7629908000017,,,,,518,20,Woman,Right,
,,,,,,,,,,,,,,,,,518,20,Woman,Right,4,76,0.15,1,0,-,180,0.6522183999986737,['n'],0.4227087999970536,1.8,2186.362314099999,,,,,518,20,Woman,Right,
,,,,,,,,,,,,,,,,,518,20,Woman,Right,4,37,0.4,2,0,180,0,0.5225338000018382,['n'],0.4476608999975724,1.57,2190.5463910000035,,,,,518,20,Woman,Right,
,,,,,,,,,,,,,,,,,518,20,Woman,Right,4,60,0.15,1,0,-,0,0.38824749999912456,['n'],0.4712985999940429,1.5819999999999999,2194.278877800003,,,,,518,20,Woman,Right,
,,,,,,,,,,,,,,,,,518,20,Woman,Right,4,51,0.15,2,180,0,0,0.4412561000062851,['n'],0.31936770000174874,2.0,2197.9122911000013,,,,,518,20,Woman,Right,
,,,,,,,,,,,,,,,,,518,20,Woman,Right,4,39,0.4,2,180,0,0,1.0394298999963212,['y'],0.5196269000007305,1.0,2202.0127360999977,,,,,518,20,Woman,Right,
,,,,,,,,,,,,,,,,,518,20,Woman,Right,4,73,0.15,2,0,180,0,0.4089051999981166,['n'],0.43898629999603145,1.738,2205.4955835,,,,,518,20,Woman,Right,
,,,,,,,,,,,,,,,,,518,20,Woman,Right,4,49,0.15,2,0,180,0,0.3354526999974041,['n'],0.39940519999800017,1.698,2208.9463431999975,,,,,518,20,Woman,Right,
,,,,,,,,,,,,,,,,,518,20,Woman,Right,4,69,0.15,2,0,180,0,0.41563020000467077,['n'],0.3671083000008366,1.706,2212.1796656000006,,,,,518,20,Woman,Right,
,,,,,,,,,,,,,,,,,518,20,Woman,Right,4,35,0.4,2,180,0,180,0.44464049999805866,['n'],0.39065109999501146,1.282,2215.596009000001,,,,,518,20,Woman,Right,
,,,,,,,,,,,,,,,,,518,20,Woman,Right,4,33,0.4,2,0,180,0,0.5070546999995713,['n'],0.311935400000948,1.246,2219.346125199998,,,,,518,20,Woman,Right,
,,,,,,,,,,,,,,,,,518,20,Woman,Right,4,10,0.4,1,180,-,0,0.40955509999912465,['n'],0.391600599999947,1.904,2222.5793663000004,,,,,518,20,Woman,Right,
,,,,,,,,,,,,,,,,,518,20,Woman,Right,4,30,0.4,1,180,-,180,0.6442855999994208,['n'],0.34322299999621464,1.918,2226.095317600004,,,,,518,20,Woman,Right,
,,,,,,,,,,,,,,,,,518,20,Woman,Right,4,55,0.15,2,180,0,0,0.3698985000009998,['n'],0.4318643000005977,1.724,2229.545336000003,,,,,518,20,Woman,Right,
,,,,,,,,,,,,,,,,,518,20,Woman,Right,4,54,0.15,1,180,-,0,0.2800323000046774,['n'],0.3358296000005794,1.766,2232.812593200004,,,,,518,20,Woman,Right,
,,,,,,,,,,,,,,,,,518,20,Woman,Right,4,62,0.15,1,180,-,180,0.663401599995268,['n'],0.2867421999981161,1.076,2236.711850300002,,,,,518,20,Woman,Right,
,,,,,,,,,,,,,,,,,518,20,Woman,Right,4,25,0.4,2,0,180,0,0.3844260999976541,['n'],0.4154788000014378,1.354,2240.3953248000034,,,,,518,20,Woman,Right,
,,,,,,,,,,,,,,,,,518,20,Woman,Right,4,48,0.15,1,0,-,0,0.38602650000393623,['n'],0.35931170000549173,1.706,2244.1791223000037,,,,,518,20,Woman,Right,
,,,,,,,,,,,,,,,,,518,20,Woman,Right,4,19,0.4,2,180,0,0,1.482634499996493,['y'],0.5673702999993111,1.626,2249.0290655999997,,,,,518,20,Woman,Right,
,,,,,,,,,,,,,,,,,518,20,Woman,Right,4,32,0.4,1,0,-,0,0.32881660000566626,['n'],0.2955731999973068,1.8980000000000001,2252.278403700002,,,,,518,20,Woman,Right,
,,,,,,,,,,,,,,,,,518,20,Woman,Right,4,50,0.15,1,180,-,180,0.4554996000006213,['n'],0.3670558000012534,1.72,2255.9790700000012,,,,,518,20,Woman,Right,
,,,,,,,,,,,,,,,,,518,20,Woman,Right,4,17,0.4,2,0,180,180,1.1500629000001936,['y'],0.5514247000028263,1.308,2260.562334800001,,,,,518,20,Woman,Right,
,,,,,,,,,,,,,,,,,518,20,Woman,Right,4,11,0.4,2,180,0,0,0.4441969999970752,['n'],0.3603438999998616,1.3439999999999999,2264.8623202000017,,,,,518,20,Woman,Right,
,,,,,,,,,,,,,,,,,518,20,Woman,Right,4,29,0.4,2,0,180,180,0.5550441999948816,['y'],1.464060199999949,1.56,2269.8290500000003,,,,,518,20,Woman,Right,
,,,,,,,,,,,,,,,,,518,20,Woman,Right,4,56,0.15,1,0,-,0,0.3778542000000016,['n'],0.2877412000016193,1.83,2273.562339199998,,,,,518,20,Woman,Right,
,,,,,,,,,,,,,,,,,518,20,Woman,Right,4,26,0.4,1,180,-,180,0.4730554999987362,['n'],0.494909999993979,1.4020000000000001,2277.4957620999994,,,,,518,20,Woman,Right,
,,,,,,,,,,,,,,,,,518,20,Woman,Right,4,57,0.15,2,0,180,0,0.47464510000281734,['n'],0.29443710000487044,1.536,2281.0123755000022,,,,,518,20,Woman,Right,
,,,,,,,,,,,,,,,,,518,20,Woman,Right,4,53,0.15,2,0,180,0,0.3212797999949544,['n'],0.27963339999405434,1.422,2284.194773299998,,,,,518,20,Woman,Right,
,,,,,,,,,,,,,,,,,518,20,Woman,Right,4,41,0.4,2,0,180,0,0.40664019999530865,['n'],0.9684901000000536,1.4100000000000001,2288.512081699999,,,,,518,20,Woman,Right,
,,,,,,,,,,,,,,,,,518,20,Woman,Right,4,3,1,2,180,0,0,0.48052330000064103,['y'],0.40774290000263136,2.0,2291.9780839000014,,,,,518,20,Woman,Right,
,,,,,,,,,,,,,,,,,518,20,Woman,Right,4,38,0.4,1,180,-,180,0.2867458999971859,['n'],0.44744550000177696,1.626,2295.5446352,,,,,518,20,Woman,Right,
,,,,,,,,,,,,,,,,,518,20,Woman,Right,4,8,0.4,1,0,-,0,0.2810966000033659,['n'],1.1040775000001304,1.6219999999999999,2299.5285737000013,,,,,518,20,Woman,Right,
,,,,,,,,,,,,,,,,,518,20,Woman,Right,4,52,0.15,1,0,-,0,0.3067790000059176,['n'],0.3273936999976286,1.608,2303.044677400001,,,,,518,20,Woman,Right,
,,,,,,,,,,,,,,,,,518,20,Woman,Right,4,12,0.4,1,0,-,0,0.32888240000465885,['n'],0.29460069999913685,1.592,2306.2945770000006,,,,,518,20,Woman,Right,
,,,,,,,,,,,,,,,,,518,20,Woman,Right,4,28,0.4,1,0,-,0,0.24548480000521522,['n'],0.3428300000014133,1.6099999999999999,2309.4778542999993,,,,,518,20,Woman,Right,
,,,,,,,,,,,,,,,,,518,20,Woman,Right,4,2,1,1,180,-,180,0.2931534000017564,['n'],0.45586960000218824,1.548,2314.5945718000003,,,,,518,20,Woman,Right,
,,,,,,,,,,,,,,,,,518,20,Woman,Right,4,44,0.15,1,0,-,0,0.2659884999957285,['n'],0.2955744999999297,1.658,2318.495176000004,,,,,518,20,Woman,Right,
,,,,,,,,,,,,,,,,,518,20,Woman,Right,4,78,0.15,1,180,-,180,0.3108298000006471,['n'],0.5277885000032256,1.5859999999999999,2321.9443606999994,,,,,518,20,Woman,Right,
,,,,,,,,,,,,,,,,,518,20,Woman,Right,4,7,1,2,180,0,0,0.5164785000015399,['y'],0.5598363000026438,2.0,2325.6283458000034,,,,,518,20,Woman,Right,
,,,,,,,,,,,,,,,,,518,20,Woman,Right,4,40,0.4,1,0,-,0,0.35313079999468755,['n'],0.3271182999960729,1.552,2329.0952988999998,,,,,518,20,Woman,Right,
,,,,,,,,,,,,,,,,,518,20,Woman,Right,4,74,0.15,1,180,-,180,0.38497320000169566,['n'],0.5912084000010509,1.5739999999999998,2333.3610066999972,,,,,518,20,Woman,Right,
,,,,,,,,,,,,,,,,,518,20,Woman,Right,4,21,0.4,2,0,180,180,0.6676353000002564,['y'],0.8548699000020861,1.17,2337.4281639000037,,,,,518,20,Woman,Right,
,,,,,,,,,,,,,,,,,518,20,Woman,Right,4,9,0.4,2,0,180,180,0.6049414000008255,['n'],0.4871802999987267,1.428,2343.3114332999976,,,,,518,20,Woman,Right,
,,,,,,,,,,,,,,,,,518,20,Woman,Right,4,31,0.4,2,180,0,180,0.4720253000050434,['n'],0.3111882000011974,1.268,2346.8941373999987,,,,,518,20,Woman,Right,
,,,,,,,,,,,,,,,,,518,20,Woman,Right,4,23,0.4,2,180,0,0,0.49166329999570735,['n'],0.3275004999959492,1.256,2350.161489600003,,,,,518,20,Woman,Right,
,,,,,,,,,,,,,,,,,518,20,Woman,Right,4,0,1,1,0,-,0,0.5778120999966632,['n'],0.3593908000038937,1.322,2353.777421400002,,,,,518,20,Woman,Right,
,,,,,,,,,,,,,,,,,518,20,Woman,Right,4,70,0.15,1,180,-,180,3.9784001000007265,['n'],0.4716995999988285,1.322,2360.994034700001,,,,,518,20,Woman,Right,
,,,,,,,,,,,,,,,,,518,20,Woman,Right,4,24,0.4,1,0,-,0,0.3002090000009048,['n'],0.28694009999890113,1.742,2364.5113208999974,,,,,518,20,Woman,Right,
,,,,,,,,,,,,,,,,,518,20,Woman,Right,4,65,0.15,2,0,180,0,0.4915612999975565,['n'],0.35857660000328906,1.552,2368.6939104999983,,,,,518,20,Woman,Right,
,,,,,,,,,,,,,,,,,518,20,Woman,Right,4,4,1,1,0,-,0,0.36487189999752445,['n'],0.29544539999915287,1.546,2371.861352599997,,,,,518,20,Woman,Right,
,,,,,,,,,,,,,,,,,518,20,Woman,Right,4,72,0.15,1,0,-,0,0.5213480000020354,['n'],0.3517548000017996,1.784,2375.3439928000007,,,,,518,20,Woman,Right,
,,,,,,,,,,,,,,,,,518,20,Woman,Right,4,68,0.15,1,0,-,0,0.42860400000063237,['n'],0.8313901000001351,1.682,2380.9110948000016,,,,,518,20,Woman,Right,
,,,,,,,,,,,,,,,,,518,20,Woman,Right,4,1,1,2,0,180,180,0.5566091000000597,['y'],0.6634047000043211,2.0,2384.993701500003,,,,,518,20,Woman,Right,
,,,,,,,,,,,,,,,,,518,20,Woman,Right,4,45,0.15,2,0,180,0,1.609523300001456,['n'],0.3112957999983337,1.658,2390.1937039999975,,,,,518,20,Woman,Right,
,,,,,,,,,,,,,,,,,518,20,Woman,Right,4,71,0.15,2,180,0,180,0.3077472999939346,['n'],0.367726100004802,1.842,2394.243636500003,,,,,518,20,Woman,Right,
,,,,,,,,,,,,,,,,,518,20,Woman,Right,4,63,0.15,2,180,0,180,0.4690155999996932,['n'],0.36757130000478355,2.0,2397.577137500004,,,,,518,20,Woman,Right,
,,,,,,,,,,,,,,,,,518,20,Woman,Right,4,79,0.15,2,180,0,180,0.3872410999974818,['n'],0.3037516999975196,1.8519999999999999,2401.177081900001,,,,,518,20,Woman,Right,
,,,,,,,,,,,,,,,,,518,20,Woman,Right,4,77,0.15,2,0,180,0,0.5022969999990892,['n'],0.2956135999993421,1.794,2405.493606900003,,,,,518,20,Woman,Right,
,,,,,,,,,,,,,,,,,518,20,Woman,Right,4,58,0.15,1,180,-,180,0.43296990000089863,['n'],0.35186219999741297,1.712,2409.110972900002,,,,,518,20,Woman,Right,
,,,,,,,,,,,,,,,,,518,20,Woman,Right,4,47,0.15,2,180,0,180,0.5849701000042842,['n'],0.4474826000005123,1.572,2412.993495200004,,,,,518,20,Woman,Right,
,,,,,,,,,,,,,,,,,518,20,Woman,Right,4,16,0.4,1,0,-,0,0.42130019999603974,['n'],0.5196700000014971,1.5779999999999998,2416.5936385000023,,,,,518,20,Woman,Right,
,,,,,,,,,,,,,,,,,518,20,Woman,Right,4,6,1,1,180,-,180,0.46325240000442136,['n'],0.4473308000015095,1.5819999999999999,2420.3107372000013,,,,,518,20,Woman,Right,
,,,,,,,,,,,,,,,,,518,20,Woman,Right,4,46,0.15,1,180,-,180,0.1475748000011663,['n'],0.3913089999987278,1.5939999999999999,2423.6273967000016,,,,,518,20,Woman,Right,
,,,,,,,,,,,,,,,,,518,20,Woman,Right,4,67,0.15,2,180,0,180,0.28660690000106115,['n'],0.3913652999981423,1.5859999999999999,2427.0109644999975,,,,,518,20,Woman,Right,
,,,,,,,,,,,,,,,,,518,20,Woman,Right,4,34,0.4,1,180,-,180,0.23140159999456955,['n'],0.7518120000022464,1.45,2431.260974500001,,,,,518,20,Woman,Right,
,,,,,,,,,,,,,,,,,518,20,Woman,Right,4,59,0.15,2,180,0,180,0.3290052000011201,['n'],0.3747010000006412,1.376,2434.476755100004,,,,,518,20,Woman,Right,
,,,,,,,,,,,,,,,,,518,20,Woman,Right,4,13,0.4,2,0,180,180,0.1679468000002089,['n'],0.31915139999910025,1.374,2437.5931452000004,,,,,518,20,Woman,Right,
,,,,,,,,,,,,,,,,,518,20,Woman,Right,4,5,1,2,0,180,180,0.693542000000889,['y'],0.3590457999962382,2.0,2441.043570300004,,,,,518,20,Woman,Right,
,,,,,,,,,,,,,,,,,518,20,Woman,Right,4,15,0.4,2,180,0,180,0.3851818000039202,['n'],0.37561270000151126,1.376,2444.4099209999986,,,,,518,20,Woman,Right,
,,,,,,,,,,,,,,,,,518,20,Woman,Right,4,14,0.4,1,180,-,180,0.43540159999975003,['n'],0.48761519999970915,1.646,2448.243134000004,,,,,518,20,Woman,Right,
,,,,,,,,,,,,,,,,,518,20,Woman,Right,4,42,0.4,1,180,-,180,0.2962755999978981,['n'],0.36786570000549546,1.552,2452.109977799999,,,,,518,20,Woman,Right,
,,,,,,,,,,,,,,,,,518,20,Woman,Right,4,18,0.4,1,180,-,180,0.2888779999993858,['n'],0.3107518000033451,1.47,2455.8270269999994,,,,,518,20,Woman,Right,
,,,,,,,,,,,,,,,,,518,20,Woman,Right,4,64,0.15,1,0,-,180,0.2968503000010969,['n'],0.29453060000378173,1.5779999999999998,2459.326558200002,,,,,518,20,Woman,Right,
,,,,,,,,,,,,,,,,,518,20,Woman,Right,5,76,0.15,1,0,-,180,2.711677699997381,['n'],1.6157466000004206,1.556,2477.4763389,66.25,100.0,25.0,,518,20,Woman,Right,
,,,,,,,,,,,,,,,,,518,20,Woman,Right,5,52,0.15,1,0,-,180,0.37815240000054473,['n'],0.3188111999988905,1.588,2480.7933950000006,,,,,518,20,Woman,Right,
,,,,,,,,,,,,,,,,,518,20,Woman,Right,5,8,0.4,1,0,-,0,0.4402773999972851,['n'],0.503984799994214,1.674,2484.4437196,,,,,518,20,Woman,Right,
,,,,,,,,,,,,,,,,,518,20,Woman,Right,5,11,0.4,2,180,0,180,0.8140165000004345,['n'],0.3757815999997547,1.8679999999999999,2488.7607118000014,,,,,518,20,Woman,Right,
,,,,,,,,,,,,,,,,,518,20,Woman,Right,5,2,1,1,180,-,180,0.6642113999987487,['n'],0.3191397000045981,1.6179999999999999,2492.9926823999995,,,,,518,20,Woman,Right,
,,,,,,,,,,,,,,,,,518,20,Woman,Right,5,34,0.4,1,180,-,180,0.28204230000119423,['n'],0.4235534000035841,1.608,2496.442737999998,,,,,518,20,Woman,Right,
,,,,,,,,,,,,,,,,,518,20,Woman,Right,5,18,0.4,1,180,-,180,0.7615913000045111,['n'],0.33476489999884507,1.596,2500.143254399998,,,,,518,20,Woman,Right,
,,,,,,,,,,,,,,,,,518,20,Woman,Right,5,75,0.15,2,180,0,0,0.2987630999996327,['n'],0.3196682999987388,1.688,2503.2592600999997,,,,,518,20,Woman,Right,
,,,,,,,,,,,,,,,,,518,20,Woman,Right,5,15,0.4,2,180,0,180,0.2948249999972177,['n'],0.30353569999715546,1.588,2506.3932342000044,,,,,518,20,Woman,Right,
,,,,,,,,,,,,,,,,,518,20,Woman,Right,5,57,0.15,2,0,180,0,0.33910520000063116,['n'],0.3517735999994329,1.6,2509.7932922000036,,,,,518,20,Woman,Right,
,,,,,,,,,,,,,,,,,518,20,Woman,Right,5,9,0.4,2,0,180,0,0.27558489999501035,['n'],0.40676130000065314,1.448,2514.0258018000022,,,,,518,20,Woman,Right,
,,,,,,,,,,,,,,,,,518,20,Woman,Right,5,74,0.15,1,180,-,0,0.2917022000037832,['n'],0.3591911000039545,1.6019999999999999,2517.209945200004,,,,,518,20,Woman,Right,
,,,,,,,,,,,,,,,,,518,20,Woman,Right,5,49,0.15,2,0,180,0,0.1635612999962177,['n'],0.35936149999906775,1.564,2520.810064199999,,,,,518,20,Woman,Right,
,,,,,,,,,,,,,,,,,518,20,Woman,Right,5,73,0.15,2,0,180,0,0.2165670999966096,['n'],0.2950062000018079,1.624,2524.343084100001,,,,,518,20,Woman,Right,
,,,,,,,,,,,,,,,,,518,20,Woman,Right,5,63,0.15,2,180,0,180,0.27809849999903236,['n'],0.31920289999834495,1.57,2527.8425038999994,,,,,518,20,Woman,Right,
,,,,,,,,,,,,,,,,,518,20,Woman,Right,5,66,0.15,1,180,-,0,0.13951219999580644,['n'],0.33603210000001127,1.5899999999999999,2530.8599571000013,,,,,518,20,Woman,Right,
,,,,,,,,,,,,,,,,,518,20,Woman,Right,5,59,0.15,2,180,0,0,3.3965949999983422,['n'],1.0715970000019297,1.314,2538.9923135999998,,,,,518,20,Woman,Right,
,,,,,,,,,,,,,,,,,518,20,Woman,Right,5,28,0.4,1,0,-,0,0.3031295999971917,['n'],1.1758525000041118,1.5739999999999998,2543.3422579000035,,,,,518,20,Woman,Right,
,,,,,,,,,,,,,,,,,518,20,Woman,Right,5,65,0.15,2,0,180,0,0.3307386000014958,['n'],0.41516609999962384,1.5859999999999999,2547.293075100002,,,,,518,20,Woman,Right,
,,,,,,,,,,,,,,,,,518,20,Woman,Right,5,48,0.15,1,0,-,0,0.3319458999976632,['n'],0.3515601999970386,1.72,2551.242271700001,,,,,518,20,Woman,Right,
,,,,,,,,,,,,,,,,,518,20,Woman,Right,5,41,0.4,2,0,180,180,0.7613616999951773,['y'],0.7994695999950636,1.342,2555.8267879999985,,,,,518,20,Woman,Right,
,,,,,,,,,,,,,,,,,518,20,Woman,Right,5,4,1,1,0,-,0,0.3370742999977665,['n'],0.5196531999972649,1.58,2559.4086338999987,,,,,518,20,Woman,Right,
,,,,,,,,,,,,,,,,,518,20,Woman,Right,5,77,0.15,2,0,180,0,0.35359600000083447,['n'],0.3995841000069049,1.544,2563.2755203999986,,,,,518,20,Woman,Right,
,,,,,,,,,,,,,,,,,518,20,Woman,Right,5,26,0.4,1,180,-,180,0.30843669999740086,['n'],0.3596103000018047,1.5779999999999998,2566.6425997999977,,,,,518,20,Woman,Right,
,,,,,,,,,,,,,,,,,518,20,Woman,Right,5,45,0.15,2,0,180,0,0.30478719999518944,['n'],0.4234826999963843,1.536,2570.1253694000043,,,,,518,20,Woman,Right,
,,,,,,,,,,,,,,,,,518,20,Woman,Right,5,36,0.4,1,0,-,0,0.2993390999981784,['n'],0.9198656000007759,1.572,2574.376036200003,,,,,518,20,Woman,Right,
,,,,,,,,,,,,,,,,,518,20,Woman,Right,5,13,0.4,2,0,180,180,0.7403357999937725,['y'],0.5273113000002922,1.3599999999999999,2578.4256743000005,,,,,518,20,Woman,Right,
,,,,,,,,,,,,,,,,,518,20,Woman,Right,5,29,0.4,2,0,180,0,0.40509559999918565,['n'],0.4478101000058814,1.534,2583.225408899998,,,,,518,20,Woman,Right,
,,,,,,,,,,,,,,,,,518,20,Woman,Right,5,58,0.15,1,180,-,0,0.31043579999823123,['n'],0.3752807999990182,1.346,2586.425296900001,,,,,518,20,Woman,Right,
,,,,,,,,,,,,,,,,,518,20,Woman,Right,5,22,0.4,1,180,-,0,0.49802279999858,['n'],0.38272999999753665,1.384,2590.092544400002,,,,,518,20,Woman,Right,
,,,,,,,,,,,,,,,,,518,20,Woman,Right,5,30,0.4,1,180,-,180,1.1794185999970068,['n'],0.42372579999937443,1.558,2594.225160000002,,,,,518,20,Woman,Right,
,,,,,,,,,,,,,,,,,518,20,Woman,Right,5,27,0.4,2,180,0,0,0.301879699996789,['n'],0.4557931000017561,1.802,2597.608443600002,,,,,518,20,Woman,Right,
,,,,,,,,,,,,,,,,,518,20,Woman,Right,5,60,0.15,1,0,-,0,0.23913350000657374,['n'],0.44742069999483647,1.682,2600.858379600002,,,,,518,20,Woman,Right,
,,,,,,,,,,,,,,,,,518,20,Woman,Right,5,42,0.4,1,180,-,180,0.6524363999997149,['n'],0.35883820000162814,1.75,2604.3750733999987,,,,,518,20,Woman,Right,
,,,,,,,,,,,,,,,,,518,20,Woman,Right,5,53,0.15,2,0,180,0,0.37660719999985304,['n'],0.3674600000013015,1.8479999999999999,2607.7749992000026,,,,,518,20,Woman,Right,
,,,,,,,,,,,,,,,,,518,20,Woman,Right,5,24,0.4,1,0,-,0,0.37684140000055777,['n'],0.3589653000017279,1.562,2611.5749722000037,,,,,518,20,Woman,Right,
,,,,,,,,,,,,,,,,,518,20,Woman,Right,5,25,0.4,2,0,180,180,0.4138760000059847,['n'],0.5275265000018408,1.762,2615.6749813999995,,,,,518,20,Woman,Right,
,,,,,,,,,,,,,,,,,518,20,Woman,Right,5,61,0.15,2,0,180,0,0.35302190000220435,['n'],0.3672201000008499,1.3359999999999999,2618.908867500002,,,,,518,20,Woman,Right,
,,,,,,,,,,,,,,,,,518,20,Woman,Right,5,78,0.15,1,180,-,180,0.5221913999994285,['n'],0.3111477000056766,1.724,2622.9082229999985,,,,,518,20,Woman,Right,
,,,,,,,,,,,,,,,,,518,20,Woman,Right,5,0,1,1,0,-,0,0.2704186999981175,['n'],0.35168200000043726,1.68,2626.2088914999986,,,,,518,20,Woman,Right,
,,,,,,,,,,,,,,,,,518,20,Woman,Right,5,64,0.15,1,0,-,180,0.3535829999964335,['n'],0.2955310000033933,1.626,2629.608692300004,,,,,518,20,Woman,Right,
,,,,,,,,,,,,,,,,,518,20,Woman,Right,5,38,0.4,1,180,-,180,0.29066530000272905,['n'],0.6475903999962611,1.5739999999999998,2633.4255822999985,,,,,518,20,Woman,Right,
,,,,,,,,,,,,,,,,,518,20,Woman,Right,5,16,0.4,1,0,-,0,0.25557929999922635,['n'],0.350951400003396,1.58,2636.5913984,,,,,518,20,Woman,Right,
,,,,,,,,,,,,,,,,,518,20,Woman,Right,5,37,0.4,2,0,180,0,0.380344299999706,['n'],0.3915947999994387,1.588,2639.9579887,,,,,518,20,Woman,Right,
,,,,,,,,,,,,,,,,,518,20,Woman,Right,5,3,1,2,180,0,0,1.7813318000044092,['y'],0.5362622999964515,2.0,2644.9746589999995,,,,,518,20,Woman,Right,
,,,,,,,,,,,,,,,,,518,20,Woman,Right,5,72,0.15,1,0,-,0,0.31048520000331337,['n'],0.39959569999336964,1.698,2648.3079068000006,,,,,518,20,Woman,Right,
,,,,,,,,,,,,,,,,,518,20,Woman,Right,5,39,0.4,2,180,0,0,1.1056568000058178,['y'],0.6144638999976451,1.0,2652.641347900004,,,,,518,20,Woman,Right,
,,,,,,,,,,,,,,,,,518,20,Woman,Right,5,20,0.4,1,0,-,0,0.33708190000470495,['n'],0.32005390000267653,1.536,2656.207887800003,,,,,518,20,Woman,Right,
,,,,,,,,,,,,,,,,,518,20,Woman,Right,5,50,0.15,1,180,-,0,0.3251419000007445,['n'],0.4156460000012885,1.5739999999999998,2659.624476600002,,,,,518,20,Woman,Right,
,,,,,,,,,,,,,,,,,518,20,Woman,Right,5,21,0.4,2,0,180,180,1.142692100002023,['y'],0.9115353999950457,1.0,2664.4421602,,,,,518,20,Woman,Right,
,,,,,,,,,,,,,,,,,518,20,Woman,Right,5,54,0.15,1,180,-,0,0.32849569999962114,['n'],0.3429208000015933,1.564,2667.8084407999995,,,,,518,20,Woman,Right,
,,,,,,,,,,,,,,,,,518,20,Woman,Right,5,12,0.4,1,0,-,0,0.265852199998335,['n'],0.4234963999988395,1.5859999999999999,2671.0083643000034,,,,,518,20,Woman,Right,
,,,,,,,,,,,,,,,,,518,20,Woman,Right,5,47,0.15,2,180,0,180,0.30210280000028433,['n'],0.35944670000026235,1.35,2674.6243479999976,,,,,518,20,Woman,Right,
,,,,,,,,,,,,,,,,,518,20,Woman,Right,5,7,1,2,180,0,0,0.39337240000168094,['y'],0.9355444999964675,2.0,2679.2075944000026,,,,,518,20,Woman,Right,
,,,,,,,,,,,,,,,,,518,20,Woman,Right,5,51,0.15,2,180,0,180,0.3391529000000446,['n'],0.3350205000024289,1.97,2682.624280099997,,,,,518,20,Woman,Right,
,,,,,,,,,,,,,,,,,518,20,Woman,Right,5,14,0.4,1,180,-,180,0.4330998000004911,['n'],0.43980739999824436,2.0,2686.391680200002,,,,,518,20,Woman,Right,
,,,,,,,,,,,,,,,,,518,20,Woman,Right,5,67,0.15,2,180,0,180,0.3544077999977162,['n'],0.49500699999771314,2.0,2689.774437699998,,,,,518,20,Woman,Right,
,,,,,,,,,,,,,,,,,518,20,Woman,Right,5,46,0.15,1,180,-,180,0.5215729000046849,['n'],0.8638759000023128,1.876,2694.2742332999987,,,,,518,20,Woman,Right,
,,,,,,,,,,,,,,,,,518,20,Woman,Right,5,79,0.15,2,180,0,180,0.6568504999959259,['n'],0.40760189999855356,1.866,2698.3914301999976,,,,,518,20,Woman,Right,
,,,,,,,,,,,,,,,,,518,20,Woman,Right,5,35,0.4,2,180,0,180,0.508447400003206,['n'],0.40750390000175685,1.82,2702.091348599999,,,,,518,20,Woman,Right,
,,,,,,,,,,,,,,,,,518,20,Woman,Right,5,55,0.15,2,180,0,180,0.7353675999984262,['n'],0.45548560000315774,1.682,2705.8740122000017,,,,,518,20,Woman,Right,
,,,,,,,,,,,,,,,,,518,20,Woman,Right,5,19,0.4,2,180,0,180,0.33000869999523275,['n'],0.3442207999978564,1.696,2709.0582800999982,,,,,518,20,Woman,Right,
,,,,,,,,,,,,,,,,,518,20,Woman,Right,5,32,0.4,1,0,-,0,1.2751122999979998,['n'],1.151766699993459,1.0,2714.0740306000007,,,,,518,20,Woman,Right,
,,,,,,,,,,,,,,,,,518,20,Woman,Right,5,33,0.4,2,0,180,180,1.4102252000011504,['y'],0.4466845999995712,1.32,2719.774112500003,,,,,518,20,Woman,Right,
,,,,,,,,,,,,,,,,,518,20,Woman,Right,5,68,0.15,1,0,-,180,0.5226916000028723,['n'],0.44769210000231396,1.58,2723.590672099999,,,,,518,20,Woman,Right,
,,,,,,,,,,,,,,,,,518,20,Woman,Right,5,10,0.4,1,180,-,180,0.5433103999966988,['n'],0.34359869999752846,1.6320000000000001,2726.9580136000004,,,,,518,20,Woman,Right,
,,,,,,,,,,,,,,,,,518,20,Woman,Right,5,6,1,1,180,-,180,0.41756010000244714,['n'],0.311547099998279,1.608,2730.1579867000037,,,,,518,20,Woman,Right,
,,,,,,,,,,,,,,,,,518,20,Woman,Right,5,71,0.15,2,180,0,180,0.36856729999999516,['n'],0.3201939999999013,1.5859999999999999,2733.3238653000008,,,,,518,20,Woman,Right,
,,,,,,,,,,,,,,,,,518,20,Woman,Right,5,69,0.15,2,0,180,180,0.2348502999957418,['n'],0.27919739999924786,1.81,2736.6070076000033,,,,,518,20,Woman,Right,
,,,,,,,,,,,,,,,,,518,20,Woman,Right,5,43,0.4,2,180,0,0,0.9234725999995135,['y'],0.42389189999812515,1.3639999999999999,2740.691227299998,,,,,518,20,Woman,Right,
,,,,,,,,,,,,,,,,,518,20,Woman,Right,5,70,0.15,1,180,-,0,0.2253190000046743,['n'],0.4235869999974966,1.5939999999999999,2744.991174499999,,,,,518,20,Woman,Right,
,,,,,,,,,,,,,,,,,518,20,Woman,Right,5,5,1,2,0,180,180,0.5319896000000881,['y'],0.48746200000459794,2.0,2748.4737819,,,,,518,20,Woman,Right,
,,,,,,,,,,,,,,,,,518,20,Woman,Right,5,56,0.15,1,0,-,180,0.3686301999987336,['n'],0.41523249999590917,1.666,2752.8903477999993,,,,,518,20,Woman,Right,
,,,,,,,,,,,,,,,,,518,20,Woman,Right,5,23,0.4,2,180,0,180,0.5921601000009105,['n'],0.4390590000039083,1.634,2756.523668499998,,,,,518,20,Woman,Right,
,,,,,,,,,,,,,,,,,518,20,Woman,Right,5,62,0.15,1,180,-,180,0.6358871000047657,['n'],0.40787060000002384,1.626,2760.6075741000022,,,,,518,20,Woman,Right,
,,,,,,,,,,,,,,,,,518,20,Woman,Right,5,44,0.15,1,0,-,0,0.2762252000029548,['n'],0.37495230000058655,1.572,2764.9075083999996,,,,,518,20,Woman,Right,
,,,,,,,,,,,,,,,,,518,20,Woman,Right,5,40,0.4,1,0,-,0,0.20731740000337595,['n'],0.32009670000115875,1.6280000000000001,2768.123469500002,,,,,518,20,Woman,Right,
,,,,,,,,,,,,,,,,,518,20,Woman,Right,5,31,0.4,2,180,0,180,0.1939280000005965,['n'],0.36712709999846993,1.55,2771.5567876999994,,,,,518,20,Woman,Right,
,,,,,,,,,,,,,,,,,518,20,Woman,Right,5,1,1,2,0,180,180,1.0727696000030846,['y'],0.35113170000113314,2.0,2775.6574040999985,,,,,518,20,Woman,Right,
,,,,,,,,,,,,,,,,,518,20,Woman,Right,5,17,0.4,2,0,180,0,0.37452760000451235,['n'],0.3353634000013699,1.69,2779.223445900003,,,,,518,20,Woman,Right,
,,,,,,,,,,,,,,,,,,,,,,,,,,,,,,,,,53.75,100.0,25.0,2354.572413599999,,,,,
