p_block,p_section,p_coherence,p_direction1,p_direction2,p_direction_response,p_direction_RT,p_change_response,p_change_RT,p_confidence,p_full_correct,p_without5_correct,p_full_total,p_without5_total,p_full_avg,p_witout5_avg,p_total_time,sub,age,sex,handedness,loop,trial randomization,coherence,condition,direction1,direction2,direction_response,direction_RT,change_response,change_RT,change_confidence,change_confidence_RT,block_direction_avg,block_stable_avg,block_change_avg,total_time,sub,age,sex,handedness,
1,1,1.0,180,-,180,0.3529058999999961,-,-,-,,,,,,,,1001,18,Woman,Right,,,,,,,,,,,,,,,,,1001,18,Woman,Right,
1,1,1.0,180,-,180,1.2514361999999437,-,-,-,,,,,,,,1001,18,Woman,Right,,,,,,,,,,,,,,,,,1001,18,Woman,Right,
1,1,1.0,180,-,180,0.47020789999999124,-,-,-,,,,,,,,1001,18,Woman,Right,,,,,,,,,,,,,,,,,1001,18,Woman,Right,
1,1,1.0,180,-,180,0.30988619999993716,-,-,-,,,,,,,,1001,18,Woman,Right,,,,,,,,,,,,,,,,,1001,18,Woman,Right,
1,1,1.0,0,-,0,0.016659100000083527,-,-,-,,,,,,,,1001,18,Woman,Right,,,,,,,,,,,,,,,,,1001,18,Woman,Right,
1,1,1.0,0,-,0,0.08231289999991986,-,-,-,,,,,,,,1001,18,Woman,Right,,,,,,,,,,,,,,,,,1001,18,Woman,Right,
1,1,1.0,180,-,180,0.46049249999998665,-,-,-,,,,,,,,1001,18,Woman,Right,,,,,,,,,,,,,,,,,1001,18,Woman,Right,
1,1,1.0,0,-,0,0.01662049999993087,-,-,-,,,,,,,,1001,18,Woman,Right,,,,,,,,,,,,,,,,,1001,18,Woman,Right,
1,1,1.0,0,-,0,0.016873300000042946,-,-,-,,,,,,,,1001,18,Woman,Right,,,,,,,,,,,,,,,,,1001,18,Woman,Right,
1,1,1.0,0,-,0,0.35139620000006744,-,-,-,10,10,10,10,1.0,1.0,,1001,18,Woman,Right,,,,,,,,,,,,,,,,,1001,18,Woman,Right,
2,1,0.15,0,-,180,0.227007599999979,-,-,-,,,,,,,,1001,18,Woman,Right,,,,,,,,,,,,,,,,,1001,18,Woman,Right,
2,1,0.4,180,-,180,0.01644730000009531,-,-,-,,,,,,,,1001,18,Woman,Right,,,,,,,,,,,,,,,,,1001,18,Woman,Right,
2,1,0.4,180,-,180,0.01693480000017189,-,-,-,,,,,,,,1001,18,Woman,Right,,,,,,,,,,,,,,,,,1001,18,Woman,Right,
2,1,0.4,0,-,0,0.015962400000034904,-,-,-,,,,,,,,1001,18,Woman,Right,,,,,,,,,,,,,,,,,1001,18,Woman,Right,
2,1,0.15,0,-,0,0.4332115999998223,-,-,-,,,,,,,,1001,18,Woman,Right,,,,,,,,,,,,,,,,,1001,18,Woman,Right,
2,1,0.4,0,-,0,0.37017539999988003,-,-,-,,,,,,,,1001,18,Woman,Right,,,,,,,,,,,,,,,,,1001,18,Woman,Right,
2,1,0.4,0,-,0,1.1005858999999418,-,-,-,,,,,,,,1001,18,Woman,Right,,,,,,,,,,,,,,,,,1001,18,Woman,Right,
2,1,0.4,180,-,180,0.4269114000001082,-,-,-,,,,,,,,1001,18,Woman,Right,,,,,,,,,,,,,,,,,1001,18,Woman,Right,
2,1,0.4,180,-,180,0.017816799999991417,-,-,-,,,,,,,,1001,18,Woman,Right,,,,,,,,,,,,,,,,,1001,18,Woman,Right,
2,1,0.4,0,-,0,0.016721899999993184,-,-,-,9,8,10,8,0.9,1.0,,1001,18,Woman,Right,,,,,,,,,,,,,,,,,1001,18,Woman,Right,
3,2,1.0,0,180,180,0.8356748000001062,['y'],5.317870099999936,1.996,,,,,,,,1001,18,Woman,Right,,,,,,,,,,,,,,,,,1001,18,Woman,Right,
3,2,1.0,180,0,0,0.8270572999999786,['y'],1.1016122999999425,2.0,,,,,,,,1001,18,Woman,Right,,,,,,,,,,,,,,,,,1001,18,Woman,Right,
3,2,1.0,180,0,0,0.640345600000046,['y'],0.6678146999997807,2.0,,,,,,,,1001,18,Woman,Right,,,,,,,,,,,,,,,,,1001,18,Woman,Right,
3,2,1.0,0,180,180,0.5157861000000139,['y'],0.46266510000009475,2.0,,,,,,,,1001,18,Woman,Right,,,,,,,,,,,,,,,,,1001,18,Woman,Right,
3,2,1.0,0,180,180,0.7873677999998563,['y'],0.509772299999895,2.0,,,,,,,,1001,18,Woman,Right,,,,,,,,,,,,,,,,,1001,18,Woman,Right,
3,2,1.0,0,180,180,0.5768947999999909,['y'],0.8854192999999668,2.0,,,,,,,,1001,18,Woman,Right,,,,,,,,,,,,,,,,,1001,18,Woman,Right,
3,2,1.0,180,0,0,0.4199055000001408,['y'],0.47006709999982377,2.0,,,,,,,,1001,18,Woman,Right,,,,,,,,,,,,,,,,,1001,18,Woman,Right,
3,2,1.0,180,0,0,0.35833240000010846,['y'],0.8028250999998363,2.0,,,,,,,,1001,18,Woman,Right,,,,,,,,,,,,,,,,,1001,18,Woman,Right,
3,2,1.0,0,180,180,0.5396923000000697,['y'],0.36985729999992145,2.0,,,,,,,,1001,18,Woman,Right,,,,,,,,,,,,,,,,,1001,18,Woman,Right,
3,2,1.0,180,0,0,0.3129916999998841,['y'],0.472615999999789,2.0,10,10,10,10,1.0,1.0,,1001,18,Woman,Right,,,,,,,,,,,,,,,,,1001,18,Woman,Right,
4,2,0.4,180,0,0,0.714255600000115,['y'],0.6002117999998973,1.992,,,,,,,,1001,18,Woman,Right,,,,,,,,,,,,,,,,,1001,18,Woman,Right,
4,2,0.15,180,0,180,2.0493486000000303,['n'],1.4701207000000522,1.0,,,,,,,,1001,18,Woman,Right,,,,,,,,,,,,,,,,,1001,18,Woman,Right,
4,2,0.4,180,0,0,0.47822550000000774,['y'],0.49551289999999426,1.798,,,,,,,,1001,18,Woman,Right,,,,,,,,,,,,,,,,,1001,18,Woman,Right,
4,2,0.4,0,180,180,0.7882901999998921,['y'],0.720243900000014,1.912,,,,,,,,1001,18,Woman,Right,,,,,,,,,,,,,,,,,1001,18,Woman,Right,
4,2,0.15,0,180,0,1.5394143999999415,['y'],1.3771004999998695,1.212,,,,,,,,1001,18,Woman,Right,,,,,,,,,,,,,,,,,1001,18,Woman,Right,
4,2,0.15,0,180,0,0.5347785999999815,['y'],0.8681980999999723,1.158,,,,,,,,1001,18,Woman,Right,,,,,,,,,,,,,,,,,1001,18,Woman,Right,
4,2,0.15,0,180,180,1.6232523999999557,['n'],0.4105624999999691,1.488,,,,,,,,1001,18,Woman,Right,,,,,,,,,,,,,,,,,1001,18,Woman,Right,
4,2,0.15,0,180,180,0.8189985999999863,['y'],0.3102440000000115,1.67,,,,,,,,1001,18,Woman,Right,,,,,,,,,,,,,,,,,1001,18,Woman,Right,
4,2,0.4,180,0,0,1.3184388999998191,['y'],0.332790599999953,1.784,,,,,,,,1001,18,Woman,Right,,,,,,,,,,,,,,,,,1001,18,Woman,Right,
4,2,0.15,0,180,180,0.5836294000000635,['y'],0.6832111999999597,1.558,7,4,10,4,0.7,1.0,,1001,18,Woman,Right,,,,,,,,,,,,,,,,,1001,18,Woman,Right,
5,3,0.15,0,180,180,1.6277086000000054,['n'],1.630433499999981,1.3599999999999999,,,,,,,,1001,18,Woman,Right,,,,,,,,,,,,,,,,,1001,18,Woman,Right,
5,3,0.15,0,180,180,0.6688606000000163,['y'],0.33153360000005705,1.566,,,,,,,,1001,18,Woman,Right,,,,,,,,,,,,,,,,,1001,18,Woman,Right,
5,3,0.4,0,180,180,0.5164686999999049,['y'],0.6907696000000669,1.612,,,,,,,,1001,18,Woman,Right,,,,,,,,,,,,,,,,,1001,18,Woman,Right,
5,3,0.4,0,180,180,0.42194229999995514,['y'],0.26456900000016503,1.698,,,,,,,,1001,18,Woman,Right,,,,,,,,,,,,,,,,,1001,18,Woman,Right,
5,3,1.0,180,0,0,0.28903330000002825,['y'],0.593688800000109,2.0,,,,,,,,1001,18,Woman,Right,,,,,,,,,,,,,,,,,1001,18,Woman,Right,
5,3,0.4,0,180,180,0.2946119999999155,['y'],0.47932779999996455,2.0,,,,,,,,1001,18,Woman,Right,,,,,,,,,,,,,,,,,1001,18,Woman,Right,
5,3,1.0,0,180,180,0.27956590000007964,['y'],0.22488090000001648,2.0,,,,,,,,1001,18,Woman,Right,,,,,,,,,,,,,,,,,1001,18,Woman,Right,
5,3,0.15,0,180,180,0.49715249999985645,['y'],0.2797155999999177,1.6280000000000001,,,,,,,,1001,18,Woman,Right,,,,,,,,,,,,,,,,,1001,18,Woman,Right,
5,3,0.4,0,180,180,0.3065834999999879,['y'],0.26558810000005906,1.678,,,,,,,,1001,18,Woman,Right,,,,,,,,,,,,,,,,,1001,18,Woman,Right,
5,3,0.15,180,0,0,1.9502379000000474,['n'],1.0343837000000349,1.384,10,6,10,6,1.0,1.0,,1001,18,Woman,Right,,,,,,,,,,,,,,,,,1001,18,Woman,Right,
,,,,,,,,,,,,,,,,4.499999931795173e-06,1001,18,Woman,Right,,,,,,,,,,,,,,,,,1001,18,Woman,Right,
,,,,,,,,,,,,,,,,,1001,18,Woman,Right,0,55,0.15,2,180,0,180,1.245811300000014,['y'],1.7116876000000047,1.626,262.1178261,,,,,1001,18,Woman,Right,
,,,,,,,,,,,,,,,,,1001,18,Woman,Right,0,25,0.4,2,0,180,180,0.21553400000016154,['y'],1.0625153999999384,1.6360000000000001,266.1681318000001,,,,,1001,18,Woman,Right,
,,,,,,,,,,,,,,,,,1001,18,Woman,Right,0,61,0.15,2,0,180,180,0.759247200000118,['y'],0.7677654000001439,1.718,270.56737539999995,,,,,1001,18,Woman,Right,
,,,,,,,,,,,,,,,,,1001,18,Woman,Right,0,13,0.4,2,0,180,180,0.29845750000004045,['y'],1.4877482000001692,1.704,275.3841970000001,,,,,1001,18,Woman,Right,
,,,,,,,,,,,,,,,,,1001,18,Woman,Right,0,11,0.4,2,180,0,0,0.2931861000001845,['y'],1.2398163000000295,1.78,280.0344471000001,,,,,1001,18,Woman,Right,
,,,,,,,,,,,,,,,,,1001,18,Woman,Right,0,45,0.15,2,0,180,0,1.1225566000000526,['y'],1.5277194999998756,1.5979999999999999,285.68475710000007,,,,,1001,18,Woman,Right,
,,,,,,,,,,,,,,,,,1001,18,Woman,Right,0,8,0.4,1,0,-,0,1.0066188000000693,['y'],1.1036635000000388,1.588,291.4676822000001,,,,,1001,18,Woman,Right,
,,,,,,,,,,,,,,,,,1001,18,Woman,Right,0,40,0.4,1,0,-,180,1.6384912999999415,['n'],1.191654299999982,1.048,297.9837745,,,,,1001,18,Woman,Right,
,,,,,,,,,,,,,,,,,1001,18,Woman,Right,0,5,1,2,0,180,180,0.8475601999998617,['y'],0.8876448000000892,1.804,302.98373820000006,,,,,1001,18,Woman,Right,
,,,,,,,,,,,,,,,,,1001,18,Woman,Right,0,66,0.15,1,180,-,180,2.1242986999998266,['n'],1.5675243999999111,1.068,309.6342065000001,,,,,1001,18,Woman,Right,
,,,,,,,,,,,,,,,,,1001,18,Woman,Right,0,17,0.4,2,0,180,180,0.46662860000014916,['y'],0.7995409000000109,1.788,313.73417100000006,,,,,1001,18,Woman,Right,
,,,,,,,,,,,,,,,,,1001,18,Woman,Right,0,1,1,2,0,180,180,0.13280379999991965,['y'],0.8800562000001264,1.788,317.2175254000001,,,,,1001,18,Woman,Right,
,,,,,,,,,,,,,,,,,1001,18,Woman,Right,0,65,0.15,2,0,180,0,2.0895761000001585,['y'],1.4160496999998031,1.196,324.2009378,,,,,1001,18,Woman,Right,
,,,,,,,,,,,,,,,,,1001,18,Woman,Right,0,67,0.15,2,180,0,0,0.9232574000000113,['y'],0.5991360000000441,1.808,328.5674899999999,,,,,1001,18,Woman,Right,
,,,,,,,,,,,,,,,,,1001,18,Woman,Right,0,69,0.15,2,0,180,180,0.6920162999999775,['n'],1.2796995000001061,1.124,333.45098499999995,,,,,1001,18,Woman,Right,
,,,,,,,,,,,,,,,,,1001,18,Woman,Right,0,60,0.15,1,0,-,0,0.7317915999999514,['y'],0.7191278999998758,1.44,338.63430360000007,,,,,1001,18,Woman,Right,
,,,,,,,,,,,,,,,,,1001,18,Woman,Right,0,38,0.4,1,180,-,0,0.3324078999999074,['y'],1.119715099999894,1.616,342.9512413,,,,,1001,18,Woman,Right,
,,,,,,,,,,,,,,,,,1001,18,Woman,Right,0,52,0.15,1,0,-,180,2.386382499999854,['y'],1.1997447999999622,1.108,349.8844715,,,,,1001,18,Woman,Right,
,,,,,,,,,,,,,,,,,1001,18,Woman,Right,0,47,0.15,2,180,0,0,0.2844763000000512,['y'],0.9035985000000437,1.6219999999999999,353.96764170000006,,,,,1001,18,Woman,Right,
,,,,,,,,,,,,,,,,,1001,18,Woman,Right,0,46,0.15,1,180,-,180,0.8620143000000553,['n'],1.4399582999999438,1.1219999999999999,358.851124,,,,,1001,18,Woman,Right,
,,,,,,,,,,,,,,,,,1001,18,Woman,Right,0,24,0.4,1,0,-,0,1.4829760999998598,['n'],1.0477286000000277,1.5859999999999999,364.41778640000007,,,,,1001,18,Woman,Right,
,,,,,,,,,,,,,,,,,1001,18,Woman,Right,0,75,0.15,2,180,0,0,0.4755560000000969,['y'],0.6556044999999813,1.5819999999999999,368.5174592999999,,,,,1001,18,Woman,Right,
,,,,,,,,,,,,,,,,,1001,18,Woman,Right,0,54,0.15,1,180,-,0,1.8179216999999426,['n'],0.9836459000000559,1.384,374.00102100000004,,,,,1001,18,Woman,Right,
,,,,,,,,,,,,,,,,,1001,18,Woman,Right,0,20,0.4,1,0,-,180,0.43742010000005394,['y'],0.7438018000000284,1.4,378.2174334000001,,,,,1001,18,Woman,Right,
,,,,,,,,,,,,,,,,,1001,18,Woman,Right,0,71,0.15,2,180,0,0,0.5177863999999772,['y'],0.5757160000000567,1.596,382.55073820000007,,,,,1001,18,Woman,Right,
,,,,,,,,,,,,,,,,,1001,18,Woman,Right,0,50,0.15,1,180,-,0,0.3822272000002158,['y'],0.8398833000001105,1.596,386.0844102000001,,,,,1001,18,Woman,Right,
,,,,,,,,,,,,,,,,,1001,18,Woman,Right,0,37,0.4,2,0,180,180,0.7147541999997884,['n'],0.8959942999999839,1.38,391.2679402000001,,,,,1001,18,Woman,Right,
,,,,,,,,,,,,,,,,,1001,18,Woman,Right,0,76,0.15,1,0,-,180,1.0105095999999776,['n'],1.3354340000000775,1.002,396.20062310000003,,,,,1001,18,Woman,Right,
,,,,,,,,,,,,,,,,,1001,18,Woman,Right,0,51,0.15,2,180,0,0,0.3182695999998941,['y'],0.5597627999998167,1.6280000000000001,400.0839152000001,,,,,1001,18,Woman,Right,
,,,,,,,,,,,,,,,,,1001,18,Woman,Right,0,19,0.4,2,180,0,0,0.43175750000000335,['y'],0.6326493999999911,1.6280000000000001,403.4672210000001,,,,,1001,18,Woman,Right,
,,,,,,,,,,,,,,,,,1001,18,Woman,Right,0,36,0.4,1,0,-,0,0.504770199999939,['y'],0.3680504999999812,1.6280000000000001,406.96728269999994,,,,,1001,18,Woman,Right,
,,,,,,,,,,,,,,,,,1001,18,Woman,Right,0,39,0.4,2,180,0,0,0.2725531000000956,['y'],0.7280928000000131,1.744,411.30072429999996,,,,,1001,18,Woman,Right,
,,,,,,,,,,,,,,,,,1001,18,Woman,Right,0,0,1,1,0,-,0,2.081092900000158,['n'],1.7837134000001242,1.426,418.38409049999996,,,,,1001,18,Woman,Right,
,,,,,,,,,,,,,,,,,1001,18,Woman,Right,0,64,0.15,1,0,-,0,3.027831600000127,['y'],0.7758300000000418,1.512,424.86756020000007,,,,,1001,18,Woman,Right,
,,,,,,,,,,,,,,,,,1001,18,Woman,Right,0,49,0.15,2,0,180,180,0.903795700000046,['n'],2.431567399999949,1.0,431.8508082999999,,,,,1001,18,Woman,Right,
,,,,,,,,,,,,,,,,,1001,18,Woman,Right,0,63,0.15,2,180,0,0,0.9459123999999974,['n'],1.535302300000012,1.0,437.0840544,,,,,1001,18,Woman,Right,
,,,,,,,,,,,,,,,,,1001,18,Woman,Right,0,59,0.15,2,180,0,180,0.6058202000001529,['n'],1.1836502999999539,1.0,442.0677392,,,,,1001,18,Woman,Right,
,,,,,,,,,,,,,,,,,1001,18,Woman,Right,0,30,0.4,1,180,-,180,0.8810673999998926,['y'],1.2473468999999113,1.166,447.98437949999993,,,,,1001,18,Woman,Right,
,,,,,,,,,,,,,,,,,1001,18,Woman,Right,0,16,0.4,1,0,-,0,0.9390282000001662,['n'],1.0878135999998904,1.308,453.2844282000001,,,,,1001,18,Woman,Right,
,,,,,,,,,,,,,,,,,1001,18,Woman,Right,0,73,0.15,2,0,180,180,0.7823118000001159,['n'],0.8234766000000491,1.304,457.3675148,,,,,1001,18,Woman,Right,
,,,,,,,,,,,,,,,,,1001,18,Woman,Right,0,32,0.4,1,0,-,0,1.482669900000019,['n'],0.8149309999998877,1.232,462.9340664000001,,,,,1001,18,Woman,Right,
,,,,,,,,,,,,,,,,,1001,18,Woman,Right,0,35,0.4,2,180,0,0,0.5262758000001213,['y'],1.1278595999999652,1.616,467.6508759000001,,,,,1001,18,Woman,Right,
,,,,,,,,,,,,,,,,,1001,18,Woman,Right,0,74,0.15,1,180,-,180,0.4566619999998238,['y'],0.6637860000000728,1.674,471.81742639999993,,,,,1001,18,Woman,Right,
,,,,,,,,,,,,,,,,,1001,18,Woman,Right,0,68,0.15,1,0,-,0,1.1258519999998953,['n'],1.047817200000054,1.512,476.7177285,,,,,1001,18,Woman,Right,
,,,,,,,,,,,,,,,,,1001,18,Woman,Right,0,28,0.4,1,0,-,0,0.3743004000000383,['y'],0.9676827000000685,1.35,481.2509786999999,,,,,1001,18,Woman,Right,
,,,,,,,,,,,,,,,,,1001,18,Woman,Right,0,29,0.4,2,0,180,180,1.3704197999998087,['y'],3.4556488000000627,1.376,489.01720790000013,,,,,1001,18,Woman,Right,
,,,,,,,,,,,,,,,,,1001,18,Woman,Right,0,14,0.4,1,180,-,0,0.37565269999981865,['y'],1.279712100000097,1.568,493.3837843000001,,,,,1001,18,Woman,Right,
,,,,,,,,,,,,,,,,,1001,18,Woman,Right,0,57,0.15,2,0,180,0,0.8707600000000184,['n'],1.4078033999999207,1.326,498.2674291000001,,,,,1001,18,Woman,Right,
,,,,,,,,,,,,,,,,,1001,18,Woman,Right,0,26,0.4,1,180,-,180,0.6870400999998765,['n'],0.5756036000000222,1.718,502.6674573,,,,,1001,18,Woman,Right,
,,,,,,,,,,,,,,,,,1001,18,Woman,Right,0,18,0.4,1,180,-,180,1.1995722000001479,['n'],0.9652025999998841,1.6480000000000001,507.5840559999999,,,,,1001,18,Woman,Right,
,,,,,,,,,,,,,,,,,1001,18,Woman,Right,0,33,0.4,2,0,180,180,0.4226791000000958,['y'],0.5919180999999298,1.626,511.5675265,,,,,1001,18,Woman,Right,
,,,,,,,,,,,,,,,,,1001,18,Woman,Right,0,70,0.15,1,180,-,180,0.8600088999999116,['n'],1.1204451999999492,1.718,516.9676380000001,,,,,1001,18,Woman,Right,
,,,,,,,,,,,,,,,,,1001,18,Woman,Right,0,23,0.4,2,180,0,0,0.43974339999999756,['y'],1.1994082999999591,2.0,521.7672608,,,,,1001,18,Woman,Right,
,,,,,,,,,,,,,,,,,1001,18,Woman,Right,0,2,1,1,180,-,180,0.5124226000000363,['n'],0.9834418999998888,2.0,525.9509042,,,,,1001,18,Woman,Right,
,,,,,,,,,,,,,,,,,1001,18,Woman,Right,0,3,1,2,180,0,0,0.44791620000000876,['y'],0.8321724999998423,2.0,530.6525209000001,,,,,1001,18,Woman,Right,
,,,,,,,,,,,,,,,,,1001,18,Woman,Right,0,27,0.4,2,180,0,0,0.6732706000000235,['y'],0.9275880000000143,2.0,535.3843528,,,,,1001,18,Woman,Right,
,,,,,,,,,,,,,,,,,1001,18,Woman,Right,0,53,0.15,2,0,180,180,1.4362005000000408,['y'],0.735302000000047,1.766,539.9352042,,,,,1001,18,Woman,Right,
,,,,,,,,,,,,,,,,,1001,18,Woman,Right,0,56,0.15,1,0,-,0,0.7334933999998157,['y'],0.5280951999998251,1.766,543.4843715,,,,,1001,18,Woman,Right,
,,,,,,,,,,,,,,,,,1001,18,Woman,Right,0,48,0.15,1,0,-,0,0.9345816000000013,['n'],1.4240383999999722,1.6560000000000001,548.3175261000001,,,,,1001,18,Woman,Right,
,,,,,,,,,,,,,,,,,1001,18,Woman,Right,0,72,0.15,1,0,-,180,1.774216099999876,['n'],0.8392549000000145,1.376,553.5342964000001,,,,,1001,18,Woman,Right,
,,,,,,,,,,,,,,,,,1001,18,Woman,Right,0,41,0.4,2,0,180,180,0.8371328000000631,['y'],0.903441900000189,1.674,558.5181424,,,,,1001,18,Woman,Right,
,,,,,,,,,,,,,,,,,1001,18,Woman,Right,0,42,0.4,1,180,-,180,1.7776449000000412,['n'],0.5836628999998084,1.366,563.5008591000001,,,,,1001,18,Woman,Right,
,,,,,,,,,,,,,,,,,1001,18,Woman,Right,0,15,0.4,2,180,0,0,0.3154554999998709,['y'],1.0786945999998352,1.65,567.3687674,,,,,1001,18,Woman,Right,
,,,,,,,,,,,,,,,,,1001,18,Woman,Right,0,78,0.15,1,180,-,180,0.833780200000092,['y'],0.7040208999999322,1.286,572.5507574000001,,,,,1001,18,Woman,Right,
,,,,,,,,,,,,,,,,,1001,18,Woman,Right,0,6,1,1,180,-,180,0.6052316000000246,['n'],0.8636081000001923,2.0,577.2018611999999,,,,,1001,18,Woman,Right,
,,,,,,,,,,,,,,,,,1001,18,Woman,Right,0,21,0.4,2,0,180,180,0.6758171000001312,['y'],0.943453399999953,1.822,581.4520623000001,,,,,1001,18,Woman,Right,
,,,,,,,,,,,,,,,,,1001,18,Woman,Right,0,62,0.15,1,180,-,180,0.7970409000001837,['n'],0.896149400000013,1.762,585.5337784999999,,,,,1001,18,Woman,Right,
,,,,,,,,,,,,,,,,,1001,18,Woman,Right,0,43,0.4,2,180,0,0,0.3638694999999643,['y'],0.6395814999998493,1.772,589.0173251000001,,,,,1001,18,Woman,Right,
,,,,,,,,,,,,,,,,,1001,18,Woman,Right,0,22,0.4,1,180,-,180,1.0628047000000151,['n'],0.7758771999999681,1.776,593.4675589999999,,,,,1001,18,Woman,Right,
,,,,,,,,,,,,,,,,,1001,18,Woman,Right,0,4,1,1,0,-,0,0.6147152999999435,['y'],0.6241909000000305,1.93,598.4173542999999,,,,,1001,18,Woman,Right,
,,,,,,,,,,,,,,,,,1001,18,Woman,Right,0,7,1,2,180,0,0,0.33099399999991874,['y'],0.5757441999999173,2.0,602.1170483999999,,,,,1001,18,Woman,Right,
,,,,,,,,,,,,,,,,,1001,18,Woman,Right,0,58,0.15,1,180,-,0,1.387105799999972,['n'],0.4394027000000733,1.978,606.4678177000001,,,,,1001,18,Woman,Right,
,,,,,,,,,,,,,,,,,1001,18,Woman,Right,0,34,0.4,1,180,-,180,1.359736200000043,['y'],0.5600351000000501,1.4140000000000001,611.6514139999999,,,,,1001,18,Woman,Right,
,,,,,,,,,,,,,,,,,1001,18,Woman,Right,0,77,0.15,2,0,180,0,1.239313999999922,['y'],1.9993584000001192,1.6480000000000001,617.6006702,,,,,1001,18,Woman,Right,
,,,,,,,,,,,,,,,,,1001,18,Woman,Right,0,12,0.4,1,0,-,0,1.3967927999999574,['n'],0.7601184000000103,1.67,622.1174764,,,,,1001,18,Woman,Right,
,,,,,,,,,,,,,,,,,1001,18,Woman,Right,0,79,0.15,2,180,0,0,1.3418028000000959,['y'],0.7753227000000606,1.672,626.6514459,,,,,1001,18,Woman,Right,
,,,,,,,,,,,,,,,,,1001,18,Woman,Right,0,10,0.4,1,180,-,180,2.0334367000000384,['n'],1.5120752999998786,1.408,633.2352269,,,,,1001,18,Woman,Right,
,,,,,,,,,,,,,,,,,1001,18,Woman,Right,0,9,0.4,2,0,180,180,1.0131180999999287,['y'],0.7358719999999721,1.6520000000000001,637.4338385000001,,,,,1001,18,Woman,Right,
,,,,,,,,,,,,,,,,,1001,18,Woman,Right,0,44,0.15,1,0,-,0,0.611874700000044,['n'],0.8475000000000819,1.684,641.2180659,,,,,1001,18,Woman,Right,
,,,,,,,,,,,,,,,,,1001,18,Woman,Right,0,31,0.4,2,180,0,0,0.3607544000001326,['y'],0.6719914000000244,1.996,645.3837960000001,,,,,1001,18,Woman,Right,
,,,,,,,,,,,,,,,,,1001,18,Woman,Right,1,14,0.4,1,180,-,180,0.4314371000000392,['n'],2.583983499999931,1.972,671.5852924000001,640.0,60.0,82.5,,1001,18,Woman,Right,
,,,,,,,,,,,,,,,,,1001,18,Woman,Right,1,47,0.15,2,180,0,0,1.696113700000069,['y'],0.5358975000001465,1.962,676.1843226999999,,,,,1001,18,Woman,Right,
,,,,,,,,,,,,,,,,,1001,18,Woman,Right,1,1,1,2,0,180,180,0.7350587000000814,['y'],0.7997391999999763,1.9060000000000001,680.0350406,,,,,1001,18,Woman,Right,
,,,,,,,,,,,,,,,,,1001,18,Woman,Right,1,2,1,1,180,-,180,0.7223128999999062,['n'],0.8722149999998692,1.9060000000000001,684.0854578999999,,,,,1001,18,Woman,Right,
,,,,,,,,,,,,,,,,,1001,18,Woman,Right,1,30,0.4,1,180,-,0,0.4017077999999401,['y'],0.5201217999999699,1.9060000000000001,687.3015476,,,,,1001,18,Woman,Right,
,,,,,,,,,,,,,,,,,1001,18,Woman,Right,1,60,0.15,1,0,-,180,1.4595434000000296,['n'],0.8880010000000311,1.316,692.3511861,,,,,1001,18,Woman,Right,
,,,,,,,,,,,,,,,,,1001,18,Woman,Right,1,58,0.15,1,180,-,0,1.3611253000001398,['y'],0.4238376999999218,1.342,697.3672492999999,,,,,1001,18,Woman,Right,
,,,,,,,,,,,,,,,,,1001,18,Woman,Right,1,51,0.15,2,180,0,180,1.7300961000000825,['n'],0.9038334000001669,1.3860000000000001,702.3669589000001,,,,,1001,18,Woman,Right,
,,,,,,,,,,,,,,,,,1001,18,Woman,Right,1,35,0.4,2,180,0,0,0.35954289999995126,['y'],0.6714076000000659,1.994,705.933906,,,,,1001,18,Woman,Right,
,,,,,,,,,,,,,,,,,1001,18,Woman,Right,1,32,0.4,1,0,-,0,0.7262628000000859,['n'],1.0877834000000348,1.978,710.3355429000001,,,,,1001,18,Woman,Right,
,,,,,,,,,,,,,,,,,1001,18,Woman,Right,1,7,1,2,180,0,0,0.20946969999999965,['y'],0.791836099999955,2.0,713.7683268000001,,,,,1001,18,Woman,Right,
,,,,,,,,,,,,,,,,,1001,18,Woman,Right,1,59,0.15,2,180,0,180,1.220135700000128,['n'],1.0237798000000566,1.416,718.7340165999999,,,,,1001,18,Woman,Right,
,,,,,,,,,,,,,,,,,1001,18,Woman,Right,1,41,0.4,2,0,180,180,0.5853637999998682,['y'],1.7193267000000105,1.696,723.8680019999999,,,,,1001,18,Woman,Right,
,,,,,,,,,,,,,,,,,1001,18,Woman,Right,1,76,0.15,1,0,-,0,2.445085100000142,['y'],0.6962117999999009,1.696,729.2173942,,,,,1001,18,Woman,Right,
,,,,,,,,,,,,,,,,,1001,18,Woman,Right,1,71,0.15,2,180,0,180,0.764664699999912,['n'],0.8081070000000636,1.3639999999999999,733.3853822000001,,,,,1001,18,Woman,Right,
,,,,,,,,,,,,,,,,,1001,18,Woman,Right,1,69,0.15,2,0,180,180,1.8359568000000763,['n'],0.7196575000000394,1.43,738.4514283999999,,,,,1001,18,Woman,Right,
,,,,,,,,,,,,,,,,,1001,18,Woman,Right,1,57,0.15,2,0,180,0,1.4254117000000406,['n'],1.0634111999997913,1.338,744.7175317000001,,,,,1001,18,Woman,Right,
,,,,,,,,,,,,,,,,,1001,18,Woman,Right,1,53,0.15,2,0,180,0,0.9815537999998014,['n'],0.7752734000000601,1.008,748.9839615999999,,,,,1001,18,Woman,Right,
,,,,,,,,,,,,,,,,,1001,18,Woman,Right,1,9,0.4,2,0,180,180,0.6338698999998087,['y'],0.8955063000000791,1.744,753.0178401000001,,,,,1001,18,Woman,Right,
,,,,,,,,,,,,,,,,,1001,18,Woman,Right,1,37,0.4,2,0,180,180,0.7602759999999762,['y'],1.0715530999998464,2.0,757.5675105,,,,,1001,18,Woman,Right,
,,,,,,,,,,,,,,,,,1001,18,Woman,Right,1,67,0.15,2,180,0,0,0.3571259000000282,['y'],0.8956984999999804,2.0,757.5675105,,,,,1001,18,Woman,Right,
,,,,,,,,,,,,,,,,,1001,18,Woman,Right,1,77,0.15,2,0,180,0,2.0335469999999987,['n'],0.9359669000000395,1.0,767.6855467,,,,,1001,18,Woman,Right,
,,,,,,,,,,,,,,,,,1001,18,Woman,Right,1,63,0.15,2,180,0,0,0.43798149999997804,['y'],0.975651599999992,1.982,771.5841998000001,,,,,1001,18,Woman,Right,
,,,,,,,,,,,,,,,,,1001,18,Woman,Right,1,27,0.4,2,180,0,0,0.24811290000002373,['y'],0.6880005999998957,2.0,775.0339586,,,,,1001,18,Woman,Right,
,,,,,,,,,,,,,,,,,1001,18,Woman,Right,1,74,0.15,1,180,-,180,0.7747787999999218,['n'],0.7114342999998371,1.798,779.5182537000001,,,,,1001,18,Woman,Right,
,,,,,,,,,,,,,,,,,1001,18,Woman,Right,1,72,0.15,1,0,-,0,0.8535722999999962,['n'],0.7354563999999755,1.84,783.4014181,,,,,1001,18,Woman,Right,
,,,,,,,,,,,,,,,,,1001,18,Woman,Right,1,62,0.15,1,180,-,0,1.7257074999999986,['n'],0.8081174999999803,1.24,788.3006393999999,,,,,1001,18,Woman,Right,
,,,,,,,,,,,,,,,,,1001,18,Woman,Right,1,4,1,1,0,-,0,0.5637940999999955,['n'],0.7432922000000417,1.99,792.6179909,,,,,1001,18,Woman,Right,
,,,,,,,,,,,,,,,,,1001,18,Woman,Right,1,29,0.4,2,0,180,180,0.3041179000001648,['y'],1.3839053000001513,1.6440000000000001,796.8676723000001,,,,,1001,18,Woman,Right,
,,,,,,,,,,,,,,,,,1001,18,Woman,Right,1,40,0.4,1,0,-,0,0.610890100000006,['n'],0.6315351999999166,1.766,800.5000437000001,,,,,1001,18,Woman,Right,
,,,,,,,,,,,,,,,,,1001,18,Woman,Right,1,52,0.15,1,0,-,0,2.396022099999982,['n'],0.703889499999832,1.006,806.5842292,,,,,1001,18,Woman,Right,
,,,,,,,,,,,,,,,,,1001,18,Woman,Right,1,17,0.4,2,0,180,180,0.2453682000000299,['y'],1.0477567999998882,1.8639999999999999,810.4355276000001,,,,,1001,18,Woman,Right,
,,,,,,,,,,,,,,,,,1001,18,Woman,Right,1,68,0.15,1,0,-,0,0.7989450000000033,['y'],1.199534500000027,1.298,815.1838213000001,,,,,1001,18,Woman,Right,
,,,,,,,,,,,,,,,,,1001,18,Woman,Right,1,49,0.15,2,0,180,180,0.9629846000000271,['n'],0.7996114000000034,1.3599999999999999,819.3189116000001,,,,,1001,18,Woman,Right,
,,,,,,,,,,,,,,,,,1001,18,Woman,Right,1,45,0.15,2,0,180,0,1.370519300000069,['n'],0.751305400000092,1.424,823.9509339000001,,,,,1001,18,Woman,Right,
,,,,,,,,,,,,,,,,,1001,18,Woman,Right,1,36,0.4,1,0,-,0,0.30058389999999235,['n'],1.087666800000079,1.88,828.2840555,,,,,1001,18,Woman,Right,
,,,,,,,,,,,,,,,,,1001,18,Woman,Right,1,8,0.4,1,0,-,0,1.390161199999966,['y'],1.0554379999998673,1.424,833.3172543999999,,,,,1001,18,Woman,Right,
,,,,,,,,,,,,,,,,,1001,18,Woman,Right,1,6,1,1,180,-,180,0.47650739999994585,['n'],1.319447099999934,1.424,833.3172543999999,,,,,1001,18,Woman,Right,
,,,,,,,,,,,,,,,,,1001,18,Woman,Right,1,12,0.4,1,0,-,0,0.33531349999998383,['n'],1.247590799999898,1.8,841.7188433000001,,,,,1001,18,Woman,Right,
,,,,,,,,,,,,,,,,,1001,18,Woman,Right,1,19,0.4,2,180,0,0,0.3590990000000147,['y'],0.6479848000001311,1.826,844.9514253,,,,,1001,18,Woman,Right,
,,,,,,,,,,,,,,,,,1001,18,Woman,Right,1,22,0.4,1,180,-,180,0.5657376999999997,['n'],0.8561584999999923,1.784,849.13437,,,,,1001,18,Woman,Right,
,,,,,,,,,,,,,,,,,1001,18,Woman,Right,1,11,0.4,2,180,0,0,0.363235799999984,['n'],0.6238085999998475,1.824,852.4842888000001,,,,,1001,18,Woman,Right,
,,,,,,,,,,,,,,,,,1001,18,Woman,Right,1,78,0.15,1,180,-,180,1.1618665999999394,['n'],1.1916975999999977,1.83,857.2355170999999,,,,,1001,18,Woman,Right,
,,,,,,,,,,,,,,,,,1001,18,Woman,Right,1,24,0.4,1,0,-,0,0.6318159999998443,['n'],0.8535855999998603,1.862,861.4674480000001,,,,,1001,18,Woman,Right,
,,,,,,,,,,,,,,,,,1001,18,Woman,Right,1,5,1,2,0,180,180,1.1840569999999389,['y'],0.6479047000000264,1.862,865.9680856,,,,,1001,18,Woman,Right,
,,,,,,,,,,,,,,,,,1001,18,Woman,Right,1,20,0.4,1,0,-,0,0.7311141999998654,['n'],0.8309773999999379,1.8860000000000001,869.9181903000001,,,,,1001,18,Woman,Right,
,,,,,,,,,,,,,,,,,1001,18,Woman,Right,1,56,0.15,1,0,-,180,0.8759161999998923,['n'],0.8317799999999806,1.0,874.7007088,,,,,1001,18,Woman,Right,
,,,,,,,,,,,,,,,,,1001,18,Woman,Right,1,39,0.4,2,180,0,0,0.3821637999999439,['y'],0.7916121999999177,1.974,878.1848524,,,,,1001,18,Woman,Right,
,,,,,,,,,,,,,,,,,1001,18,Woman,Right,1,73,0.15,2,0,180,180,2.449432999999999,['y'],0.6883209000000079,1.498,884.6681069000001,,,,,1001,18,Woman,Right,
,,,,,,,,,,,,,,,,,1001,18,Woman,Right,1,3,1,2,180,0,0,0.5538355999999567,['y'],0.9198233000001892,1.662,888.3841315,,,,,1001,18,Woman,Right,
,,,,,,,,,,,,,,,,,1001,18,Woman,Right,1,66,0.15,1,180,-,0,1.334597600000052,['n'],0.7516652000001613,1.466,893.4671334,,,,,1001,18,Woman,Right,
,,,,,,,,,,,,,,,,,1001,18,Woman,Right,1,23,0.4,2,180,0,0,0.4908313000000817,['y'],0.6400407999999516,1.68,896.9686095,,,,,1001,18,Woman,Right,
,,,,,,,,,,,,,,,,,1001,18,Woman,Right,1,13,0.4,2,0,180,180,0.6789960999999494,['y'],0.5039970000000267,1.826,900.7513076,,,,,1001,18,Woman,Right,
,,,,,,,,,,,,,,,,,1001,18,Woman,Right,1,44,0.15,1,0,-,0,2.314613899999813,['y'],0.479609900000014,1.738,906.1669643,,,,,1001,18,Woman,Right,
,,,,,,,,,,,,,,,,,1001,18,Woman,Right,1,15,0.4,2,180,0,0,0.27055049999989933,['y'],0.5360673000000133,1.738,909.2343826000001,,,,,1001,18,Woman,Right,
,,,,,,,,,,,,,,,,,1001,18,Woman,Right,1,38,0.4,1,180,-,180,0.4367787999999564,['n'],1.2399891000000025,1.738,909.2343826000001,,,,,1001,18,Woman,Right,
,,,,,,,,,,,,,,,,,1001,18,Woman,Right,1,31,0.4,2,180,0,0,0.26091310000015255,['y'],0.6319389999998748,1.986,916.7513189000001,,,,,1001,18,Woman,Right,
,,,,,,,,,,,,,,,,,1001,18,Woman,Right,1,43,0.4,2,180,0,0,0.31357660000003307,['y'],0.47209539999994377,1.8980000000000001,919.8176278000001,,,,,1001,18,Woman,Right,
,,,,,,,,,,,,,,,,,1001,18,Woman,Right,1,79,0.15,2,180,0,180,1.4133429999999407,['y'],0.4317221999999674,1.8439999999999999,923.9506450000001,,,,,1001,18,Woman,Right,
,,,,,,,,,,,,,,,,,1001,18,Woman,Right,1,75,0.15,2,180,0,180,0.5451702000000296,['n'],0.640188900000112,1.8439999999999999,923.9506450000001,,,,,1001,18,Woman,Right,
,,,,,,,,,,,,,,,,,1001,18,Woman,Right,1,46,0.15,1,180,-,0,0.39262440000015886,['y'],0.4402906999998777,1.5979999999999999,931.6009484000001,,,,,1001,18,Woman,Right,
,,,,,,,,,,,,,,,,,1001,18,Woman,Right,1,55,0.15,2,180,0,0,1.6132996000001185,['n'],0.9196402000000035,1.5979999999999999,931.6009484000001,,,,,1001,18,Woman,Right,
,,,,,,,,,,,,,,,,,1001,18,Woman,Right,1,26,0.4,1,180,-,180,1.016065000000026,['n'],0.9276563000000806,1.718,941.0854413,,,,,1001,18,Woman,Right,
,,,,,,,,,,,,,,,,,1001,18,Woman,Right,1,70,0.15,1,180,-,180,1.6507160000001022,['n'],0.5760677999999189,1.326,946.6521107000001,,,,,1001,18,Woman,Right,
,,,,,,,,,,,,,,,,,1001,18,Woman,Right,1,33,0.4,2,0,180,180,1.1241836000001513,['y'],1.3595761999999922,1.4020000000000001,952.0669852000001,,,,,1001,18,Woman,Right,
,,,,,,,,,,,,,,,,,1001,18,Woman,Right,1,0,1,1,0,-,0,0.9279994000000897,['y'],0.680087199999889,1.5859999999999999,956.9838308999999,,,,,1001,18,Woman,Right,
,,,,,,,,,,,,,,,,,1001,18,Woman,Right,1,28,0.4,1,0,-,0,1.449536099999932,['n'],0.7355010999999649,1.8820000000000001,961.8008209,,,,,1001,18,Woman,Right,
,,,,,,,,,,,,,,,,,1001,18,Woman,Right,1,61,0.15,2,0,180,180,0.7338939999999639,['n'],0.7998929999998836,1.392,966.4350666,,,,,1001,18,Woman,Right,
,,,,,,,,,,,,,,,,,1001,18,Woman,Right,1,42,0.4,1,180,-,180,0.6675749999999425,['n'],0.9119425000003503,1.392,966.4350666,,,,,1001,18,Woman,Right,
,,,,,,,,,,,,,,,,,1001,18,Woman,Right,1,25,0.4,2,0,180,0,0.6608995000001414,['y'],1.255705399999897,1.6099999999999999,974.6505542999998,,,,,1001,18,Woman,Right,
,,,,,,,,,,,,,,,,,1001,18,Woman,Right,1,34,0.4,1,180,-,0,0.9485533000001851,['y'],0.6400742999999238,1.858,979.5361096000001,,,,,1001,18,Woman,Right,
,,,,,,,,,,,,,,,,,1001,18,Woman,Right,1,50,0.15,1,180,-,180,1.7148487000004025,['n'],0.9354244999999537,1.858,979.5361096000001,,,,,1001,18,Woman,Right,
,,,,,,,,,,,,,,,,,1001,18,Woman,Right,1,65,0.15,2,0,180,0,0.9426598999998532,['y'],1.1434598000000733,1.654,989.1354738999999,,,,,1001,18,Woman,Right,
,,,,,,,,,,,,,,,,,1001,18,Woman,Right,1,21,0.4,2,0,180,180,0.5203749000002063,['y'],0.6559831999998096,1.794,993.2835880000002,,,,,1001,18,Woman,Right,
,,,,,,,,,,,,,,,,,1001,18,Woman,Right,1,48,0.15,1,0,-,0,0.35944689999996626,['n'],2.20712309999999,1.722,998.4678288999999,,,,,1001,18,Woman,Right,
,,,,,,,,,,,,,,,,,1001,18,Woman,Right,1,54,0.15,1,180,-,180,0.7142447999999604,['n'],1.2594076000000314,1.722,1002.7853473,,,,,1001,18,Woman,Right,
,,,,,,,,,,,,,,,,,1001,18,Woman,Right,1,16,0.4,1,0,-,0,0.44151570000030915,['n'],0.8158208999998351,1.988,1007.2509223000002,,,,,1001,18,Woman,Right,
,,,,,,,,,,,,,,,,,1001,18,Woman,Right,1,64,0.15,1,0,-,180,1.1864009000000806,['n'],0.9275635999997576,1.208,1012.9342016999999,,,,,1001,18,Woman,Right,
,,,,,,,,,,,,,,,,,1001,18,Woman,Right,1,18,0.4,1,180,-,0,0.7341383999996651,['y'],0.6956810000001497,1.67,1017.0670577000001,,,,,1001,18,Woman,Right,
,,,,,,,,,,,,,,,,,1001,18,Woman,Right,1,10,0.4,1,180,-,180,1.6304247999996733,['n'],1.656006300000172,1.67,1017.0670577000001,,,,,1001,18,Woman,Right,
,,,,,,,,,,,,,,,,,1001,18,Woman,Right,2,3,1,2,180,0,0,0.34373490000007223,['y'],1.1357456999999158,1.762,1032.6840252000002,590.0,75.0,67.5,,1001,18,Woman,Right,
,,,,,,,,,,,,,,,,,1001,18,Woman,Right,2,7,1,2,180,0,0,0.2766865000003236,['y'],0.567624799999976,1.832,1035.8673070999998,,,,,1001,18,Woman,Right,
,,,,,,,,,,,,,,,,,1001,18,Woman,Right,2,4,1,1,0,-,0,0.2940355000000636,['n'],0.5601144000002023,1.832,1039.0021692999999,,,,,1001,18,Woman,Right,
,,,,,,,,,,,,,,,,,1001,18,Woman,Right,2,77,0.15,2,0,180,180,0.5979669000003014,['y'],1.12808509999968,1.832,1043.3516128,,,,,1001,18,Woman,Right,
,,,,,,,,,,,,,,,,,1001,18,Woman,Right,2,61,0.15,2,0,180,0,0.7507094000002326,['n'],2.704150799999752,1.832,1049.1188634,,,,,1001,18,Woman,Right,
,,,,,,,,,,,,,,,,,1001,18,Woman,Right,2,37,0.4,2,0,180,180,0.8808074999997189,['y'],5.0559901999999965,1.832,1057.4516367,,,,,1001,18,Woman,Right,
,,,,,,,,,,,,,,,,,1001,18,Woman,Right,2,41,0.4,2,0,180,180,0.7078839999999218,['y'],0.6718594000003577,1.832,1061.2349982,,,,,1001,18,Woman,Right,
,,,,,,,,,,,,,,,,,1001,18,Woman,Right,2,26,0.4,1,180,-,0,1.1499102000002495,['y'],0.4320167999999285,1.832,1065.3347162,,,,,1001,18,Woman,Right,
,,,,,,,,,,,,,,,,,1001,18,Woman,Right,2,22,0.4,1,180,-,180,0.7534251000001859,['y'],0.8481247999998232,1.83,1069.2683748,,,,,1001,18,Woman,Right,
,,,,,,,,,,,,,,,,,1001,18,Woman,Right,2,27,0.4,2,180,0,0,0.8572831000001315,['n'],1.0239676999999574,1.814,1073.7001335,,,,,1001,18,Woman,Right,
,,,,,,,,,,,,,,,,,1001,18,Woman,Right,2,35,0.4,2,180,0,0,0.8284973999998329,['n'],0.823855900000126,1.814,1077.7178735000002,,,,,1001,18,Woman,Right,
,,,,,,,,,,,,,,,,,1001,18,Woman,Right,2,79,0.15,2,180,0,0,1.2047388000000865,['n'],0.792069999999967,1.814,1082.2841472,,,,,1001,18,Woman,Right,
,,,,,,,,,,,,,,,,,1001,18,Woman,Right,2,70,0.15,1,180,-,0,0.8801949999997305,['n'],1.231619099999989,1.0,1087.5336914999998,,,,,1001,18,Woman,Right,
,,,,,,,,,,,,,,,,,1001,18,Woman,Right,2,5,1,2,0,180,180,0.4566989999998441,['y'],1.6313639999998486,1.0,1087.5336914999998,,,,,1001,18,Woman,Right,
,,,,,,,,,,,,,,,,,1001,18,Woman,Right,2,24,0.4,1,0,-,0,0.6221440000003895,['n'],0.5993434000001798,1.752,1095.5015496,,,,,1001,18,Woman,Right,
,,,,,,,,,,,,,,,,,1001,18,Woman,Right,2,71,0.15,2,180,0,0,0.43290029999980106,['y'],0.4159100000001672,1.366,1099.6517079,,,,,1001,18,Woman,Right,
,,,,,,,,,,,,,,,,,1001,18,Woman,Right,2,53,0.15,2,0,180,0,1.2885628999997607,['n'],0.6396233999998913,1.366,1099.6517079,,,,,1001,18,Woman,Right,
,,,,,,,,,,,,,,,,,1001,18,Woman,Right,2,18,0.4,1,180,-,0,1.1344049999997878,['y'],0.8801438999998936,1.784,1108.3522683,,,,,1001,18,Woman,Right,
,,,,,,,,,,,,,,,,,1001,18,Woman,Right,2,32,0.4,1,0,-,0,0.5307349999998223,['n'],0.9106939000002967,1.658,1112.4186819000001,,,,,1001,18,Woman,Right,
,,,,,,,,,,,,,,,,,1001,18,Woman,Right,2,76,0.15,1,0,-,0,0.5826149999998051,['n'],0.7514501999999084,1.67,1116.0843241000002,,,,,1001,18,Woman,Right,
,,,,,,,,,,,,,,,,,1001,18,Woman,Right,2,13,0.4,2,0,180,180,0.5645353999998406,['y'],1.5281294999999773,1.6179999999999999,1121.1021688,,,,,1001,18,Woman,Right,
,,,,,,,,,,,,,,,,,1001,18,Woman,Right,2,11,0.4,2,180,0,0,1.0028128999997534,['y'],0.5596196000001328,1.6179999999999999,1121.1021688,,,,,1001,18,Woman,Right,
,,,,,,,,,,,,,,,,,1001,18,Woman,Right,2,9,0.4,2,0,180,180,0.4895507999999609,['y'],0.5838925000002746,1.6480000000000001,1128.2176195000002,,,,,1001,18,Woman,Right,
,,,,,,,,,,,,,,,,,1001,18,Woman,Right,2,67,0.15,2,180,0,180,1.8936084000001756,['y'],0.4481277999998383,1.6480000000000001,1132.7509842,,,,,1001,18,Woman,Right,
,,,,,,,,,,,,,,,,,1001,18,Woman,Right,2,34,0.4,1,180,-,0,0.39386289999993096,['y'],1.8720103000000563,1.6480000000000001,1137.1674453,,,,,1001,18,Woman,Right,
,,,,,,,,,,,,,,,,,1001,18,Woman,Right,2,16,0.4,1,0,-,180,0.7589907999999923,['n'],0.7042322000002059,1.6480000000000001,1140.8178979,,,,,1001,18,Woman,Right,
,,,,,,,,,,,,,,,,,1001,18,Woman,Right,2,54,0.15,1,180,-,180,1.079181100000369,['n'],0.656292300000132,1.6480000000000001,1144.8514536000002,,,,,1001,18,Woman,Right,
,,,,,,,,,,,,,,,,,1001,18,Woman,Right,2,30,0.4,1,180,-,180,0.4614161999998032,['n'],1.1041362999999365,1.796,1148.9344927000002,,,,,1001,18,Woman,Right,
,,,,,,,,,,,,,,,,,1001,18,Woman,Right,2,60,0.15,1,0,-,0,0.7953600000000733,['n'],1.0954225000000406,1.804,1153.1174629000002,,,,,1001,18,Woman,Right,
,,,,,,,,,,,,,,,,,1001,18,Woman,Right,2,33,0.4,2,0,180,180,0.5565005000003111,['y'],0.8798103000003721,1.682,1156.7513599,,,,,1001,18,Woman,Right,
,,,,,,,,,,,,,,,,,1001,18,Woman,Right,2,1,1,2,0,180,180,0.9642238000001271,['y'],0.8214366000001974,1.94,1161.0510104,,,,,1001,18,Woman,Right,
,,,,,,,,,,,,,,,,,1001,18,Woman,Right,2,78,0.15,1,180,-,180,0.6870405999998184,['n'],0.799461600000086,1.6600000000000001,1165.2177545999998,,,,,1001,18,Woman,Right,
,,,,,,,,,,,,,,,,,1001,18,Woman,Right,2,21,0.4,2,0,180,180,0.8564910000000054,['y'],1.0638088999999127,1.6600000000000001,1169.3004627,,,,,1001,18,Woman,Right,
,,,,,,,,,,,,,,,,,1001,18,Woman,Right,2,6,1,1,180,-,180,0.36402200000020457,['n'],0.7440892999998141,1.8679999999999999,1173.3350403999998,,,,,1001,18,Woman,Right,
,,,,,,,,,,,,,,,,,1001,18,Woman,Right,2,38,0.4,1,180,-,180,0.7400912000002791,['n'],1.3994493999998667,1.692,1177.9847786999999,,,,,1001,18,Woman,Right,
,,,,,,,,,,,,,,,,,1001,18,Woman,Right,2,17,0.4,2,0,180,180,0.4474177000001873,['y'],0.6381469999996625,1.692,1181.2850061,,,,,1001,18,Woman,Right,
,,,,,,,,,,,,,,,,,1001,18,Woman,Right,2,31,0.4,2,180,0,0,0.3642651999998634,['y'],0.6722393000000011,1.804,1184.6189674000002,,,,,1001,18,Woman,Right,
,,,,,,,,,,,,,,,,,1001,18,Woman,Right,2,25,0.4,2,0,180,180,0.8473724999998922,['y'],0.6717115999999805,1.804,1184.6189674000002,,,,,1001,18,Woman,Right,
,,,,,,,,,,,,,,,,,1001,18,Woman,Right,2,51,0.15,2,180,0,0,1.8580822999997508,['n'],1.3274960999997347,1.816,1193.7010851999999,,,,,1001,18,Woman,Right,
,,,,,,,,,,,,,,,,,1001,18,Woman,Right,2,10,0.4,1,180,-,180,1.3825160999999753,['n'],0.8721120000000155,1.804,1198.2512765000001,,,,,1001,18,Woman,Right,
,,,,,,,,,,,,,,,,,1001,18,Woman,Right,2,29,0.4,2,0,180,180,0.48565659999985655,['y'],1.6400204000001395,1.804,1202.4847515000001,,,,,1001,18,Woman,Right,
,,,,,,,,,,,,,,,,,1001,18,Woman,Right,2,40,0.4,1,0,-,0,0.41056860000026063,['y'],0.5599784999999429,1.804,1202.4847515000001,,,,,1001,18,Woman,Right,
,,,,,,,,,,,,,,,,,1001,18,Woman,Right,2,65,0.15,2,0,180,180,0.6978138999998009,['n'],0.9201161000000866,1.5,1209.0190453999999,,,,,1001,18,Woman,Right,
,,,,,,,,,,,,,,,,,1001,18,Woman,Right,2,42,0.4,1,180,-,180,0.7937704999999369,['y'],0.5915395000001809,1.724,1213.1843539000001,,,,,1001,18,Woman,Right,
,,,,,,,,,,,,,,,,,1001,18,Woman,Right,2,68,0.15,1,0,-,0,2.353115500000058,['n'],0.9039468999999372,1.004,1219.5851162,,,,,1001,18,Woman,Right,
,,,,,,,,,,,,,,,,,1001,18,Woman,Right,2,73,0.15,2,0,180,180,0.3848290000000816,['y'],0.6556150000001253,1.838,1223.0169028,,,,,1001,18,Woman,Right,
,,,,,,,,,,,,,,,,,1001,18,Woman,Right,2,57,0.15,2,0,180,0,1.0000178999998752,['n'],0.7435536000002685,1.6019999999999999,1227.0835820000002,,,,,1001,18,Woman,Right,
,,,,,,,,,,,,,,,,,1001,18,Woman,Right,2,8,0.4,1,0,-,0,0.9404934000003777,['n'],0.407539799999995,1.914,1231.0173199,,,,,1001,18,Woman,Right,
,,,,,,,,,,,,,,,,,1001,18,Woman,Right,2,28,0.4,1,0,-,0,0.648012899999685,['n'],0.49533389999987776,1.802,1234.2852523000001,,,,,1001,18,Woman,Right,
,,,,,,,,,,,,,,,,,1001,18,Woman,Right,2,62,0.15,1,180,-,180,0.457372000000305,['n'],0.5440264000003481,1.56,1238.0177054,,,,,1001,18,Woman,Right,
,,,,,,,,,,,,,,,,,1001,18,Woman,Right,2,15,0.4,2,180,0,0,0.33177719999957844,['y'],0.8643231999999443,1.8599999999999999,1241.4849518,,,,,1001,18,Woman,Right,
,,,,,,,,,,,,,,,,,1001,18,Woman,Right,2,56,0.15,1,0,-,180,0.774182699999983,['n'],0.6551787999997032,1.8439999999999999,1245.0341597000001,,,,,1001,18,Woman,Right,
,,,,,,,,,,,,,,,,,1001,18,Woman,Right,2,39,0.4,2,180,0,0,0.4458860999998251,['y'],0.840116300000318,1.8439999999999999,1248.5353083999998,,,,,1001,18,Woman,Right,
,,,,,,,,,,,,,,,,,1001,18,Woman,Right,2,49,0.15,2,0,180,180,0.9148005000001831,['n'],1.096089199999824,1.6560000000000001,1253.4510439,,,,,1001,18,Woman,Right,
,,,,,,,,,,,,,,,,,1001,18,Woman,Right,2,64,0.15,1,0,-,0,0.45650030000024344,['n'],0.5916533999998137,1.6560000000000001,1253.4510439,,,,,1001,18,Woman,Right,
,,,,,,,,,,,,,,,,,1001,18,Woman,Right,2,63,0.15,2,180,0,0,1.3500935000001846,['y'],0.8157223999996859,1.642,1261.7847023,,,,,1001,18,Woman,Right,
,,,,,,,,,,,,,,,,,1001,18,Woman,Right,2,59,0.15,2,180,0,180,1.297569199999998,['n'],0.7754998000000342,1.022,1266.5344377000001,,,,,1001,18,Woman,Right,
,,,,,,,,,,,,,,,,,1001,18,Woman,Right,2,72,0.15,1,0,-,180,2.2089310999999725,['n'],0.7519412999999986,1.022,1266.5344377000001,,,,,1001,18,Woman,Right,
,,,,,,,,,,,,,,,,,1001,18,Woman,Right,2,36,0.4,1,0,-,180,1.846117999999933,['y'],0.7518648999998732,1.3900000000000001,1277.3346361,,,,,1001,18,Woman,Right,
,,,,,,,,,,,,,,,,,1001,18,Woman,Right,2,20,0.4,1,0,-,0,0.2985188000002381,['n'],1.1840958000002502,1.4020000000000001,1281.5843452,,,,,1001,18,Woman,Right,
,,,,,,,,,,,,,,,,,1001,18,Woman,Right,2,75,0.15,2,180,0,0,1.6253524999997353,['y'],1.343697599999814,1.408,1286.8513060999999,,,,,1001,18,Woman,Right,
,,,,,,,,,,,,,,,,,1001,18,Woman,Right,2,46,0.15,1,180,-,180,0.3073748000001615,['n'],1.239974699999948,1.958,1291.0502769,,,,,1001,18,Woman,Right,
,,,,,,,,,,,,,,,,,1001,18,Woman,Right,2,55,0.15,2,180,0,0,0.4830336999998508,['y'],0.615299099999902,1.958,1291.0502769,,,,,1001,18,Woman,Right,
,,,,,,,,,,,,,,,,,1001,18,Woman,Right,2,0,1,1,0,-,0,0.5743870999999672,['n'],0.6401099999998223,1.992,1298.4176972999999,,,,,1001,18,Woman,Right,
,,,,,,,,,,,,,,,,,1001,18,Woman,Right,2,74,0.15,1,180,-,180,0.5313605999999709,['n'],0.7951146000000335,1.27,1303.3175286,,,,,1001,18,Woman,Right,
,,,,,,,,,,,,,,,,,1001,18,Woman,Right,2,52,0.15,1,0,-,0,1.3372285000000375,['n'],0.8716592000000674,1.714,1307.9674820999999,,,,,1001,18,Woman,Right,
,,,,,,,,,,,,,,,,,1001,18,Woman,Right,2,19,0.4,2,180,0,0,0.7930932999997822,['y'],1.1120257000002312,1.714,1312.0185947,,,,,1001,18,Woman,Right,
,,,,,,,,,,,,,,,,,1001,18,Woman,Right,2,2,1,1,180,-,180,0.4830743000002258,['n'],0.8954735000002074,1.714,1312.0185947,,,,,1001,18,Woman,Right,
,,,,,,,,,,,,,,,,,1001,18,Woman,Right,2,23,0.4,2,180,0,0,0.41759700000011435,['y'],2.528067000000192,1.986,1321.6005971999998,,,,,1001,18,Woman,Right,
,,,,,,,,,,,,,,,,,1001,18,Woman,Right,2,44,0.15,1,0,-,180,1.6071580999996513,['n'],0.9917991000002075,1.19,1327.1513546,,,,,1001,18,Woman,Right,
,,,,,,,,,,,,,,,,,1001,18,Woman,Right,2,69,0.15,2,0,180,180,1.0972638000002917,['n'],0.9592149999998583,1.19,1327.1513546,,,,,1001,18,Woman,Right,
,,,,,,,,,,,,,,,,,1001,18,Woman,Right,2,66,0.15,1,180,-,180,0.7742498000002342,['n'],0.5754269999997632,1.17,1335.1343111,,,,,1001,18,Woman,Right,
,,,,,,,,,,,,,,,,,1001,18,Woman,Right,2,14,0.4,1,180,-,180,0.5193929000001845,['n'],1.5195925000002717,1.6640000000000001,1340.0852740999999,,,,,1001,18,Woman,Right,
,,,,,,,,,,,,,,,,,1001,18,Woman,Right,2,48,0.15,1,0,-,180,1.2610246000003826,['n'],2.0240576999999575,1.57,1346.6351386000001,,,,,1001,18,Woman,Right,
,,,,,,,,,,,,,,,,,1001,18,Woman,Right,2,47,0.15,2,180,0,0,0.34275960000013583,['n'],0.8236506000002919,1.57,1346.6351386000001,,,,,1001,18,Woman,Right,
,,,,,,,,,,,,,,,,,1001,18,Woman,Right,2,45,0.15,2,0,180,180,0.3224430999998731,['y'],0.5998939000000973,1.812,1353.0847039,,,,,1001,18,Woman,Right,
,,,,,,,,,,,,,,,,,1001,18,Woman,Right,2,43,0.4,2,180,0,0,0.242870000000039,['y'],0.4475800000000163,1.858,1356.2344828999999,,,,,1001,18,Woman,Right,
,,,,,,,,,,,,,,,,,1001,18,Woman,Right,2,58,0.15,1,180,-,180,0.8359209999998711,['n'],0.9194281000000046,1.708,1360.7017056,,,,,1001,18,Woman,Right,
,,,,,,,,,,,,,,,,,1001,18,Woman,Right,2,12,0.4,1,0,-,0,0.5284864000000198,['y'],1.3040573999996923,1.538,1365.7833584,,,,,1001,18,Woman,Right,
,,,,,,,,,,,,,,,,,1001,18,Woman,Right,2,50,0.15,1,180,-,180,0.40948419999995167,['n'],0.7673819999999978,1.776,1369.8842936,,,,,1001,18,Woman,Right,
,,,,,,,,,,,,,,,,,1001,18,Woman,Right,3,36,0.4,1,0,-,0,1.6722306000001481,['n'],3.383495000000039,1.806,1397.8518648,650.0,80.0,70.0,,1001,18,Woman,Right,
,,,,,,,,,,,,,,,,,1001,18,Woman,Right,3,9,0.4,2,0,180,180,0.5966350000003331,['y'],1.456064399999832,1.806,1402.4672547,,,,,1001,18,Woman,Right,
,,,,,,,,,,,,,,,,,1001,18,Woman,Right,3,19,0.4,2,180,0,0,0.4514763000001949,['y'],0.5921057000000474,1.806,1405.7505897,,,,,1001,18,Woman,Right,
,,,,,,,,,,,,,,,,,1001,18,Woman,Right,3,5,1,2,0,180,180,0.2884176999996271,['y'],0.48022880000007717,1.806,1408.9352846000002,,,,,1001,18,Woman,Right,
,,,,,,,,,,,,,,,,,1001,18,Woman,Right,3,39,0.4,2,180,0,0,0.3810063999999329,['n'],0.7221051999999872,1.808,1412.4173285000002,,,,,1001,18,Woman,Right,
,,,,,,,,,,,,,,,,,1001,18,Woman,Right,3,63,0.15,2,180,0,0,0.7004597000000103,['y'],0.743420000000242,1.912,1416.301062,,,,,1001,18,Woman,Right,
,,,,,,,,,,,,,,,,,1001,18,Woman,Right,3,78,0.15,1,180,-,180,0.4586815000002389,['n'],1.0321163000003253,1.912,1416.301062,,,,,1001,18,Woman,Right,
,,,,,,,,,,,,,,,,,1001,18,Woman,Right,3,45,0.15,2,0,180,180,1.712063699999817,['n'],0.9834837000003063,1.5,1424.7468084000002,,,,,1001,18,Woman,Right,
,,,,,,,,,,,,,,,,,1001,18,Woman,Right,3,48,0.15,1,0,-,0,0.32131040000012945,['n'],0.8558406000001924,1.5,1428.1787600000002,,,,,1001,18,Woman,Right,
,,,,,,,,,,,,,,,,,1001,18,Woman,Right,3,24,0.4,1,0,-,0,0.40560839999989184,['y'],0.43157479999990755,1.5979999999999999,1432.9842595999999,,,,,1001,18,Woman,Right,
,,,,,,,,,,,,,,,,,1001,18,Woman,Right,3,27,0.4,2,180,0,0,0.6737136000001556,['y'],0.2794093000002249,1.884,1436.4854300000002,,,,,1001,18,Woman,Right,
,,,,,,,,,,,,,,,,,1001,18,Woman,Right,3,23,0.4,2,180,0,180,0.7722748000001047,['n'],2.4234364999997524,1.75,1442.0185799,,,,,1001,18,Woman,Right,
,,,,,,,,,,,,,,,,,1001,18,Woman,Right,3,43,0.4,2,180,0,180,0.9255485000003318,['n'],0.7520234999997228,1.75,1446.1339361,,,,,1001,18,Woman,Right,
,,,,,,,,,,,,,,,,,1001,18,Woman,Right,3,7,1,2,180,0,0,0.13874110000006112,['y'],0.5844148999999561,1.75,1449.2347488,,,,,1001,18,Woman,Right,
,,,,,,,,,,,,,,,,,1001,18,Woman,Right,3,67,0.15,2,180,0,0,1.1413520999999491,['y'],0.5840812999999798,1.696,1453.6353121000002,,,,,1001,18,Woman,Right,
,,,,,,,,,,,,,,,,,1001,18,Woman,Right,3,46,0.15,1,180,-,0,1.646722299999965,['y'],0.45530520000011165,1.696,1453.6353121000002,,,,,1001,18,Woman,Right,
,,,,,,,,,,,,,,,,,1001,18,Woman,Right,3,29,0.4,2,0,180,180,0.32978400000001784,['y'],0.6000153999998474,1.9,1461.5341924,,,,,1001,18,Woman,Right,
,,,,,,,,,,,,,,,,,1001,18,Woman,Right,3,62,0.15,1,180,-,180,0.4104084000000512,['n'],1.1762665999999626,1.862,1465.7505652999998,,,,,1001,18,Woman,Right,
,,,,,,,,,,,,,,,,,1001,18,Woman,Right,3,79,0.15,2,180,0,0,0.7615796999998565,['n'],1.1600079999998343,1.866,1470.0186463999999,,,,,1001,18,Woman,Right,
,,,,,,,,,,,,,,,,,1001,18,Woman,Right,3,58,0.15,1,180,-,0,1.2643592999997963,['y'],0.8617997000001196,1.866,1470.0186463999999,,,,,1001,18,Woman,Right,
,,,,,,,,,,,,,,,,,1001,18,Woman,Right,3,74,0.15,1,180,-,0,1.91208000000006,['n'],1.1200924999998279,1.5,1479.0667232,,,,,1001,18,Woman,Right,
,,,,,,,,,,,,,,,,,1001,18,Woman,Right,3,55,0.15,2,180,0,180,2.9615280999996685,['y'],0.8394852000001265,1.5,1485.6189175999998,,,,,1001,18,Woman,Right,
,,,,,,,,,,,,,,,,,1001,18,Woman,Right,3,69,0.15,2,0,180,180,0.7564069000000018,['n'],1.2632740999997623,1.5,1490.370563,,,,,1001,18,Woman,Right,
,,,,,,,,,,,,,,,,,1001,18,Woman,Right,3,40,0.4,1,0,-,0,0.4986482999997861,['y'],0.38405409999995754,1.62,1494.9182283999999,,,,,1001,18,Woman,Right,
,,,,,,,,,,,,,,,,,1001,18,Woman,Right,3,28,0.4,1,0,-,0,0.07709539999996196,['n'],0.7996845000002395,1.62,1494.9182283999999,,,,,1001,18,Woman,Right,
,,,,,,,,,,,,,,,,,1001,18,Woman,Right,3,3,1,2,180,0,0,0.3580981000000065,['y'],0.544133100000181,1.76,1501.9175912,,,,,1001,18,Woman,Right,
,,,,,,,,,,,,,,,,,1001,18,Woman,Right,3,1,1,2,0,180,180,0.4409203999998681,['y'],0.6875267000000349,1.76,1501.9175912,,,,,1001,18,Woman,Right,
,,,,,,,,,,,,,,,,,1001,18,Woman,Right,3,77,0.15,2,0,180,180,0.6902192000002287,['n'],0.6878177999997206,1.85,1508.884324,,,,,1001,18,Woman,Right,
,,,,,,,,,,,,,,,,,1001,18,Woman,Right,3,25,0.4,2,0,180,180,0.708200399999896,['y'],0.7519019999999728,1.85,1512.5182298,,,,,1001,18,Woman,Right,
,,,,,,,,,,,,,,,,,1001,18,Woman,Right,3,71,0.15,2,180,0,0,1.5710818000002291,['n'],0.4080258000003596,1.1,1517.5173982000001,,,,,1001,18,Woman,Right,
,,,,,,,,,,,,,,,,,1001,18,Woman,Right,3,65,0.15,2,0,180,180,0.5801720999997997,['n'],0.4791135000000395,1.65,1521.2186161999998,,,,,1001,18,Woman,Right,
,,,,,,,,,,,,,,,,,1001,18,Woman,Right,3,61,0.15,2,0,180,180,1.127787299999909,['y'],0.5918846999998095,1.65,1521.2186161999998,,,,,1001,18,Woman,Right,
,,,,,,,,,,,,,,,,,1001,18,Woman,Right,3,12,0.4,1,0,-,0,0.7529459000002134,['n'],0.7920226999999613,1.686,1529.0508923000002,,,,,1001,18,Woman,Right,
,,,,,,,,,,,,,,,,,1001,18,Woman,Right,3,26,0.4,1,180,-,0,0.5658244999999624,['y'],1.0774381000001085,1.804,1533.2512068,,,,,1001,18,Woman,Right,
,,,,,,,,,,,,,,,,,1001,18,Woman,Right,3,37,0.4,2,0,180,180,0.4201933999997891,['y'],0.7277639000003546,2.0,1536.7343397,,,,,1001,18,Woman,Right,
,,,,,,,,,,,,,,,,,1001,18,Woman,Right,3,38,0.4,1,180,-,180,0.4072748999997202,['n'],0.895505299999968,2.0,1536.7343397,,,,,1001,18,Woman,Right,
,,,,,,,,,,,,,,,,,1001,18,Woman,Right,3,56,0.15,1,0,-,180,2.6403722999998536,['n'],0.9678990000002159,1.12,1546.9189536,,,,,1001,18,Woman,Right,
,,,,,,,,,,,,,,,,,1001,18,Woman,Right,3,59,0.15,2,180,0,0,0.45512430000007953,['y'],0.5916454999996859,1.866,1550.5176087,,,,,1001,18,Woman,Right,
,,,,,,,,,,,,,,,,,1001,18,Woman,Right,3,76,0.15,1,0,-,180,0.6420798999997714,['y'],0.9194171999997707,1.8860000000000001,1554.4176275999998,,,,,1001,18,Woman,Right,
,,,,,,,,,,,,,,,,,1001,18,Woman,Right,3,75,0.15,2,180,0,0,1.6876132999996116,['y'],0.6640345000000707,1.8,1558.8849519999999,,,,,1001,18,Woman,Right,
,,,,,,,,,,,,,,,,,1001,18,Woman,Right,3,73,0.15,2,0,180,180,0.9885200000003351,['n'],1.1439323999998123,1.302,1563.5339322999998,,,,,1001,18,Woman,Right,
,,,,,,,,,,,,,,,,,1001,18,Woman,Right,3,4,1,1,0,-,0,0.27928160000010394,['n'],1.9838070999999218,1.302,1563.5339322999998,,,,,1001,18,Woman,Right,
,,,,,,,,,,,,,,,,,1001,18,Woman,Right,3,11,0.4,2,180,0,0,0.5419635000002927,['y'],1.5914444999998523,1.958,1573.233983,,,,,1001,18,Woman,Right,
,,,,,,,,,,,,,,,,,1001,18,Woman,Right,3,15,0.4,2,180,0,0,0.48551569999972344,['y'],1.2559458999999151,1.958,1577.4012555,,,,,1001,18,Woman,Right,
,,,,,,,,,,,,,,,,,1001,18,Woman,Right,3,21,0.4,2,0,180,180,0.4676319999998668,['y'],3.5361760000000686,1.958,1577.4012555,,,,,1001,18,Woman,Right,
,,,,,,,,,,,,,,,,,1001,18,Woman,Right,3,0,1,1,0,-,0,0.4351272999997491,['n'],0.5440353000003597,1.5,1586.7305632000002,,,,,1001,18,Woman,Right,
,,,,,,,,,,,,,,,,,1001,18,Woman,Right,3,18,0.4,1,180,-,180,0.8524520999999368,['n'],0.8237192000001414,1.808,1591.3673165999999,,,,,1001,18,Woman,Right,
,,,,,,,,,,,,,,,,,1001,18,Woman,Right,3,49,0.15,2,0,180,180,1.0332874999999149,['n'],0.887981100000161,1.0,1596.1506193999999,,,,,1001,18,Woman,Right,
,,,,,,,,,,,,,,,,,1001,18,Woman,Right,3,70,0.15,1,180,-,180,0.7870292999996309,['y'],0.8473092999997789,1.3980000000000001,1600.7671303000002,,,,,1001,18,Woman,Right,
,,,,,,,,,,,,,,,,,1001,18,Woman,Right,3,54,0.15,1,180,-,0,1.0687490000000253,['y'],1.6157515999998395,1.5979999999999999,1605.8173963,,,,,1001,18,Woman,Right,
,,,,,,,,,,,,,,,,,1001,18,Woman,Right,3,53,0.15,2,0,180,180,1.2789315999998507,['n'],3.271661799999947,1.5979999999999999,1605.8173963,,,,,1001,18,Woman,Right,
,,,,,,,,,,,,,,,,,1001,18,Woman,Right,3,64,0.15,1,0,-,0,0.3677312999998321,['y'],0.6078486000001249,1.35,1617.1669032,,,,,1001,18,Woman,Right,
,,,,,,,,,,,,,,,,,1001,18,Woman,Right,3,66,0.15,1,180,-,180,0.2402300999997351,['n'],0.9996336999997766,1.35,1617.1669032,,,,,1001,18,Woman,Right,
,,,,,,,,,,,,,,,,,1001,18,Woman,Right,3,60,0.15,1,0,-,0,0.5504268999998203,['n'],1.9595283000003292,1.5,1625.3944842,,,,,1001,18,Woman,Right,
,,,,,,,,,,,,,,,,,1001,18,Woman,Right,3,41,0.4,2,0,180,180,0.5479073999999855,['y'],1.3115404999998646,1.672,1630.4008886000001,,,,,1001,18,Woman,Right,
,,,,,,,,,,,,,,,,,1001,18,Woman,Right,3,47,0.15,2,180,0,0,0.6319954000000507,['y'],0.8475359999997636,1.672,1630.4008886000001,,,,,1001,18,Woman,Right,
,,,,,,,,,,,,,,,,,1001,18,Woman,Right,3,2,1,1,180,-,180,0.7848321999999825,['n'],1.047963499999696,1.952,1639.051379,,,,,1001,18,Woman,Right,
,,,,,,,,,,,,,,,,,1001,18,Woman,Right,3,22,0.4,1,180,-,180,0.331615900000088,['n'],1.6878695999998854,1.938,1643.8679625999998,,,,,1001,18,Woman,Right,
,,,,,,,,,,,,,,,,,1001,18,Woman,Right,3,68,0.15,1,0,-,0,0.17262810000011086,['n'],0.7275257999999667,1.938,1643.8679625999998,,,,,1001,18,Woman,Right,
,,,,,,,,,,,,,,,,,1001,18,Woman,Right,3,44,0.15,1,0,-,180,0.8513253999999506,['y'],1.3357112000003326,1.558,1652.4840322,,,,,1001,18,Woman,Right,
,,,,,,,,,,,,,,,,,1001,18,Woman,Right,3,8,0.4,1,0,-,0,0.9169053999999051,['y'],1.263459999999668,1.626,1657.2170979000002,,,,,1001,18,Woman,Right,
,,,,,,,,,,,,,,,,,1001,18,Woman,Right,3,52,0.15,1,0,-,180,1.6480161999998018,['n'],0.44087179999996806,1.7,1662.4180986000001,,,,,1001,18,Woman,Right,
,,,,,,,,,,,,,,,,,1001,18,Woman,Right,3,72,0.15,1,0,-,0,0.2530362999996214,['y'],1.0557323000002725,1.728,1666.2847474999999,,,,,1001,18,Woman,Right,
,,,,,,,,,,,,,,,,,1001,18,Woman,Right,3,13,0.4,2,0,180,180,0.35990329999958703,['y'],0.7192906000000221,1.728,1666.2847474999999,,,,,1001,18,Woman,Right,
,,,,,,,,,,,,,,,,,1001,18,Woman,Right,3,20,0.4,1,0,-,0,0.5553932000002533,['n'],0.568036900000152,1.782,1674.2008334000002,,,,,1001,18,Woman,Right,
,,,,,,,,,,,,,,,,,1001,18,Woman,Right,3,42,0.4,1,180,-,180,0.6671340000002601,['y'],0.7356657000000268,1.73,1678.3504560000001,,,,,1001,18,Woman,Right,
,,,,,,,,,,,,,,,,,1001,18,Woman,Right,3,14,0.4,1,180,-,180,0.9136955999997554,['n'],1.0476426000000174,1.6560000000000001,1682.5182614,,,,,1001,18,Woman,Right,
,,,,,,,,,,,,,,,,,1001,18,Woman,Right,3,50,0.15,1,180,-,0,0.22033190000001923,['n'],1.2237780999998904,1.6560000000000001,1682.5182614,,,,,1001,18,Woman,Right,
,,,,,,,,,,,,,,,,,1001,18,Woman,Right,3,10,0.4,1,180,-,180,0.5504429000002347,['n'],0.9200433000000885,1.758,1690.2345338999999,,,,,1001,18,Woman,Right,
,,,,,,,,,,,,,,,,,1001,18,Woman,Right,3,33,0.4,2,0,180,180,0.5773717000001852,['y'],0.6796604000001025,1.758,1693.885206,,,,,1001,18,Woman,Right,
,,,,,,,,,,,,,,,,,1001,18,Woman,Right,3,51,0.15,2,180,0,0,1.2907296000003043,['n'],1.1520439000000806,1.758,1698.5166877000001,,,,,1001,18,Woman,Right,
,,,,,,,,,,,,,,,,,1001,18,Woman,Right,3,31,0.4,2,180,0,0,0.47331450000001496,['y'],0.7841548999999759,1.758,1701.900517,,,,,1001,18,Woman,Right,
,,,,,,,,,,,,,,,,,1001,18,Woman,Right,3,34,0.4,1,180,-,180,0.4900068000001738,['n'],0.7921277000000373,2.0,1706.6847057999998,,,,,1001,18,Woman,Right,
,,,,,,,,,,,,,,,,,1001,18,Woman,Right,3,35,0.4,2,180,0,0,0.2322601000000759,['y'],1.072081000000253,1.834,1710.6183043,,,,,1001,18,Woman,Right,
,,,,,,,,,,,,,,,,,1001,18,Woman,Right,3,57,0.15,2,0,180,0,0.8049087999997937,['n'],4.983579899999768,1.676,1719.1007685999998,,,,,1001,18,Woman,Right,
,,,,,,,,,,,,,,,,,1001,18,Woman,Right,3,16,0.4,1,0,-,0,1.0287192000000687,['y'],0.7114516000001458,1.676,1719.1007685999998,,,,,1001,18,Woman,Right,
,,,,,,,,,,,,,,,,,1001,18,Woman,Right,3,32,0.4,1,0,-,0,0.3250299000001178,['n'],0.7361092000001008,1.6280000000000001,1727.5506942000002,,,,,1001,18,Woman,Right,
,,,,,,,,,,,,,,,,,1001,18,Woman,Right,3,17,0.4,2,0,180,180,0.39760290000003806,['y'],1.3756674999999632,1.95,1732.6178442,,,,,1001,18,Woman,Right,
,,,,,,,,,,,,,,,,,1001,18,Woman,Right,3,6,1,1,180,-,180,0.6146923000001152,['n'],0.9761467999996967,1.95,1736.4180024000002,,,,,1001,18,Woman,Right,
,,,,,,,,,,,,,,,,,1001,18,Woman,Right,3,30,0.4,1,180,-,180,0.8419036000000233,['n'],2.167949000000135,1.95,1736.4180024000002,,,,,1001,18,Woman,Right,
,,,,,,,,,,,,,,,,,1001,18,Woman,Right,4,44,0.15,1,0,-,0,2.051543799999763,['n'],0.7520626000000448,1.008,1757.5514546,660.0,65.0,65.0,,1001,18,Woman,Right,
,,,,,,,,,,,,,,,,,1001,18,Woman,Right,4,40,0.4,1,0,-,0,0.31506960000024264,['n'],0.734733000000233,2.0,1760.9848544000001,,,,,1001,18,Woman,Right,
,,,,,,,,,,,,,,,,,1001,18,Woman,Right,4,18,0.4,1,180,-,180,0.2632365999998001,['n'],0.9441992000001846,1.85,1764.5173596,,,,,1001,18,Woman,Right,
,,,,,,,,,,,,,,,,,1001,18,Woman,Right,4,43,0.4,2,180,0,0,0.2832637999999861,['y'],0.5595963000000665,1.958,1767.6504556,,,,,1001,18,Woman,Right,
,,,,,,,,,,,,,,,,,1001,18,Woman,Right,4,61,0.15,2,0,180,180,0.7579557999997633,['n'],0.6875053999997363,1.958,1767.6504556,,,,,1001,18,Woman,Right,
,,,,,,,,,,,,,,,,,1001,18,Woman,Right,4,10,0.4,1,180,-,180,0.8143699000002016,['y'],0.7771741999999904,1.5,1774.4424692000002,,,,,1001,18,Woman,Right,
,,,,,,,,,,,,,,,,,1001,18,Woman,Right,4,64,0.15,1,0,-,0,0.2758051000000705,['n'],1.336080999999922,1.952,1778.8510393000001,,,,,1001,18,Woman,Right,
,,,,,,,,,,,,,,,,,1001,18,Woman,Right,4,20,0.4,1,0,-,0,0.9479914000003191,['y'],0.7143934999999146,1.952,1778.8510393000001,,,,,1001,18,Woman,Right,
,,,,,,,,,,,,,,,,,1001,18,Woman,Right,4,3,1,2,180,0,0,0.6673513000000639,['y'],0.6721374999997352,2.0,1786.7838437999999,,,,,1001,18,Woman,Right,
,,,,,,,,,,,,,,,,,1001,18,Woman,Right,4,6,1,1,180,-,180,0.44660190000013245,['y'],1.0959450000000288,1.3780000000000001,1791.9842548000001,,,,,1001,18,Woman,Right,
,,,,,,,,,,,,,,,,,1001,18,Woman,Right,4,50,0.15,1,180,-,0,1.3338244000001396,['n'],1.5995891000002302,1.726,1797.6850104999999,,,,,1001,18,Woman,Right,
,,,,,,,,,,,,,,,,,1001,18,Woman,Right,4,56,0.15,1,0,-,0,1.2997528999999304,['n'],0.9676355000001422,1.726,1797.6850104999999,,,,,1001,18,Woman,Right,
,,,,,,,,,,,,,,,,,1001,18,Woman,Right,4,22,0.4,1,180,-,180,3.0536904000000504,['n'],1.7116817000000992,1.5,1808.8825032,,,,,1001,18,Woman,Right,
,,,,,,,,,,,,,,,,,1001,18,Woman,Right,4,13,0.4,2,0,180,180,0.6340897000000041,['y'],1.3438194000000294,1.826,1814.6008173,,,,,1001,18,Woman,Right,
,,,,,,,,,,,,,,,,,1001,18,Woman,Right,4,57,0.15,2,0,180,180,0.8233147999999346,['n'],0.9273207999999613,1.826,1814.6008173,,,,,1001,18,Woman,Right,
,,,,,,,,,,,,,,,,,1001,18,Woman,Right,4,33,0.4,2,0,180,180,0.8240740000001097,['n'],0.8873397000002115,1.744,1823.0003707,,,,,1001,18,Woman,Right,
,,,,,,,,,,,,,,,,,1001,18,Woman,Right,4,7,1,2,180,0,0,0.4504167999998572,['y'],0.5199676000002,2.0,1827.4851099000002,,,,,1001,18,Woman,Right,
,,,,,,,,,,,,,,,,,1001,18,Woman,Right,4,9,0.4,2,0,180,180,1.1707446999998865,['n'],0.5838772000001882,1.256,1832.8339947,,,,,1001,18,Woman,Right,
,,,,,,,,,,,,,,,,,1001,18,Woman,Right,4,1,1,2,0,180,180,1.7339639000001625,['y'],0.21546629999966171,1.256,1832.8339947,,,,,1001,18,Woman,Right,
,,,,,,,,,,,,,,,,,1001,18,Woman,Right,4,16,0.4,1,0,-,180,0.8826814000003651,['n'],0.8080809999996745,1.5,1840.8584615,,,,,1001,18,Woman,Right,
,,,,,,,,,,,,,,,,,1001,18,Woman,Right,4,2,1,1,180,-,180,1.5344443999997566,['n'],0.7678102999998373,1.8780000000000001,1846.5341055,,,,,1001,18,Woman,Right,
,,,,,,,,,,,,,,,,,1001,18,Woman,Right,4,66,0.15,1,180,-,0,0.5478962000001957,['y'],1.1035369000001083,1.8900000000000001,1850.5181685000002,,,,,1001,18,Woman,Right,
,,,,,,,,,,,,,,,,,1001,18,Woman,Right,4,62,0.15,1,180,-,180,0.8310735999998542,['n'],0.5840769999999793,1.238,1854.4687165999999,,,,,1001,18,Woman,Right,
,,,,,,,,,,,,,,,,,1001,18,Woman,Right,4,70,0.15,1,180,-,0,1.1499299000001884,['y'],0.7356915000000299,1.646,1858.7338998,,,,,1001,18,Woman,Right,
,,,,,,,,,,,,,,,,,1001,18,Woman,Right,4,41,0.4,2,0,180,180,0.8558001000001241,['y'],0.9593168999999762,2.0,1863.3844408,,,,,1001,18,Woman,Right,
,,,,,,,,,,,,,,,,,1001,18,Woman,Right,4,11,0.4,2,180,0,0,0.5279553000000305,['n'],2.1522814999998445,1.3,1869.217463,,,,,1001,18,Woman,Right,
,,,,,,,,,,,,,,,,,1001,18,Woman,Right,4,35,0.4,2,180,0,0,0.43948109999973894,['y'],1.088147100000242,1.756,1873.2682857999998,,,,,1001,18,Woman,Right,
,,,,,,,,,,,,,,,,,1001,18,Woman,Right,4,12,0.4,1,0,-,0,0.8774890999998206,['y'],3.9917413000002853,1.76,1880.4503359,,,,,1001,18,Woman,Right,
,,,,,,,,,,,,,,,,,1001,18,Woman,Right,4,19,0.4,2,180,0,0,0.20406210000010105,['y'],0.5199457999997321,1.76,1883.4832018000002,,,,,1001,18,Woman,Right,
,,,,,,,,,,,,,,,,,1001,18,Woman,Right,4,55,0.15,2,180,0,180,0.6593927000003532,['n'],0.4080143000001044,1.396,1887.6348094,,,,,1001,18,Woman,Right,
,,,,,,,,,,,,,,,,,1001,18,Woman,Right,4,69,0.15,2,0,180,0,0.7099583999997776,['y'],0.8397491999999147,1.576,1891.6514704,,,,,1001,18,Woman,Right,
,,,,,,,,,,,,,,,,,1001,18,Woman,Right,4,28,0.4,1,0,-,0,0.9129710000001978,['n'],0.8395654999999351,1.576,1891.6514704,,,,,1001,18,Woman,Right,
,,,,,,,,,,,,,,,,,1001,18,Woman,Right,4,8,0.4,1,0,-,0,0.45118870000032985,['n'],3.2235062999998263,1.97,1902.6003713999999,,,,,1001,18,Woman,Right,
,,,,,,,,,,,,,,,,,1001,18,Woman,Right,4,79,0.15,2,180,0,0,0.5757607999998982,['y'],0.647457999999915,1.97,1902.6003713999999,,,,,1001,18,Woman,Right,
,,,,,,,,,,,,,,,,,1001,18,Woman,Right,4,31,0.4,2,180,0,0,0.5915098999998918,['y'],0.7038305999999466,1.8559999999999999,1909.6503499,,,,,1001,18,Woman,Right,
,,,,,,,,,,,,,,,,,1001,18,Woman,Right,4,76,0.15,1,0,-,180,1.1372784000000138,['n'],0.8961824000002707,1.358,1914.5182375999998,,,,,1001,18,Woman,Right,
,,,,,,,,,,,,,,,,,1001,18,Woman,Right,4,71,0.15,2,180,0,0,1.116982900000039,['y'],0.9199813000000177,1.358,1914.5182375999998,,,,,1001,18,Woman,Right,
,,,,,,,,,,,,,,,,,1001,18,Woman,Right,4,25,0.4,2,0,180,180,0.3025966000000153,['y'],1.7592657000000145,1.8780000000000001,1924.0187074,,,,,1001,18,Woman,Right,
,,,,,,,,,,,,,,,,,1001,18,Woman,Right,4,23,0.4,2,180,0,0,0.3384299999997893,['y'],0.5519420000000537,1.8780000000000001,1924.0187074,,,,,1001,18,Woman,Right,
,,,,,,,,,,,,,,,,,1001,18,Woman,Right,4,65,0.15,2,0,180,180,0.922573100000136,['n'],0.8879646000000321,1.002,1931.7339802000001,,,,,1001,18,Woman,Right,
,,,,,,,,,,,,,,,,,1001,18,Woman,Right,4,53,0.15,2,0,180,180,1.280644100000245,['y'],0.6715280999997049,1.754,1936.0010940000002,,,,,1001,18,Woman,Right,
,,,,,,,,,,,,,,,,,1001,18,Woman,Right,4,29,0.4,2,0,180,180,0.958963500000209,['y'],0.5036111000003984,1.754,1939.7840652,,,,,1001,18,Woman,Right,
,,,,,,,,,,,,,,,,,1001,18,Woman,Right,4,30,0.4,1,180,-,180,0.929110000000037,['n'],1.1361030000002756,1.754,1939.7840652,,,,,1001,18,Woman,Right,
,,,,,,,,,,,,,,,,,1001,18,Woman,Right,4,0,1,1,0,-,0,0.609081999999944,['y'],1.3276685000000725,1.706,1949.0004496000001,,,,,1001,18,Woman,Right,
,,,,,,,,,,,,,,,,,1001,18,Woman,Right,4,36,0.4,1,0,-,0,0.649880800000119,['n'],2.3515590000001794,1.706,1949.0004496000001,,,,,1001,18,Woman,Right,
,,,,,,,,,,,,,,,,,1001,18,Woman,Right,4,59,0.15,2,180,0,0,0.9381920999999238,['n'],0.9199057000000721,1.896,1958.5682477999999,,,,,1001,18,Woman,Right,
,,,,,,,,,,,,,,,,,1001,18,Woman,Right,4,42,0.4,1,180,-,180,0.3978175999995983,['n'],1.1716495000000577,1.896,1958.5682477999999,,,,,1001,18,Woman,Right,
,,,,,,,,,,,,,,,,,1001,18,Woman,Right,4,78,0.15,1,180,-,0,0.8616041999998743,['n'],2.0875538000000233,1.3900000000000001,1968.4018459,,,,,1001,18,Woman,Right,
,,,,,,,,,,,,,,,,,1001,18,Woman,Right,4,34,0.4,1,180,-,180,0.4611496000002262,['n'],0.5677679999998873,1.272,1972.2020501000002,,,,,1001,18,Woman,Right,
,,,,,,,,,,,,,,,,,1001,18,Woman,Right,4,54,0.15,1,180,-,180,0.7953247999998894,['n'],1.3273393999998007,1.6099999999999999,1977.1845696999999,,,,,1001,18,Woman,Right,
,,,,,,,,,,,,,,,,,1001,18,Woman,Right,4,4,1,1,0,-,0,0.4238887000001341,['n'],1.1199873999999,1.6099999999999999,1977.1845696999999,,,,,1001,18,Woman,Right,
,,,,,,,,,,,,,,,,,1001,18,Woman,Right,4,74,0.15,1,180,-,180,0.8975749999999607,['n'],0.9358364000004258,1.07,1986.2837933,,,,,1001,18,Woman,Right,
,,,,,,,,,,,,,,,,,1001,18,Woman,Right,4,48,0.15,1,0,-,0,0.3774148999996214,['n'],1.6322471000003134,1.254,1990.9842342000002,,,,,1001,18,Woman,Right,
,,,,,,,,,,,,,,,,,1001,18,Woman,Right,4,63,0.15,2,180,0,180,0.3583938000001581,['n'],3.167917700000089,1.672,1998.0508894,,,,,1001,18,Woman,Right,
,,,,,,,,,,,,,,,,,1001,18,Woman,Right,4,15,0.4,2,180,0,0,0.48837619999994786,['y'],1.9036127999997916,1.626,2003.3840266000002,,,,,1001,18,Woman,Right,
,,,,,,,,,,,,,,,,,1001,18,Woman,Right,4,60,0.15,1,0,-,0,0.784215800000311,['n'],1.0961641999997482,1.626,2003.3840266000002,,,,,1001,18,Woman,Right,
,,,,,,,,,,,,,,,,,1001,18,Woman,Right,4,32,0.4,1,0,-,0,2.943910500000129,['n'],2.4799763999999413,1.082,2016.6175048,,,,,1001,18,Woman,Right,
,,,,,,,,,,,,,,,,,1001,18,Woman,Right,4,49,0.15,2,0,180,180,0.7179335999999239,['y'],0.7913336999999956,1.082,2016.6175048,,,,,1001,18,Woman,Right,
,,,,,,,,,,,,,,,,,1001,18,Woman,Right,4,38,0.4,1,180,-,180,0.6790921000001617,['n'],2.815736399999878,1.324,2027.2006802,,,,,1001,18,Woman,Right,
,,,,,,,,,,,,,,,,,1001,18,Woman,Right,4,51,0.15,2,180,0,0,0.3261925000001611,['y'],1.3681643999998414,1.79,2031.067571,,,,,1001,18,Woman,Right,
,,,,,,,,,,,,,,,,,1001,18,Woman,Right,4,52,0.15,1,0,-,0,0.5730832999997801,['y'],0.35160350000023755,1.746,2034.1679138999998,,,,,1001,18,Woman,Right,
,,,,,,,,,,,,,,,,,1001,18,Woman,Right,4,45,0.15,2,0,180,180,0.35258969999995315,['y'],1.3119934999999714,1.744,2038.2345014000002,,,,,1001,18,Woman,Right,
,,,,,,,,,,,,,,,,,1001,18,Woman,Right,4,58,0.15,1,180,-,180,0.6761200000000827,['n'],0.8481525000001966,1.744,2038.2345014000002,,,,,1001,18,Woman,Right,
,,,,,,,,,,,,,,,,,1001,18,Woman,Right,4,5,1,2,0,180,180,1.0550355000000309,['y'],0.5994252999998935,1.8860000000000001,2046.7668976999998,,,,,1001,18,Woman,Right,
,,,,,,,,,,,,,,,,,1001,18,Woman,Right,4,17,0.4,2,0,180,180,0.5125895999999557,['y'],0.9915200000000368,1.8860000000000001,2046.7668976999998,,,,,1001,18,Woman,Right,
,,,,,,,,,,,,,,,,,1001,18,Woman,Right,4,46,0.15,1,180,-,0,1.8743881000000329,['y'],0.6560971000003519,1.062,2055.716397,,,,,1001,18,Woman,Right,
,,,,,,,,,,,,,,,,,1001,18,Woman,Right,4,24,0.4,1,0,-,0,0.4605156999996325,['n'],1.4080478000000767,1.062,2055.716397,,,,,1001,18,Woman,Right,
,,,,,,,,,,,,,,,,,1001,18,Woman,Right,4,26,0.4,1,180,-,180,0.4014830000000984,['n'],1.9117909999999938,1.588,2064.8517939,,,,,1001,18,Woman,Right,
,,,,,,,,,,,,,,,,,1001,18,Woman,Right,4,27,0.4,2,180,0,0,0.4152629000000161,['y'],0.855599600000005,1.99,2069.9019921,,,,,1001,18,Woman,Right,
,,,,,,,,,,,,,,,,,1001,18,Woman,Right,4,39,0.4,2,180,0,0,0.4710480000003372,['y'],1.6874330000000555,1.984,2074.5844426,,,,,1001,18,Woman,Right,
,,,,,,,,,,,,,,,,,1001,18,Woman,Right,4,14,0.4,1,180,-,180,1.339437800000269,['n'],1.0878773999997975,1.788,2079.9673753,,,,,1001,18,Woman,Right,
,,,,,,,,,,,,,,,,,1001,18,Woman,Right,4,37,0.4,2,0,180,180,0.898268299999927,['y'],0.7160171000000446,1.796,2083.7682728,,,,,1001,18,Woman,Right,
,,,,,,,,,,,,,,,,,1001,18,Woman,Right,4,67,0.15,2,180,0,0,0.5684992999999849,['n'],1.680214199999682,1.94,2088.4682705,,,,,1001,18,Woman,Right,
,,,,,,,,,,,,,,,,,1001,18,Woman,Right,4,68,0.15,1,0,-,180,1.3075547000003098,['n'],1.679543300000205,1.6400000000000001,2093.9172544,,,,,1001,18,Woman,Right,
,,,,,,,,,,,,,,,,,1001,18,Woman,Right,4,75,0.15,2,180,0,180,0.5258593999997174,['n'],1.455780600000253,1.194,2099.1173193,,,,,1001,18,Woman,Right,
,,,,,,,,,,,,,,,,,1001,18,Woman,Right,4,77,0.15,2,0,180,180,0.9840300000000752,['y'],0.9677011000003404,1.836,2103.8683121,,,,,1001,18,Woman,Right,
,,,,,,,,,,,,,,,,,1001,18,Woman,Right,4,47,0.15,2,180,0,0,0.831034599999839,['y'],0.8077005000000099,1.818,2108.0849135,,,,,1001,18,Woman,Right,
,,,,,,,,,,,,,,,,,1001,18,Woman,Right,4,73,0.15,2,0,180,180,0.7421581999997215,['n'],0.9440733999999793,1.666,2112.8848273,,,,,1001,18,Woman,Right,
,,,,,,,,,,,,,,,,,1001,18,Woman,Right,4,72,0.15,1,0,-,180,3.0457139999998617,['n'],1.0239872999995896,1.1,2120.4348787,,,,,1001,18,Woman,Right,
,,,,,,,,,,,,,,,,,1001,18,Woman,Right,4,21,0.4,2,0,180,180,1.2243790000002264,['n'],1.1915140999999494,1.1,2120.4348787,,,,,1001,18,Woman,Right,
,,,,,,,,,,,,,,,,,1001,18,Woman,Right,5,8,0.4,1,0,-,0,0.348680599999625,['n'],1.4797450000000936,1.7,2148.7173569,670.0,77.5,67.5,,1001,18,Woman,Right,
,,,,,,,,,,,,,,,,,1001,18,Woman,Right,5,35,0.4,2,180,0,0,0.4408254999998462,['y'],0.6556732999997621,2.0,2152.4846695,,,,,1001,18,Woman,Right,
,,,,,,,,,,,,,,,,,1001,18,Woman,Right,5,28,0.4,1,0,-,0,0.34849960000019564,['n'],0.44011900000032256,2.0,2152.4846695,,,,,1001,18,Woman,Right,
,,,,,,,,,,,,,,,,,1001,18,Woman,Right,5,68,0.15,1,0,-,0,0.5249419000001581,['y'],0.43213479999985793,1.8900000000000001,2158.65018,,,,,1001,18,Woman,Right,
,,,,,,,,,,,,,,,,,1001,18,Woman,Right,5,39,0.4,2,180,0,0,0.2531640000001971,['y'],0.36004600000023856,1.968,2161.7348612,,,,,1001,18,Woman,Right,
,,,,,,,,,,,,,,,,,1001,18,Woman,Right,5,15,0.4,2,180,0,0,0.9657904000000599,['y'],0.5832973000001402,1.968,2161.7348612,,,,,1001,18,Woman,Right,
,,,,,,,,,,,,,,,,,1001,18,Woman,Right,5,60,0.15,1,0,-,0,0.3981531999997969,['n'],0.5518430000001899,2.0,2169.1013812,,,,,1001,18,Woman,Right,
,,,,,,,,,,,,,,,,,1001,18,Woman,Right,5,64,0.15,1,0,-,0,0.44204450000006545,['n'],1.3276988000002348,2.0,2169.1013812,,,,,1001,18,Woman,Right,
,,,,,,,,,,,,,,,,,1001,18,Woman,Right,5,4,1,1,0,-,0,0.2970617000000857,['n'],1.2475125999999364,2.0,2177.4172306,,,,,1001,18,Woman,Right,
,,,,,,,,,,,,,,,,,1001,18,Woman,Right,5,56,0.15,1,0,-,0,1.9426754999999503,['n'],1.2552842999998575,1.0,2183.6177209,,,,,1001,18,Woman,Right,
,,,,,,,,,,,,,,,,,1001,18,Woman,Right,5,59,0.15,2,180,0,0,0.7269766999997955,['n'],1.0238972000001922,1.98,2188.0007252,,,,,1001,18,Woman,Right,
,,,,,,,,,,,,,,,,,1001,18,Woman,Right,5,16,0.4,1,0,-,0,1.2321311000000605,['y'],0.5834568999998737,1.8599999999999999,2192.0509905,,,,,1001,18,Woman,Right,
,,,,,,,,,,,,,,,,,1001,18,Woman,Right,5,67,0.15,2,180,0,0,1.6717654999997649,['y'],1.0955440000002454,1.892,2197.0507695,,,,,1001,18,Woman,Right,
,,,,,,,,,,,,,,,,,1001,18,Woman,Right,5,62,0.15,1,180,-,0,0.8639330000000882,['y'],0.7279779999998937,1.084,2201.8510303,,,,,1001,18,Woman,Right,
,,,,,,,,,,,,,,,,,1001,18,Woman,Right,5,63,0.15,2,180,0,0,0.5216507999998612,['n'],0.8640855000003285,1.942,2205.6514103,,,,,1001,18,Woman,Right,
,,,,,,,,,,,,,,,,,1001,18,Woman,Right,5,1,1,2,0,180,180,0.5191482999998698,['y'],0.7520468000002438,1.966,2210.1330652,,,,,1001,18,Woman,Right,
,,,,,,,,,,,,,,,,,1001,18,Woman,Right,5,40,0.4,1,0,-,0,0.3670953999999256,['n'],1.1434103999999934,1.966,2210.1330652,,,,,1001,18,Woman,Right,
,,,,,,,,,,,,,,,,,1001,18,Woman,Right,5,46,0.15,1,180,-,0,0.49681420000024445,['n'],0.4960628000003453,1.778,2217.7340574,,,,,1001,18,Woman,Right,
,,,,,,,,,,,,,,,,,1001,18,Woman,Right,5,72,0.15,1,0,-,0,1.9225980000001073,['n'],0.4080684000000474,1.784,2222.2344306,,,,,1001,18,Woman,Right,
,,,,,,,,,,,,,,,,,1001,18,Woman,Right,5,42,0.4,1,180,-,180,0.8815998000000036,['n'],1.4160372999999709,1.784,2222.2344306,,,,,1001,18,Woman,Right,
,,,,,,,,,,,,,,,,,1001,18,Woman,Right,5,10,0.4,1,180,-,180,0.37585189999981594,['n'],2.0321344999997564,1.678,2232.0504992,,,,,1001,18,Woman,Right,
,,,,,,,,,,,,,,,,,1001,18,Woman,Right,5,32,0.4,1,0,-,0,0.412416299999677,['n'],0.6961113000002115,1.732,2235.4497925,,,,,1001,18,Woman,Right,
,,,,,,,,,,,,,,,,,1001,18,Woman,Right,5,61,0.15,2,0,180,180,0.6523474000000533,['y'],1.4479970999996112,1.0,2240.3332976,,,,,1001,18,Woman,Right,
,,,,,,,,,,,,,,,,,1001,18,Woman,Right,5,25,0.4,2,0,180,180,0.7002287999998771,['y'],1.4317003000001023,1.976,2245.0506383,,,,,1001,18,Woman,Right,
,,,,,,,,,,,,,,,,,1001,18,Woman,Right,5,0,1,1,0,-,0,0.8377355000002353,['n'],0.5598091000001659,1.96,2248.5846973000002,,,,,1001,18,Woman,Right,
,,,,,,,,,,,,,,,,,1001,18,Woman,Right,5,77,0.15,2,0,180,180,0.7989168999997673,['y'],0.815985499999897,1.96,2252.5509559,,,,,1001,18,Woman,Right,
,,,,,,,,,,,,,,,,,1001,18,Woman,Right,5,19,0.4,2,180,0,0,0.6976568000000043,['y'],0.5540812999997797,1.822,2256.4341904,,,,,1001,18,Woman,Right,
,,,,,,,,,,,,,,,,,1001,18,Woman,Right,5,38,0.4,1,180,-,180,0.40505750000011176,['n'],1.6880636000000777,1.816,2260.8343145,,,,,1001,18,Woman,Right,
,,,,,,,,,,,,,,,,,1001,18,Woman,Right,5,65,0.15,2,0,180,0,1.6757314000001315,['y'],1.0482293000000027,1.002,2266.6344445,,,,,1001,18,Woman,Right,
,,,,,,,,,,,,,,,,,1001,18,Woman,Right,5,22,0.4,1,180,-,180,0.526785199999722,['n'],1.9197446000002856,1.002,2266.6344445,,,,,1001,18,Woman,Right,
,,,,,,,,,,,,,,,,,1001,18,Woman,Right,5,23,0.4,2,180,0,0,0.43043020000004617,['y'],1.2472583999997369,2.0,2275.4680416,,,,,1001,18,Woman,Right,
,,,,,,,,,,,,,,,,,1001,18,Woman,Right,5,30,0.4,1,180,-,180,0.27488750000020445,['n'],1.4076783000000432,2.0,2275.4680416,,,,,1001,18,Woman,Right,
,,,,,,,,,,,,,,,,,1001,18,Woman,Right,5,24,0.4,1,0,-,0,0.1816278000001148,['n'],1.0883411999998316,1.922,2283.3838079,,,,,1001,18,Woman,Right,
,,,,,,,,,,,,,,,,,1001,18,Woman,Right,5,29,0.4,2,0,180,180,0.5016826000000947,['y'],0.9433767000000444,1.922,2283.3838079,,,,,1001,18,Woman,Right,
,,,,,,,,,,,,,,,,,1001,18,Woman,Right,5,20,0.4,1,0,-,0,0.8646692000002076,['n'],0.6961668999997528,1.082,2292.1010737,,,,,1001,18,Woman,Right,
,,,,,,,,,,,,,,,,,1001,18,Woman,Right,5,75,0.15,2,180,0,0,0.779910899999777,['n'],1.3198772999999164,1.082,2292.1010737,,,,,1001,18,Woman,Right,
,,,,,,,,,,,,,,,,,1001,18,Woman,Right,5,57,0.15,2,0,180,180,0.646049800000128,['y'],2.640016800000012,1.756,2302.8014427,,,,,1001,18,Woman,Right,
,,,,,,,,,,,,,,,,,1001,18,Woman,Right,5,33,0.4,2,0,180,180,0.39782540000032895,['y'],1.5836671000001843,1.784,2306.9171312,,,,,1001,18,Woman,Right,
,,,,,,,,,,,,,,,,,1001,18,Woman,Right,5,48,0.15,1,0,-,180,0.5135599000000184,['y'],0.5200330000002396,1.784,2310.1183728,,,,,1001,18,Woman,Right,
,,,,,,,,,,,,,,,,,1001,18,Woman,Right,5,70,0.15,1,180,-,180,1.2885849999997845,['n'],0.9920276999996531,1.784,2310.1183728,,,,,1001,18,Woman,Right,
,,,,,,,,,,,,,,,,,1001,18,Woman,Right,5,50,0.15,1,180,-,180,0.3456707999998798,['y'],0.7033161999997901,1.5939999999999999,2318.4179632,,,,,1001,18,Woman,Right,
,,,,,,,,,,,,,,,,,1001,18,Woman,Right,5,21,0.4,2,0,180,180,0.5917048000001159,['y'],0.6563601999996536,1.776,2322.7334544,,,,,1001,18,Woman,Right,
,,,,,,,,,,,,,,,,,1001,18,Woman,Right,5,2,1,1,180,-,180,0.5688155999996525,['n'],0.7276538000000983,2.0,2327.5175793,,,,,1001,18,Woman,Right,
,,,,,,,,,,,,,,,,,1001,18,Woman,Right,5,37,0.4,2,0,180,180,1.0266867000000275,['y'],0.743271199999981,2.0,2327.5175793,,,,,1001,18,Woman,Right,
,,,,,,,,,,,,,,,,,1001,18,Woman,Right,5,7,1,2,180,0,0,0.5723690999998325,['y'],0.8160428999999567,2.0,2335.4681283,,,,,1001,18,Woman,Right,
,,,,,,,,,,,,,,,,,1001,18,Woman,Right,5,66,0.15,1,180,-,180,0.29995310000003883,['n'],0.6319749999997839,2.0,2335.4681283,,,,,1001,18,Woman,Right,
,,,,,,,,,,,,,,,,,1001,18,Woman,Right,5,26,0.4,1,180,-,180,0.9681822999996257,['n'],0.967678199999682,1.5,2342.5699936,,,,,1001,18,Woman,Right,
,,,,,,,,,,,,,,,,,1001,18,Woman,Right,5,58,0.15,1,180,-,0,0.3618258000001333,['n'],1.7200250999999298,1.996,2347.4006062,,,,,1001,18,Woman,Right,
,,,,,,,,,,,,,,,,,1001,18,Woman,Right,5,12,0.4,1,0,-,0,0.2542250999999851,['n'],2.5761423999997533,1.99,2352.3999144,,,,,1001,18,Woman,Right,
,,,,,,,,,,,,,,,,,1001,18,Woman,Right,5,76,0.15,1,0,-,180,0.863086100000146,['y'],1.1199271000000408,1.38,2357.4339862,,,,,1001,18,Woman,Right,
,,,,,,,,,,,,,,,,,1001,18,Woman,Right,5,71,0.15,2,180,0,180,1.861100599999645,['y'],1.2635129000000234,1.318,2363.1677923,,,,,1001,18,Woman,Right,
,,,,,,,,,,,,,,,,,1001,18,Woman,Right,5,36,0.4,1,0,-,0,0.31949029999987033,['n'],0.8392465000001721,1.8519999999999999,2366.55113,,,,,1001,18,Woman,Right,
,,,,,,,,,,,,,,,,,1001,18,Woman,Right,5,6,1,1,180,-,180,0.39942000000019107,['n'],1.3759039000001394,1.932,2370.9838308,,,,,1001,18,Woman,Right,
,,,,,,,,,,,,,,,,,1001,18,Woman,Right,5,3,1,2,180,0,0,0.38427739999997357,['y'],0.6955007999999907,1.934,2374.2690816,,,,,1001,18,Woman,Right,
,,,,,,,,,,,,,,,,,1001,18,Woman,Right,5,73,0.15,2,0,180,180,0.7144247999999607,['y'],1.5780220999999983,1.934,2374.2690816,,,,,1001,18,Woman,Right,
,,,,,,,,,,,,,,,,,1001,18,Woman,Right,5,14,0.4,1,180,-,180,0.3252668000000085,['n'],1.3116577999999208,1.866,2383.3501444,,,,,1001,18,Woman,Right,
,,,,,,,,,,,,,,,,,1001,18,Woman,Right,5,53,0.15,2,0,180,180,1.4117676999999276,['y'],0.9993287000002056,1.976,2387.9501786,,,,,1001,18,Woman,Right,
,,,,,,,,,,,,,,,,,1001,18,Woman,Right,5,43,0.4,2,180,0,0,0.2647146000003886,['y'],0.8951388999998926,1.934,2391.7515973,,,,,1001,18,Woman,Right,
,,,,,,,,,,,,,,,,,1001,18,Woman,Right,5,41,0.4,2,0,180,180,0.6296653000003971,['y'],1.6794600999996874,1.3519999999999999,2397.0847941,,,,,1001,18,Woman,Right,
,,,,,,,,,,,,,,,,,1001,18,Woman,Right,5,79,0.15,2,180,0,0,0.4806535000002441,['y'],0.767850300000191,1.3519999999999999,2397.0847941,,,,,1001,18,Woman,Right,
,,,,,,,,,,,,,,,,,1001,18,Woman,Right,5,55,0.15,2,180,0,0,0.4577041000002282,['n'],2.3354291000000558,1.5,2405.3939364,,,,,1001,18,Woman,Right,
,,,,,,,,,,,,,,,,,1001,18,Woman,Right,5,18,0.4,1,180,-,180,0.18067889999974796,['n'],2.2157601999997496,1.8599999999999999,2411.1347542,,,,,1001,18,Woman,Right,
,,,,,,,,,,,,,,,,,1001,18,Woman,Right,5,11,0.4,2,180,0,0,0.7114911999997275,['y'],1.4635077000002639,1.8599999999999999,2415.7334635,,,,,1001,18,Woman,Right,
,,,,,,,,,,,,,,,,,1001,18,Woman,Right,5,54,0.15,1,180,-,180,1.2504014000001007,['n'],0.7759188999998514,1.0,2421.0346657,,,,,1001,18,Woman,Right,
,,,,,,,,,,,,,,,,,1001,18,Woman,Right,5,9,0.4,2,0,180,180,0.3883495000000039,['y'],1.639682300000004,2.0,2425.4012967,,,,,1001,18,Woman,Right,
,,,,,,,,,,,,,,,,,1001,18,Woman,Right,5,51,0.15,2,180,0,0,1.8643237000001136,['n'],2.08747029999995,2.0,2425.4012967,,,,,1001,18,Woman,Right,
,,,,,,,,,,,,,,,,,1001,18,Woman,Right,5,49,0.15,2,0,180,0,1.9482108000001972,['n'],1.1078575999999885,1.216,2437.6842828,,,,,1001,18,Woman,Right,
,,,,,,,,,,,,,,,,,1001,18,Woman,Right,5,69,0.15,2,0,180,0,0.781399699999838,['n'],1.1289584999999533,1.216,2437.6842828,,,,,1001,18,Woman,Right,
,,,,,,,,,,,,,,,,,1001,18,Woman,Right,5,74,0.15,1,180,-,180,1.5542992999999115,['y'],1.6078013999999712,1.358,2447.7182688,,,,,1001,18,Woman,Right,
,,,,,,,,,,,,,,,,,1001,18,Woman,Right,5,13,0.4,2,0,180,180,0.9293606999999611,['n'],1.2875315999999657,1.376,2452.4840765,,,,,1001,18,Woman,Right,
,,,,,,,,,,,,,,,,,1001,18,Woman,Right,5,5,1,2,0,180,180,0.5867711000000781,['y'],1.3036096999999245,2.0,2457.5169856,,,,,1001,18,Woman,Right,
,,,,,,,,,,,,,,,,,1001,18,Woman,Right,5,44,0.15,1,0,-,0,0.838454300000194,['y'],1.4552717999999913,1.62,2462.3841977,,,,,1001,18,Woman,Right,
,,,,,,,,,,,,,,,,,1001,18,Woman,Right,5,27,0.4,2,180,0,0,0.6145338000001175,['y'],1.2638268999999127,2.0,2467.1512677,,,,,1001,18,Woman,Right,
,,,,,,,,,,,,,,,,,1001,18,Woman,Right,5,47,0.15,2,180,0,0,2.3078746999999566,['n'],0.4474463999999898,1.714,2472.6012612,,,,,1001,18,Woman,Right,
,,,,,,,,,,,,,,,,,1001,18,Woman,Right,5,78,0.15,1,180,-,0,0.3355526000000282,['y'],0.5997149999998328,1.714,2472.6012612,,,,,1001,18,Woman,Right,
,,,,,,,,,,,,,,,,,1001,18,Woman,Right,5,34,0.4,1,180,-,0,0.9102991999998267,['y'],0.6001272999997127,1.738,2480.1836896,,,,,1001,18,Woman,Right,
,,,,,,,,,,,,,,,,,1001,18,Woman,Right,5,17,0.4,2,0,180,180,0.7421128999999382,['y'],2.48764809999966,1.748,2486.6842797,,,,,1001,18,Woman,Right,
,,,,,,,,,,,,,,,,,1001,18,Woman,Right,5,45,0.15,2,0,180,0,0.5604794000000766,['y'],1.7757077000001118,1.0,2492.3666777,,,,,1001,18,Woman,Right,
,,,,,,,,,,,,,,,,,1001,18,Woman,Right,5,52,0.15,1,0,-,0,0.39875449999999546,['n'],1.4794639000001553,1.6680000000000001,2496.8506862,,,,,1001,18,Woman,Right,
,,,,,,,,,,,,,,,,,1001,18,Woman,Right,5,31,0.4,2,180,0,0,0.9236344999999346,['y'],0.5999065000000883,1.6680000000000001,2496.8506862,,,,,1001,18,Woman,Right,
,,,,,,,,,,,,,,,,,,,,,,,,,,,,,,,,,680.0,75.0,77.5,2247.5734317,,,,,
