p_block,p_section,p_coherence,p_direction1,p_direction2,p_direction_response,p_direction_RT,p_change_response,p_change_RT,p_confidence,p_full_correct,p_without5_correct,p_full_total,p_without5_total,p_full_avg,p_witout5_avg,p_total_time,sub,age,sex,handedness,loop,trial randomization,coherence,condition,direction1,direction2,direction_response,direction_RT,change_response,change_RT,change_confidence,change_confidence_RT,block_direction_avg,block_stable_avg,block_change_avg,total_time,sub,age,sex,handedness,
1,1,1.0,180,-,180,1.0582350000001952,-,-,-,,,,,,,,538,19,Man,Right,,,,,,,,,,,,,,,,,538,19,Man,Right,
1,1,1.0,0,-,0,0.42601809999996476,-,-,-,,,,,,,,538,19,Man,Right,,,,,,,,,,,,,,,,,538,19,Man,Right,
1,1,1.0,0,-,0,0.7806402999999591,-,-,-,,,,,,,,538,19,Man,Right,,,,,,,,,,,,,,,,,538,19,Man,Right,
1,1,1.0,180,-,180,0.3281468999998651,-,-,-,,,,,,,,538,19,Man,Right,,,,,,,,,,,,,,,,,538,19,Man,Right,
1,1,1.0,180,-,180,0.3339038999999957,-,-,-,,,,,,,,538,19,Man,Right,,,,,,,,,,,,,,,,,538,19,Man,Right,
1,1,1.0,0,-,0,0.12116859999991902,-,-,-,,,,,,,,538,19,Man,Right,,,,,,,,,,,,,,,,,538,19,Man,Right,
1,1,1.0,180,-,180,1.1826775999998063,-,-,-,,,,,,,,538,19,Man,Right,,,,,,,,,,,,,,,,,538,19,Man,Right,
1,1,1.0,180,-,180,0.31569139999987783,-,-,-,,,,,,,,538,19,Man,Right,,,,,,,,,,,,,,,,,538,19,Man,Right,
1,1,1.0,180,-,180,0.016716200000018944,-,-,-,,,,,,,,538,19,Man,Right,,,,,,,,,,,,,,,,,538,19,Man,Right,
1,1,1.0,180,-,180,0.24181499999986045,-,-,-,10,10,10,10,1.0,1.0,,538,19,Man,Right,,,,,,,,,,,,,,,,,538,19,Man,Right,
2,1,0.15,180,-,180,0.6247538000000077,-,-,-,,,,,,,,538,19,Man,Right,,,,,,,,,,,,,,,,,538,19,Man,Right,
2,1,0.15,0,-,0,1.291162199999917,-,-,-,,,,,,,,538,19,Man,Right,,,,,,,,,,,,,,,,,538,19,Man,Right,
2,1,0.4,180,-,180,0.3778353000000152,-,-,-,,,,,,,,538,19,Man,Right,,,,,,,,,,,,,,,,,538,19,Man,Right,
2,1,0.15,180,-,180,0.3183650000000853,-,-,-,,,,,,,,538,19,Man,Right,,,,,,,,,,,,,,,,,538,19,Man,Right,
2,1,0.15,180,-,0,0.9239051000001837,-,-,-,,,,,,,,538,19,Man,Right,,,,,,,,,,,,,,,,,538,19,Man,Right,
2,1,0.15,180,-,180,0.30517299999996794,-,-,-,,,,,,,,538,19,Man,Right,,,,,,,,,,,,,,,,,538,19,Man,Right,
2,1,0.15,0,-,0,0.28802959999984523,-,-,-,,,,,,,,538,19,Man,Right,,,,,,,,,,,,,,,,,538,19,Man,Right,
2,1,0.15,180,-,180,0.15031919999978527,-,-,-,,,,,,,,538,19,Man,Right,,,,,,,,,,,,,,,,,538,19,Man,Right,
2,1,0.4,0,-,0,0.21003220000011424,-,-,-,,,,,,,,538,19,Man,Right,,,,,,,,,,,,,,,,,538,19,Man,Right,
2,1,0.4,180,-,180,0.18790610000019115,-,-,-,9,3,10,3,0.9,1.0,,538,19,Man,Right,,,,,,,,,,,,,,,,,538,19,Man,Right,
3,2,1.0,0,180,0,1.7663708999998562,['y'],4.0060925000000225,1.994,,,,,,,,538,19,Man,Right,,,,,,,,,,,,,,,,,538,19,Man,Right,
3,2,1.0,180,0,0,0.5376301999999669,['y'],1.3809501999999156,1.996,,,,,,,,538,19,Man,Right,,,,,,,,,,,,,,,,,538,19,Man,Right,
3,2,1.0,180,0,0,0.7666573999999855,['y'],1.112247699999898,1.956,,,,,,,,538,19,Man,Right,,,,,,,,,,,,,,,,,538,19,Man,Right,
3,2,1.0,0,180,180,0.7897301999998945,['y'],0.8229231000000254,1.996,,,,,,,,538,19,Man,Right,,,,,,,,,,,,,,,,,538,19,Man,Right,
3,2,1.0,0,180,180,0.759723600000143,['y'],0.3695940000000064,1.992,,,,,,,,538,19,Man,Right,,,,,,,,,,,,,,,,,538,19,Man,Right,
3,2,1.0,180,0,0,0.4696721999998772,['y'],0.3479027999999289,1.992,,,,,,,,538,19,Man,Right,,,,,,,,,,,,,,,,,538,19,Man,Right,
3,2,1.0,180,0,0,0.565184500000214,['y'],0.3991169999999329,1.764,,,,,,,,538,19,Man,Right,,,,,,,,,,,,,,,,,538,19,Man,Right,
3,2,1.0,0,180,180,0.496414699999832,['y'],2.709067199999936,1.796,,,,,,,,538,19,Man,Right,,,,,,,,,,,,,,,,,538,19,Man,Right,
3,2,1.0,180,0,0,0.3608853000000636,['y'],0.9717881000001398,1.854,,,,,,,,538,19,Man,Right,,,,,,,,,,,,,,,,,538,19,Man,Right,
3,2,1.0,180,0,0,0.6031428000001142,['y'],1.004003700000112,1.8940000000000001,9,9,10,10,0.9,0.9,,538,19,Man,Right,,,,,,,,,,,,,,,,,538,19,Man,Right,
4,2,0.15,180,0,0,1.2414880999999696,['n'],1.809530999999879,1.69,,,,,,,,538,19,Man,Right,,,,,,,,,,,,,,,,,538,19,Man,Right,
4,2,0.4,0,180,180,0.5889508999998725,['y'],0.7653520999999728,1.634,,,,,,,,538,19,Man,Right,,,,,,,,,,,,,,,,,538,19,Man,Right,
4,2,0.4,180,0,0,0.3242093000001205,['y'],0.5128795000000537,1.7,,,,,,,,538,19,Man,Right,,,,,,,,,,,,,,,,,538,19,Man,Right,
4,2,0.4,180,0,0,0.5333376000000953,['y'],1.1697466000000531,1.784,,,,,,,,538,19,Man,Right,,,,,,,,,,,,,,,,,538,19,Man,Right,
4,2,0.15,0,180,180,0.6513915000000452,['y'],0.6182320000000345,1.806,,,,,,,,538,19,Man,Right,,,,,,,,,,,,,,,,,538,19,Man,Right,
4,2,0.4,0,180,180,0.46303839999995944,['y'],0.3187273000000914,1.712,,,,,,,,538,19,Man,Right,,,,,,,,,,,,,,,,,538,19,Man,Right,
4,2,0.4,0,180,180,0.45547229999988303,['y'],0.36634520000006887,1.708,,,,,,,,538,19,Man,Right,,,,,,,,,,,,,,,,,538,19,Man,Right,
4,2,0.4,0,180,180,0.5334490000000187,['y'],0.32058359999996355,1.8780000000000001,,,,,,,,538,19,Man,Right,,,,,,,,,,,,,,,,,538,19,Man,Right,
4,2,0.4,0,180,180,0.4722046000001683,['y'],0.271109000000024,2.0,,,,,,,,538,19,Man,Right,,,,,,,,,,,,,,,,,538,19,Man,Right,
4,2,0.15,180,0,180,3.0680900999998357,['n'],1.7934684000001653,1.3439999999999999,9,7,10,7,0.9,1.0,,538,19,Man,Right,,,,,,,,,,,,,,,,,538,19,Man,Right,
5,3,0.4,180,0,0,0.4277966000001925,['y'],0.7560439000001224,1.932,,,,,,,,538,19,Man,Right,,,,,,,,,,,,,,,,,538,19,Man,Right,
5,3,0.15,180,0,0,1.352812399999948,['y'],2.411468200000172,1.126,,,,,,,,538,19,Man,Right,,,,,,,,,,,,,,,,,538,19,Man,Right,
5,3,0.4,180,-,180,0.47363289999998415,['n'],0.8561425000000327,1.654,,,,,,,,538,19,Man,Right,,,,,,,,,,,,,,,,,538,19,Man,Right,
5,3,0.4,0,180,180,0.3226761999999326,['y'],0.43850539999994,1.984,,,,,,,,538,19,Man,Right,,,,,,,,,,,,,,,,,538,19,Man,Right,
5,3,0.4,180,-,180,0.7481804999999895,['n'],1.3435519999998178,1.546,,,,,,,,538,19,Man,Right,,,,,,,,,,,,,,,,,538,19,Man,Right,
5,3,0.15,0,180,0,0.9069930999999087,['y'],1.7377830999998878,1.694,,,,,,,,538,19,Man,Right,,,,,,,,,,,,,,,,,538,19,Man,Right,
5,3,0.15,180,0,180,0.5786278999999013,['n'],3.4610488999999234,1.034,,,,,,,,538,19,Man,Right,,,,,,,,,,,,,,,,,538,19,Man,Right,
5,3,0.15,180,-,180,0.5967209000000366,['n'],1.0534110999999484,1.214,,,,,,,,538,19,Man,Right,,,,,,,,,,,,,,,,,538,19,Man,Right,
5,3,0.4,0,-,0,0.6154550999999628,['n'],0.8318022000000838,1.988,,,,,,,,538,19,Man,Right,,,,,,,,,,,,,,,,,538,19,Man,Right,
5,3,0.15,180,0,0,0.5867826999999579,['n'],0.9402007999999569,1.506,8,5,10,5,0.8,1.0,,538,19,Man,Right,,,,,,,,,,,,,,,,,538,19,Man,Right,
,,,,,,,,,,,,,,,,4.500000159168849e-06,538,19,Man,Right,,,,,,,,,,,,,,,,,538,19,Man,Right,
,,,,,,,,,,,,,,,,,538,19,Man,Right,0,25,0.4,2,0,180,180,0.5005029999999806,['y'],2.7732628999999633,1.658,320.0998598000001,,,,,538,19,Man,Right,
,,,,,,,,,,,,,,,,,538,19,Man,Right,0,48,0.15,1,0,-,180,0.4011957000000166,['y'],1.614789299999984,1.6680000000000001,325.7167621000001,,,,,538,19,Man,Right,
,,,,,,,,,,,,,,,,,538,19,Man,Right,0,6,1,1,180,-,180,0.5736154000001079,['n'],1.3669396000000233,1.926,331.1003740000001,,,,,538,19,Man,Right,
,,,,,,,,,,,,,,,,,538,19,Man,Right,0,37,0.4,2,0,180,180,0.945024500000045,['y'],1.9260675999998966,1.462,339.2830346999999,,,,,538,19,Man,Right,
,,,,,,,,,,,,,,,,,538,19,Man,Right,0,61,0.15,2,0,180,180,0.5438317000000552,['y'],1.7825156999999763,1.482,346.48278890000006,,,,,538,19,Man,Right,
,,,,,,,,,,,,,,,,,538,19,Man,Right,0,60,0.15,1,0,-,0,1.424447999999984,['n'],2.214825699999892,1.3,354.1834040000001,,,,,538,19,Man,Right,
,,,,,,,,,,,,,,,,,538,19,Man,Right,0,10,0.4,1,180,-,180,1.123942100000022,['n'],2.182207000000062,1.5819999999999999,361.33258969999997,,,,,538,19,Man,Right,
,,,,,,,,,,,,,,,,,538,19,Man,Right,0,30,0.4,1,180,-,180,0.4590334999998049,['n'],1.1342177000001357,1.824,366.19940569999994,,,,,538,19,Man,Right,
,,,,,,,,,,,,,,,,,538,19,Man,Right,0,46,0.15,1,180,-,180,1.5497757999999067,['y'],1.0894241999999394,1.558,373.9326180999999,,,,,538,19,Man,Right,
,,,,,,,,,,,,,,,,,538,19,Man,Right,0,28,0.4,1,0,-,0,2.535864500000116,['n'],4.774586199999931,1.1480000000000001,384.6996650000001,,,,,538,19,Man,Right,
,,,,,,,,,,,,,,,,,538,19,Man,Right,0,73,0.15,2,0,180,0,0.9322575999999572,['n'],2.4227690999998686,1.436,392.5660275,,,,,538,19,Man,Right,
,,,,,,,,,,,,,,,,,538,19,Man,Right,0,70,0.15,1,180,-,180,0.5767885999998725,['n'],1.2545285000001059,1.672,397.4669571000002,,,,,538,19,Man,Right,
,,,,,,,,,,,,,,,,,538,19,Man,Right,0,24,0.4,1,0,-,0,1.224145099999987,['n'],2.358653100000083,1.584,404.6324487999998,,,,,538,19,Man,Right,
,,,,,,,,,,,,,,,,,538,19,Man,Right,0,42,0.4,1,180,-,0,2.3667860000000474,['n'],1.4307715999998436,1.6019999999999999,411.9330210999999,,,,,538,19,Man,Right,
,,,,,,,,,,,,,,,,,538,19,Man,Right,0,64,0.15,1,0,-,0,0.31177249999973355,['n'],1.110377299999982,1.974,416.6155735,,,,,538,19,Man,Right,
,,,,,,,,,,,,,,,,,538,19,Man,Right,0,34,0.4,1,180,-,180,0.4003992999996626,['n'],1.0137753000003613,1.974,421.14990049999983,,,,,538,19,Man,Right,
,,,,,,,,,,,,,,,,,538,19,Man,Right,0,39,0.4,2,180,0,0,0.6335255000003599,['y'],1.2629240000001118,1.926,426.1331050000001,,,,,538,19,Man,Right,
,,,,,,,,,,,,,,,,,538,19,Man,Right,0,2,1,1,180,-,180,0.5773690000000897,['n'],1.102944099999604,1.99,430.96594170000003,,,,,538,19,Man,Right,
,,,,,,,,,,,,,,,,,538,19,Man,Right,0,23,0.4,2,180,0,0,0.510932899999716,['y'],1.1188149999998132,1.98,435.8500786000002,,,,,538,19,Man,Right,
,,,,,,,,,,,,,,,,,538,19,Man,Right,0,47,0.15,2,180,0,0,0.6687117999999828,['n'],0.9108709000001909,1.6400000000000001,441.1170539000002,,,,,538,19,Man,Right,
,,,,,,,,,,,,,,,,,538,19,Man,Right,0,4,1,1,0,-,0,0.3933520000000499,['n'],0.9823293999997986,1.992,445.8657176999998,,,,,538,19,Man,Right,
,,,,,,,,,,,,,,,,,538,19,Man,Right,0,32,0.4,1,0,-,0,0.33287600000039674,['n'],0.7429620000002615,1.786,450.0334787999998,,,,,538,19,Man,Right,
,,,,,,,,,,,,,,,,,538,19,Man,Right,0,1,1,2,0,180,180,0.42617780000000494,['y'],0.9351367999997819,1.998,454.6490408000002,,,,,538,19,Man,Right,
,,,,,,,,,,,,,,,,,538,19,Man,Right,0,79,0.15,2,180,0,0,0.837880199999745,['y'],0.998795599999994,1.6600000000000001,459.39886520000005,,,,,538,19,Man,Right,
,,,,,,,,,,,,,,,,,538,19,Man,Right,0,7,1,2,180,0,0,0.629487600000175,['y'],1.079122599999664,1.964,463.9157848000002,,,,,538,19,Man,Right,
,,,,,,,,,,,,,,,,,538,19,Man,Right,0,40,0.4,1,0,-,0,0.6029866000003494,['n'],0.8230463999998392,1.592,468.6325208999999,,,,,538,19,Man,Right,
,,,,,,,,,,,,,,,,,538,19,Man,Right,0,21,0.4,2,0,180,180,0.4803641999997126,['y'],0.9350171000000955,1.892,473.01619749999986,,,,,538,19,Man,Right,
,,,,,,,,,,,,,,,,,538,19,Man,Right,0,59,0.15,2,180,0,0,0.5839018000001488,['y'],1.0308498999997937,1.584,478.5159455999999,,,,,538,19,Man,Right,
,,,,,,,,,,,,,,,,,538,19,Man,Right,0,36,0.4,1,0,-,0,0.7670398999998724,['y'],2.535019299999931,1.392,486.93345109999996,,,,,538,19,Man,Right,
,,,,,,,,,,,,,,,,,538,19,Man,Right,0,33,0.4,2,0,180,180,0.5840216999999939,['y'],1.2954460000000836,1.74,492.9496624000001,,,,,538,19,Man,Right,
,,,,,,,,,,,,,,,,,538,19,Man,Right,0,3,1,2,180,0,0,0.3714945000001535,['y'],0.966896700000234,1.996,497.13233220000006,,,,,538,19,Man,Right,
,,,,,,,,,,,,,,,,,538,19,Man,Right,0,18,0.4,1,180,-,180,0.6111651000001075,['n'],0.9106428000000051,1.68,502.2657479000002,,,,,538,19,Man,Right,
,,,,,,,,,,,,,,,,,538,19,Man,Right,0,11,0.4,2,180,0,0,0.43590869999979986,['y'],0.9429293999996844,1.804,507.08200939999983,,,,,538,19,Man,Right,
,,,,,,,,,,,,,,,,,538,19,Man,Right,0,72,0.15,1,0,-,0,0.8799847999998747,['n'],1.1351432999999815,1.55,513.0989516000002,,,,,538,19,Man,Right,
,,,,,,,,,,,,,,,,,538,19,Man,Right,0,51,0.15,2,180,0,0,0.536292400000093,['n'],0.8706965999999738,1.6019999999999999,517.3822124999999,,,,,538,19,Man,Right,
,,,,,,,,,,,,,,,,,538,19,Man,Right,0,67,0.15,2,180,0,0,1.8203598000000056,['n'],1.4386685999998008,1.6019999999999999,523.3487993000001,,,,,538,19,Man,Right,
,,,,,,,,,,,,,,,,,538,19,Man,Right,0,12,0.4,1,0,-,0,0.42462620000014795,['n'],1.239171499999884,1.74,528.2165400000001,,,,,538,19,Man,Right,
,,,,,,,,,,,,,,,,,538,19,Man,Right,0,58,0.15,1,180,-,0,0.5293236000002253,['n'],1.0708380000000943,1.68,532.9499327999999,,,,,538,19,Man,Right,
,,,,,,,,,,,,,,,,,538,19,Man,Right,0,0,1,1,0,-,0,0.6885554000000411,['n'],0.7109776000002057,1.998,537.8995255000002,,,,,538,19,Man,Right,
,,,,,,,,,,,,,,,,,538,19,Man,Right,0,77,0.15,2,0,180,180,2.9627457000001414,['y'],1.3988874000001488,1.404,547.3485675,,,,,538,19,Man,Right,
,,,,,,,,,,,,,,,,,538,19,Man,Right,0,43,0.4,2,180,0,0,1.0002026000001933,['y'],2.4467787000003227,1.746,554.4998689000001,,,,,538,19,Man,Right,
,,,,,,,,,,,,,,,,,538,19,Man,Right,0,62,0.15,1,180,-,180,0.8039410000001226,['n'],1.3264977000003455,1.504,561.8329812999998,,,,,538,19,Man,Right,
,,,,,,,,,,,,,,,,,538,19,Man,Right,0,14,0.4,1,180,-,180,0.45641669999986334,['n'],0.7267778000000362,1.772,567.1823505999998,,,,,538,19,Man,Right,
,,,,,,,,,,,,,,,,,538,19,Man,Right,0,53,0.15,2,0,180,0,0.9300686999999925,['n'],1.0952268999999433,1.76,571.9317742000001,,,,,538,19,Man,Right,
,,,,,,,,,,,,,,,,,538,19,Man,Right,0,55,0.15,2,180,0,0,0.6559621999999763,['y'],1.1352967000002536,1.6520000000000001,577.5819417,,,,,538,19,Man,Right,
,,,,,,,,,,,,,,,,,538,19,Man,Right,0,17,0.4,2,0,180,180,0.5315889999997125,['y'],1.2474839999999858,1.6139999999999999,582.2816399999999,,,,,538,19,Man,Right,
,,,,,,,,,,,,,,,,,538,19,Man,Right,0,76,0.15,1,0,-,0,0.8667785000002368,['n'],1.207493400000203,1.744,587.3996639,,,,,538,19,Man,Right,
,,,,,,,,,,,,,,,,,538,19,Man,Right,0,71,0.15,2,180,0,0,0.7168406000000687,['y'],1.1376622000002499,1.74,591.8485884999998,,,,,538,19,Man,Right,
,,,,,,,,,,,,,,,,,538,19,Man,Right,0,68,0.15,1,0,-,0,1.3286128999998255,['n'],2.583315599999878,1.3900000000000001,598.9651394,,,,,538,19,Man,Right,
,,,,,,,,,,,,,,,,,538,19,Man,Right,0,29,0.4,2,0,180,180,0.42221010000002934,['y'],1.079518300000018,1.7,604.0981810999999,,,,,538,19,Man,Right,
,,,,,,,,,,,,,,,,,538,19,Man,Right,0,78,0.15,1,180,-,180,0.45531190000019706,['n'],0.7354218000000401,1.83,609.7658911000001,,,,,538,19,Man,Right,
,,,,,,,,,,,,,,,,,538,19,Man,Right,0,41,0.4,2,0,180,180,0.44454240000004575,['y'],1.0868156999999883,1.998,615.3661989,,,,,538,19,Man,Right,
,,,,,,,,,,,,,,,,,538,19,Man,Right,0,16,0.4,1,0,-,0,0.43245569999999134,['n'],1.238930900000014,1.772,620.2656263000001,,,,,538,19,Man,Right,
,,,,,,,,,,,,,,,,,538,19,Man,Right,0,52,0.15,1,0,-,0,0.5575194999996711,['n'],1.1196313999998893,1.68,625.3491465,,,,,538,19,Man,Right,
,,,,,,,,,,,,,,,,,538,19,Man,Right,0,38,0.4,1,180,-,180,1.4737026000002516,['n'],1.3753326999999445,1.3980000000000001,631.6991701,,,,,538,19,Man,Right,
,,,,,,,,,,,,,,,,,538,19,Man,Right,0,75,0.15,2,180,0,180,0.9068496999998388,['n'],0.8474788000003173,1.376,636.5481855,,,,,538,19,Man,Right,
,,,,,,,,,,,,,,,,,538,19,Man,Right,0,50,0.15,1,180,-,180,2.4134941000002073,['n'],1.5596661999998105,1.438,644.9146225000002,,,,,538,19,Man,Right,
,,,,,,,,,,,,,,,,,538,19,Man,Right,0,27,0.4,2,180,0,0,1.7808764999999767,['y'],2.023549699999876,1.6680000000000001,652.9647458000002,,,,,538,19,Man,Right,
,,,,,,,,,,,,,,,,,538,19,Man,Right,0,69,0.15,2,0,180,180,1.8208199999999124,['y'],1.1514944000000469,1.6680000000000001,658.5480083,,,,,538,19,Man,Right,
,,,,,,,,,,,,,,,,,538,19,Man,Right,0,20,0.4,1,0,-,0,0.9824628000001212,['n'],1.027474400000301,1.746,664.8988206000001,,,,,538,19,Man,Right,
,,,,,,,,,,,,,,,,,538,19,Man,Right,0,74,0.15,1,180,-,180,0.7758324999999786,['n'],1.0474535999996988,1.708,669.6159114999998,,,,,538,19,Man,Right,
,,,,,,,,,,,,,,,,,538,19,Man,Right,0,54,0.15,1,180,-,180,0.5612749999995685,['n'],1.8072163000001638,1.712,676.0980304000002,,,,,538,19,Man,Right,
,,,,,,,,,,,,,,,,,538,19,Man,Right,0,66,0.15,1,180,-,0,0.5110564000001432,['n'],1.2234460999998191,1.766,680.6646524,,,,,538,19,Man,Right,
,,,,,,,,,,,,,,,,,538,19,Man,Right,0,19,0.4,2,180,0,0,0.5590683999998873,['y'],1.0635739999997895,1.942,685.8486943,,,,,538,19,Man,Right,
,,,,,,,,,,,,,,,,,538,19,Man,Right,0,65,0.15,2,0,180,180,0.9691963000000214,['y'],1.1275705999996717,1.626,691.3496385999999,,,,,538,19,Man,Right,
,,,,,,,,,,,,,,,,,538,19,Man,Right,0,15,0.4,2,180,0,0,0.5149857000001248,['y'],2.1031511000001046,1.6520000000000001,696.9490807999998,,,,,538,19,Man,Right,
,,,,,,,,,,,,,,,,,538,19,Man,Right,0,63,0.15,2,180,0,0,0.4823545999997805,['n'],1.2398074000002453,1.6179999999999999,702.3657516000001,,,,,538,19,Man,Right,
,,,,,,,,,,,,,,,,,538,19,Man,Right,0,35,0.4,2,180,0,0,0.478035699999964,['y'],1.00742850000006,1.6680000000000001,707.1491653999999,,,,,538,19,Man,Right,
,,,,,,,,,,,,,,,,,538,19,Man,Right,0,45,0.15,2,0,180,180,0.5626421000001756,['y'],1.1672681000000011,1.562,713.6810275,,,,,538,19,Man,Right,
,,,,,,,,,,,,,,,,,538,19,Man,Right,0,49,0.15,2,0,180,180,0.9755010000003494,['y'],1.5673776999997244,1.608,719.0643093000001,,,,,538,19,Man,Right,
,,,,,,,,,,,,,,,,,538,19,Man,Right,0,8,0.4,1,0,-,0,0.8197743000000628,['n'],1.1760577999998532,2.0,724.5827495000001,,,,,538,19,Man,Right,
,,,,,,,,,,,,,,,,,538,19,Man,Right,0,31,0.4,2,180,0,0,0.5119969999996101,['y'],1.0480757999998787,1.608,728.9977430000001,,,,,538,19,Man,Right,
,,,,,,,,,,,,,,,,,538,19,Man,Right,0,9,0.4,2,0,180,180,0.5667868000000453,['y'],1.7598367999999027,1.746,734.6823047999999,,,,,538,19,Man,Right,
,,,,,,,,,,,,,,,,,538,19,Man,Right,0,44,0.15,1,0,-,0,1.2692544000001362,['n'],1.2957330000003822,1.3940000000000001,741.2654123999998,,,,,538,19,Man,Right,
,,,,,,,,,,,,,,,,,538,19,Man,Right,0,5,1,2,0,180,180,0.455158400000073,['y'],1.3035368999999264,1.998,746.2316053000002,,,,,538,19,Man,Right,
,,,,,,,,,,,,,,,,,538,19,Man,Right,0,13,0.4,2,0,180,180,0.7705895000003693,['y'],0.7355114000001777,1.8559999999999999,751.6475733,,,,,538,19,Man,Right,
,,,,,,,,,,,,,,,,,538,19,Man,Right,0,56,0.15,1,0,-,180,2.19386970000005,['y'],2.93618749999996,1.822,759.932098,,,,,538,19,Man,Right,
,,,,,,,,,,,,,,,,,538,19,Man,Right,0,22,0.4,1,180,-,0,1.3929157000002306,['y'],1.15142220000007,1.592,765.3815037000002,,,,,538,19,Man,Right,
,,,,,,,,,,,,,,,,,538,19,Man,Right,0,57,0.15,2,0,180,180,1.3941899000001285,['y'],1.143551699999989,1.3559999999999999,771.9641324000002,,,,,538,19,Man,Right,
,,,,,,,,,,,,,,,,,538,19,Man,Right,0,26,0.4,1,180,-,180,0.7240270000002056,['n'],0.8158661000002212,2.0,776.9150148000001,,,,,538,19,Man,Right,
,,,,,,,,,,,,,,,,,538,19,Man,Right,1,63,0.15,2,180,0,0,1.8795565999998871,['y'],3.8722430999996504,1.836,814.2979008,88.75,87.5,82.5,,538,19,Man,Right,
,,,,,,,,,,,,,,,,,538,19,Man,Right,1,38,0.4,1,180,-,180,0.9805081000004066,['n'],1.4637394999999742,1.762,819.5653988000001,,,,,538,19,Man,Right,
,,,,,,,,,,,,,,,,,538,19,Man,Right,1,26,0.4,1,180,-,180,0.9310003999999026,['n'],2.863944000000174,1.988,826.5480018000001,,,,,538,19,Man,Right,
,,,,,,,,,,,,,,,,,538,19,Man,Right,1,53,0.15,2,0,180,0,1.4904593999999634,['n'],1.2400078999999096,1.42,832.7491432999998,,,,,538,19,Man,Right,
,,,,,,,,,,,,,,,,,538,19,Man,Right,1,43,0.4,2,180,0,0,0.5014769999997952,['y'],0.9601377999997567,1.874,836.9650568,,,,,538,19,Man,Right,
,,,,,,,,,,,,,,,,,538,19,Man,Right,1,54,0.15,1,180,-,0,1.250141099999837,['n'],1.1748588000000382,1.5939999999999999,842.2312650000001,,,,,538,19,Man,Right,
,,,,,,,,,,,,,,,,,538,19,Man,Right,1,77,0.15,2,0,180,0,0.32273699999996097,['n'],1.3352019999997538,1.568,847.4147906999999,,,,,538,19,Man,Right,
,,,,,,,,,,,,,,,,,538,19,Man,Right,1,78,0.15,1,180,-,180,0.49940799999967567,['n'],1.3150743999999577,1.6059999999999999,851.9643847,,,,,538,19,Man,Right,
,,,,,,,,,,,,,,,,,538,19,Man,Right,1,40,0.4,1,0,-,0,0.35763889999998355,['n'],1.112228899999991,1.6560000000000001,856.330768,,,,,538,19,Man,Right,
,,,,,,,,,,,,,,,,,538,19,Man,Right,1,15,0.4,2,180,0,0,0.6070125000001099,['y'],1.2079799999996794,1.634,860.7811629999999,,,,,538,19,Man,Right,
,,,,,,,,,,,,,,,,,538,19,Man,Right,1,28,0.4,1,0,-,0,0.8303582999997161,['n'],3.064516800000092,1.6320000000000001,867.3143797999999,,,,,538,19,Man,Right,
,,,,,,,,,,,,,,,,,538,19,Man,Right,1,70,0.15,1,180,-,180,0.7526961000003212,['n'],2.3280924999999115,1.92,873.5482507999998,,,,,538,19,Man,Right,
,,,,,,,,,,,,,,,,,538,19,Man,Right,1,2,1,1,180,-,180,0.4844936000004054,['n'],0.944221799999923,2.0,878.4322331000001,,,,,538,19,Man,Right,
,,,,,,,,,,,,,,,,,538,19,Man,Right,1,30,0.4,1,180,-,180,0.2707057000002351,['n'],0.7601122999999461,2.0,882.9650371999999,,,,,538,19,Man,Right,
,,,,,,,,,,,,,,,,,538,19,Man,Right,1,49,0.15,2,0,180,180,1.6640839000001506,['y'],1.759992499999953,1.784,888.9806236000002,,,,,538,19,Man,Right,
,,,,,,,,,,,,,,,,,538,19,Man,Right,1,57,0.15,2,0,180,0,0.3085320000000138,['n'],1.3925451000000066,1.994,894.4473034999999,,,,,538,19,Man,Right,
,,,,,,,,,,,,,,,,,538,19,Man,Right,1,3,1,2,180,0,0,0.428104500000245,['y'],1.6163133999998536,1.92,899.4312599000002,,,,,538,19,Man,Right,
,,,,,,,,,,,,,,,,,538,19,Man,Right,1,17,0.4,2,0,180,180,0.49947689999999056,['y'],1.1436001000001852,1.758,904.9146936,,,,,538,19,Man,Right,
,,,,,,,,,,,,,,,,,538,19,Man,Right,1,5,1,2,0,180,180,0.38458159999981945,['y'],1.3124625999998898,1.88,909.8641925,,,,,538,19,Man,Right,
,,,,,,,,,,,,,,,,,538,19,Man,Right,1,22,0.4,1,180,-,180,0.7132506999996622,['n'],1.4244519000003493,1.438,915.7973297000001,,,,,538,19,Man,Right,
,,,,,,,,,,,,,,,,,538,19,Man,Right,1,24,0.4,1,0,-,0,0.4944138999999268,['n'],1.120512200000121,1.984,920.9808623000001,,,,,538,19,Man,Right,
,,,,,,,,,,,,,,,,,538,19,Man,Right,1,46,0.15,1,180,-,180,0.7164989000002606,['n'],3.184533399999964,1.816,929.0308166000002,,,,,538,19,Man,Right,
,,,,,,,,,,,,,,,,,538,19,Man,Right,1,12,0.4,1,0,-,0,0.17599579999978232,['n'],1.600598699999864,1.8820000000000001,933.5641745999999,,,,,538,19,Man,Right,
,,,,,,,,,,,,,,,,,538,19,Man,Right,1,50,0.15,1,180,-,180,0.700550700000349,['n'],1.3765926999999465,1.8860000000000001,938.1136912999998,,,,,538,19,Man,Right,
,,,,,,,,,,,,,,,,,538,19,Man,Right,1,1,1,2,0,180,180,0.3665805000000546,['y'],1.3445392999997239,1.8860000000000001,942.7303066000002,,,,,538,19,Man,Right,
,,,,,,,,,,,,,,,,,538,19,Man,Right,1,60,0.15,1,0,-,0,0.7099474999999984,['n'],0.9286016000000927,1.688,947.6473827000002,,,,,538,19,Man,Right,
,,,,,,,,,,,,,,,,,538,19,Man,Right,1,72,0.15,1,0,-,0,3.086134199999833,['y'],1.39239520000001,1.488,955.9471147000002,,,,,538,19,Man,Right,
,,,,,,,,,,,,,,,,,538,19,Man,Right,1,74,0.15,1,180,-,0,1.9033408999998755,['n'],1.9444901000001664,1.69,963.0310169000002,,,,,538,19,Man,Right,
,,,,,,,,,,,,,,,,,538,19,Man,Right,1,19,0.4,2,180,0,0,0.4475207999998929,['y'],1.3203733999998803,1.638,967.7302004999999,,,,,538,19,Man,Right,
,,,,,,,,,,,,,,,,,538,19,Man,Right,1,71,0.15,2,180,0,0,1.2494790999999168,['n'],0.9043000000001484,1.6680000000000001,972.7311646,,,,,538,19,Man,Right,
,,,,,,,,,,,,,,,,,538,19,Man,Right,1,55,0.15,2,180,0,0,0.6111789999999928,['y'],1.2005362999998397,1.4020000000000001,977.6473766000001,,,,,538,19,Man,Right,
,,,,,,,,,,,,,,,,,538,19,Man,Right,1,23,0.4,2,180,0,0,0.3783333000001221,['y'],1.160531699999865,1.5739999999999998,981.9968436000001,,,,,538,19,Man,Right,
,,,,,,,,,,,,,,,,,538,19,Man,Right,1,61,0.15,2,0,180,0,1.5280339000000822,['n'],1.0406522000002951,1.6019999999999999,988.7642604,,,,,538,19,Man,Right,
,,,,,,,,,,,,,,,,,538,19,Man,Right,1,79,0.15,2,180,0,0,0.5694855000001553,['y'],1.016468100000111,1.604,992.9979139999998,,,,,538,19,Man,Right,
,,,,,,,,,,,,,,,,,538,19,Man,Right,1,36,0.4,1,0,-,0,0.43638129999999364,['n'],0.9765277999999853,1.824,997.5482181,,,,,538,19,Man,Right,
,,,,,,,,,,,,,,,,,538,19,Man,Right,1,9,0.4,2,0,180,180,0.6241771999998491,['y'],1.2960384000002705,1.818,1002.1803781000001,,,,,538,19,Man,Right,
,,,,,,,,,,,,,,,,,538,19,Man,Right,1,73,0.15,2,0,180,0,0.45824609999999666,['n'],2.0004965999996784,2.0,1007.5469968,,,,,538,19,Man,Right,
,,,,,,,,,,,,,,,,,538,19,Man,Right,1,45,0.15,2,0,180,0,0.9138124999999491,['n'],1.3680303999999524,1.836,1012.8310616000001,,,,,538,19,Man,Right,
,,,,,,,,,,,,,,,,,538,19,Man,Right,1,62,0.15,1,180,-,0,0.712410600000112,['n'],2.2323943999999756,1.724,1018.7967354999998,,,,,538,19,Man,Right,
,,,,,,,,,,,,,,,,,538,19,Man,Right,1,75,0.15,2,180,0,0,3.640267600000243,['y'],2.0568935999999667,1.288,1028.8634043,,,,,538,19,Man,Right,
,,,,,,,,,,,,,,,,,538,19,Man,Right,1,52,0.15,1,0,-,0,0.4329211999997824,['n'],1.8933627999999771,1.93,1034.5302745000001,,,,,538,19,Man,Right,
,,,,,,,,,,,,,,,,,538,19,Man,Right,1,39,0.4,2,180,0,0,0.40514519999987897,['y'],1.1766020000000026,1.796,1039.3468108999998,,,,,538,19,Man,Right,
,,,,,,,,,,,,,,,,,538,19,Man,Right,1,6,1,1,180,-,180,0.25486910000017815,['n'],1.0320779999997285,1.986,1043.5298596,,,,,538,19,Man,Right,
,,,,,,,,,,,,,,,,,538,19,Man,Right,1,67,0.15,2,180,0,0,0.40522939999982555,['n'],0.8727901000002021,1.728,1048.3136880999998,,,,,538,19,Man,Right,
,,,,,,,,,,,,,,,,,538,19,Man,Right,1,33,0.4,2,0,180,180,0.5345303000003696,['y'],1.9931793000000653,1.742,1053.9307996,,,,,538,19,Man,Right,
,,,,,,,,,,,,,,,,,538,19,Man,Right,1,69,0.15,2,0,180,0,0.34538130000009915,['n'],0.8567268000001604,1.8679999999999999,1057.8469493,,,,,538,19,Man,Right,
,,,,,,,,,,,,,,,,,538,19,Man,Right,1,44,0.15,1,0,-,0,0.7164943000002495,['n'],1.2248127000002569,1.8679999999999999,1062.180935,,,,,538,19,Man,Right,
,,,,,,,,,,,,,,,,,538,19,Man,Right,1,56,0.15,1,0,-,0,1.9548672000000806,['n'],1.024673299999904,1.732,1069.1134709,,,,,538,19,Man,Right,
,,,,,,,,,,,,,,,,,538,19,Man,Right,1,4,1,1,0,-,0,0.3409535999999207,['n'],1.4326719000000594,2.0,1073.6642043,,,,,538,19,Man,Right,
,,,,,,,,,,,,,,,,,538,19,Man,Right,1,68,0.15,1,0,-,0,0.5947407999997267,['n'],0.6645717999999761,1.95,1078.5470352,,,,,538,19,Man,Right,
,,,,,,,,,,,,,,,,,538,19,Man,Right,1,11,0.4,2,180,0,0,0.45375239999975747,['y'],0.9132187999998678,1.768,1083.7797936,,,,,538,19,Man,Right,
,,,,,,,,,,,,,,,,,538,19,Man,Right,1,21,0.4,2,0,180,180,0.867747700000109,['y'],0.8411065000000235,1.84,1088.7134751,,,,,538,19,Man,Right,
,,,,,,,,,,,,,,,,,538,19,Man,Right,1,64,0.15,1,0,-,0,0.8487887999999657,['y'],1.1848460000001069,1.328,1096.1806259000002,,,,,538,19,Man,Right,
,,,,,,,,,,,,,,,,,538,19,Man,Right,1,29,0.4,2,0,180,180,0.5239103999997496,['y'],1.0486276999999973,1.718,1101.0462679,,,,,538,19,Man,Right,
,,,,,,,,,,,,,,,,,538,19,Man,Right,1,31,0.4,2,180,0,0,0.3526311999999052,['y'],0.8808846000001722,1.6360000000000001,1105.4472016000002,,,,,538,19,Man,Right,
,,,,,,,,,,,,,,,,,538,19,Man,Right,1,27,0.4,2,180,0,0,0.48167970000031346,['y'],1.4326294999996207,1.634,1110.0304245999998,,,,,538,19,Man,Right,
,,,,,,,,,,,,,,,,,538,19,Man,Right,1,59,0.15,2,180,0,0,1.0510148999997,['y'],2.1370848999999907,1.592,1117.3639311,,,,,538,19,Man,Right,
,,,,,,,,,,,,,,,,,538,19,Man,Right,1,58,0.15,1,180,-,180,2.2511798000000454,['n'],2.153232499999831,1.29,1125.6808288999998,,,,,538,19,Man,Right,
,,,,,,,,,,,,,,,,,538,19,Man,Right,1,51,0.15,2,180,0,180,4.290662300000349,['y'],2.2167757000001984,1.0,1136.5470916000002,,,,,538,19,Man,Right,
,,,,,,,,,,,,,,,,,538,19,Man,Right,1,13,0.4,2,0,180,180,0.5239673999999468,['y'],1.1129691000001003,1.726,1140.9800223999998,,,,,538,19,Man,Right,
,,,,,,,,,,,,,,,,,538,19,Man,Right,1,7,1,2,180,0,0,0.3390948000001117,['y'],1.2648929000001772,1.962,1145.3299614999999,,,,,538,19,Man,Right,
,,,,,,,,,,,,,,,,,538,19,Man,Right,1,65,0.15,2,0,180,0,0.8304158000000825,['n'],0.880829900000208,1.72,1149.7965424000001,,,,,538,19,Man,Right,
,,,,,,,,,,,,,,,,,538,19,Man,Right,1,34,0.4,1,180,-,180,0.41195899999956964,['n'],0.809201099999882,1.556,1153.8469978,,,,,538,19,Man,Right,
,,,,,,,,,,,,,,,,,538,19,Man,Right,1,47,0.15,2,180,0,0,1.3939076999999997,['y'],3.305367500000102,1.63,1161.6301906,,,,,538,19,Man,Right,
,,,,,,,,,,,,,,,,,538,19,Man,Right,1,10,0.4,1,180,-,0,0.6788500000002387,['y'],1.3852222000000438,1.592,1166.6970367000001,,,,,538,19,Man,Right,
,,,,,,,,,,,,,,,,,538,19,Man,Right,1,42,0.4,1,180,-,180,0.359411800000089,['n'],0.9928322000000662,1.99,1171.7471214,,,,,538,19,Man,Right,
,,,,,,,,,,,,,,,,,538,19,Man,Right,1,14,0.4,1,180,-,180,0.3501043999999638,['n'],1.465077900000324,1.988,1176.5638909000002,,,,,538,19,Man,Right,
,,,,,,,,,,,,,,,,,538,19,Man,Right,1,20,0.4,1,0,-,0,0.341084900000169,['n'],1.4491260999998303,1.986,1180.9300119000002,,,,,538,19,Man,Right,
,,,,,,,,,,,,,,,,,538,19,Man,Right,1,41,0.4,2,0,180,180,0.4315063999997619,['y'],1.1370912000002136,1.816,1185.6964664999998,,,,,538,19,Man,Right,
,,,,,,,,,,,,,,,,,538,19,Man,Right,1,18,0.4,1,180,-,0,0.9348144999999022,['n'],0.9692695000003368,1.816,1190.1125571999999,,,,,538,19,Man,Right,
,,,,,,,,,,,,,,,,,538,19,Man,Right,1,32,0.4,1,0,-,0,0.4675615999999536,['n'],1.5214939000002232,1.91,1195.8300502999998,,,,,538,19,Man,Right,
,,,,,,,,,,,,,,,,,538,19,Man,Right,1,66,0.15,1,180,-,0,1.1783878999999615,['n'],1.0331026999997448,1.672,1201.2132313,,,,,538,19,Man,Right,
,,,,,,,,,,,,,,,,,538,19,Man,Right,1,76,0.15,1,0,-,0,0.22431140000026062,['n'],1.4170693999999457,1.8479999999999999,1205.9969954,,,,,538,19,Man,Right,
,,,,,,,,,,,,,,,,,538,19,Man,Right,1,25,0.4,2,0,180,180,0.6223242000000937,['y'],0.9772229999998672,1.934,1210.8468372999998,,,,,538,19,Man,Right,
,,,,,,,,,,,,,,,,,538,19,Man,Right,1,35,0.4,2,180,0,0,0.30955180000000837,['y'],1.1609112000001005,1.77,1215.0301822,,,,,538,19,Man,Right,
,,,,,,,,,,,,,,,,,538,19,Man,Right,1,37,0.4,2,0,180,180,0.5228956000000835,['y'],0.9768238000001475,1.75,1219.5296498999999,,,,,538,19,Man,Right,
,,,,,,,,,,,,,,,,,538,19,Man,Right,1,8,0.4,1,0,-,0,0.6872647999998662,['n'],1.5612839999998869,1.78,1224.5801678,,,,,538,19,Man,Right,
,,,,,,,,,,,,,,,,,538,19,Man,Right,1,48,0.15,1,0,-,0,0.3868395999998029,['n'],1.073630399999729,1.99,1229.0458661999999,,,,,538,19,Man,Right,
,,,,,,,,,,,,,,,,,538,19,Man,Right,1,0,1,1,0,-,0,0.5062834999998813,['n'],1.1052452999997513,2.0,1233.5801324000001,,,,,538,19,Man,Right,
,,,,,,,,,,,,,,,,,538,19,Man,Right,1,16,0.4,1,0,-,0,2.197046799999953,['n'],1.5532742999998845,1.548,1241.9471222999998,,,,,538,19,Man,Right,
,,,,,,,,,,,,,,,,,538,19,Man,Right,2,10,0.4,1,180,-,180,0.29538719999982277,['n'],1.2493882999997368,2.0,1282.6296570000002,81.25,92.5,75.0,,538,19,Man,Right,
,,,,,,,,,,,,,,,,,538,19,Man,Right,2,57,0.15,2,0,180,180,0.4503218999998353,['y'],2.5855632000002515,1.796,1288.5633298999999,,,,,538,19,Man,Right,
,,,,,,,,,,,,,,,,,538,19,Man,Right,2,34,0.4,1,180,-,0,0.41966370000000097,['y'],1.6098436000002039,1.764,1293.4471798000002,,,,,538,19,Man,Right,
,,,,,,,,,,,,,,,,,538,19,Man,Right,2,70,0.15,1,180,-,180,0.33206539999991946,['n'],1.7294536000003973,1.77,1297.8458739999999,,,,,538,19,Man,Right,
,,,,,,,,,,,,,,,,,538,19,Man,Right,2,45,0.15,2,0,180,0,0.4720026999998481,['n'],4.03327629999967,1.694,1304.9798367,,,,,538,19,Man,Right,
,,,,,,,,,,,,,,,,,538,19,Man,Right,2,42,0.4,1,180,-,180,0.5799991999997474,['n'],3.8977324000002227,1.694,1312.0133065000002,,,,,538,19,Man,Right,
,,,,,,,,,,,,,,,,,538,19,Man,Right,2,1,1,2,0,180,180,0.7070856000000276,['y'],0.8894211000001633,1.888,1316.4965024,,,,,538,19,Man,Right,
,,,,,,,,,,,,,,,,,538,19,Man,Right,2,32,0.4,1,0,-,0,0.726455999999871,['n'],1.1537880000000769,1.888,1320.8793985,,,,,538,19,Man,Right,
,,,,,,,,,,,,,,,,,538,19,Man,Right,2,38,0.4,1,180,-,0,0.9657870999999432,['y'],1.6966849999998885,1.6480000000000001,1326.5303201999998,,,,,538,19,Man,Right,
,,,,,,,,,,,,,,,,,538,19,Man,Right,2,19,0.4,2,180,0,0,0.399142700000084,['y'],0.9056491999999707,1.702,1332.1630441,,,,,538,19,Man,Right,
,,,,,,,,,,,,,,,,,538,19,Man,Right,2,63,0.15,2,180,0,0,0.994322000000011,['y'],2.9933812999997826,1.818,1339.5965290000001,,,,,538,19,Man,Right,
,,,,,,,,,,,,,,,,,538,19,Man,Right,2,4,1,1,0,-,0,0.8291540999998688,['n'],1.4331748000004154,2.0,1344.9810461999998,,,,,538,19,Man,Right,
,,,,,,,,,,,,,,,,,538,19,Man,Right,2,74,0.15,1,180,-,0,1.273356000000149,['n'],1.2736369000003833,1.324,1351.3965906,,,,,538,19,Man,Right,
,,,,,,,,,,,,,,,,,538,19,Man,Right,2,20,0.4,1,0,-,0,0.48796749999974054,['n'],1.2498897999998917,2.0,1355.8122419,,,,,538,19,Man,Right,
,,,,,,,,,,,,,,,,,538,19,Man,Right,2,0,1,1,0,-,0,0.2956186000001253,['n'],1.7614832999997816,2.0,1360.1453199999999,,,,,538,19,Man,Right,
,,,,,,,,,,,,,,,,,538,19,Man,Right,2,29,0.4,2,0,180,180,0.66441900000018,['y'],0.7700750000003609,1.682,1364.4794525,,,,,538,19,Man,Right,
,,,,,,,,,,,,,,,,,538,19,Man,Right,2,77,0.15,2,0,180,0,0.8506405000002815,['n'],1.0416002000001754,1.568,1369.7797662,,,,,538,19,Man,Right,
,,,,,,,,,,,,,,,,,538,19,Man,Right,2,36,0.4,1,0,-,0,0.6317312000001039,['n'],0.825875300000007,1.79,1373.8958902000002,,,,,538,19,Man,Right,
,,,,,,,,,,,,,,,,,538,19,Man,Right,2,49,0.15,2,0,180,180,0.837883800000327,['y'],1.0013036999998803,1.674,1378.5125454000001,,,,,538,19,Man,Right,
,,,,,,,,,,,,,,,,,538,19,Man,Right,2,15,0.4,2,180,0,0,1.818936499999836,['y'],3.5288767000001826,1.554,1387.9963993,,,,,538,19,Man,Right,
,,,,,,,,,,,,,,,,,538,19,Man,Right,2,65,0.15,2,0,180,180,1.716255600000295,['y'],1.0520388999998431,1.57,1393.9795046000002,,,,,538,19,Man,Right,
,,,,,,,,,,,,,,,,,538,19,Man,Right,2,73,0.15,2,0,180,180,0.7724591999999575,['y'],0.913668300000154,1.564,1399.0126960999999,,,,,538,19,Man,Right,
,,,,,,,,,,,,,,,,,538,19,Man,Right,2,46,0.15,1,180,-,180,1.8813632000001235,['n'],1.5697874999996202,1.528,1408.1795349000001,,,,,538,19,Man,Right,
,,,,,,,,,,,,,,,,,538,19,Man,Right,2,25,0.4,2,0,180,180,0.33082380000041667,['y'],0.8659212999996271,1.6480000000000001,1412.5118043999998,,,,,538,19,Man,Right,
,,,,,,,,,,,,,,,,,538,19,Man,Right,2,16,0.4,1,0,-,0,0.35547749999977896,['n'],1.0101305000002867,1.7,1416.4295103000002,,,,,538,19,Man,Right,
,,,,,,,,,,,,,,,,,538,19,Man,Right,2,31,0.4,2,180,0,0,0.4146467999999004,['y'],4.09785329999977,1.914,1424.0622126,,,,,538,19,Man,Right,
,,,,,,,,,,,,,,,,,538,19,Man,Right,2,56,0.15,1,0,-,0,1.074967099999867,['y'],1.3697934000001624,1.512,1430.3961477999999,,,,,538,19,Man,Right,
,,,,,,,,,,,,,,,,,538,19,Man,Right,2,64,0.15,1,0,-,0,2.7107928000000356,['n'],1.0582761000000573,1.824,1437.6625136,,,,,538,19,Man,Right,
,,,,,,,,,,,,,,,,,538,19,Man,Right,2,3,1,2,180,0,0,0.33686749999969834,['y'],1.1139538000002176,1.988,1443.1615789999998,,,,,538,19,Man,Right,
,,,,,,,,,,,,,,,,,538,19,Man,Right,2,12,0.4,1,0,-,0,0.6711769000003187,['n'],1.1376097000002119,2.0,1447.9959846,,,,,538,19,Man,Right,
,,,,,,,,,,,,,,,,,538,19,Man,Right,2,48,0.15,1,0,-,0,1.7408876999998029,['n'],1.1459463000001051,1.592,1453.7455305,,,,,538,19,Man,Right,
,,,,,,,,,,,,,,,,,538,19,Man,Right,2,52,0.15,1,0,-,0,0.6326266999999461,['n'],0.7298897999999099,1.916,1458.3297233,,,,,538,19,Man,Right,
,,,,,,,,,,,,,,,,,538,19,Man,Right,2,51,0.15,2,180,0,0,0.41517309999971985,['y'],1.0019843999998557,1.942,1462.9126881999998,,,,,538,19,Man,Right,
,,,,,,,,,,,,,,,,,538,19,Man,Right,2,7,1,2,180,0,0,0.7860415000000103,['y'],1.0976356999999552,1.994,1468.6959973,,,,,538,19,Man,Right,
,,,,,,,,,,,,,,,,,538,19,Man,Right,2,9,0.4,2,0,180,180,0.5443850999999995,['y'],0.9382358000002569,1.708,1472.9282262,,,,,538,19,Man,Right,
,,,,,,,,,,,,,,,,,538,19,Man,Right,2,60,0.15,1,0,-,0,0.7605302999995729,['n'],2.378083399999923,1.682,1478.7782085000001,,,,,538,19,Man,Right,
,,,,,,,,,,,,,,,,,538,19,Man,Right,2,6,1,1,180,-,180,0.25882129999990866,['n'],0.9464566999999988,1.994,1483.0115824000002,,,,,538,19,Man,Right,
,,,,,,,,,,,,,,,,,538,19,Man,Right,2,27,0.4,2,180,0,0,0.29530769999973927,['y'],1.4260470999997779,1.838,1488.1620891,,,,,538,19,Man,Right,
,,,,,,,,,,,,,,,,,538,19,Man,Right,2,54,0.15,1,180,-,180,0.6158212000000276,['n'],0.6802675999997518,1.9020000000000001,1492.0467677,,,,,538,19,Man,Right,
,,,,,,,,,,,,,,,,,538,19,Man,Right,2,37,0.4,2,0,180,180,0.5381345000000692,['y'],0.873841099999936,1.814,1496.3623749,,,,,538,19,Man,Right,
,,,,,,,,,,,,,,,,,538,19,Man,Right,2,59,0.15,2,180,0,0,0.31622230000039053,['n'],4.130556099999922,1.714,1505.3285517000002,,,,,538,19,Man,Right,
,,,,,,,,,,,,,,,,,538,19,Man,Right,2,8,0.4,1,0,-,0,0.3242915000000721,['n'],2.5143315999998777,1.784,1510.8458416,,,,,538,19,Man,Right,
,,,,,,,,,,,,,,,,,538,19,Man,Right,2,55,0.15,2,180,0,0,0.932595400000082,['y'],1.0581931000001532,1.688,1516.0119949000002,,,,,538,19,Man,Right,
,,,,,,,,,,,,,,,,,538,19,Man,Right,2,69,0.15,2,0,180,180,0.9336256999999932,['n'],1.4742755000002035,1.718,1520.9617188999998,,,,,538,19,Man,Right,
,,,,,,,,,,,,,,,,,538,19,Man,Right,2,76,0.15,1,0,-,0,0.2271709000001465,['n'],3.76262719999977,1.772,1529.2614167,,,,,538,19,Man,Right,
,,,,,,,,,,,,,,,,,538,19,Man,Right,2,18,0.4,1,180,-,180,0.8397890000001098,['n'],0.4182123999999021,2.0,1533.7122926,,,,,538,19,Man,Right,
,,,,,,,,,,,,,,,,,538,19,Man,Right,2,67,0.15,2,180,0,0,0.9935166000000208,['y'],0.970021899999665,1.612,1538.7792812,,,,,538,19,Man,Right,
,,,,,,,,,,,,,,,,,538,19,Man,Right,2,14,0.4,1,180,-,180,0.31855670000004466,['n'],0.6744355999999243,1.826,1542.9286206,,,,,538,19,Man,Right,
,,,,,,,,,,,,,,,,,538,19,Man,Right,2,39,0.4,2,180,0,0,0.5412117999999282,['y'],0.834468200000174,1.904,1548.3118212000002,,,,,538,19,Man,Right,
,,,,,,,,,,,,,,,,,538,19,Man,Right,2,17,0.4,2,0,180,180,0.4742185000000063,['y'],1.5461322999999538,1.714,1553.4458407999998,,,,,538,19,Man,Right,
,,,,,,,,,,,,,,,,,538,19,Man,Right,2,22,0.4,1,180,-,180,0.5457471000004261,['n'],0.7939234000000397,1.854,1557.7455435,,,,,538,19,Man,Right,
,,,,,,,,,,,,,,,,,538,19,Man,Right,2,66,0.15,1,180,-,180,0.6921680000000379,['n'],1.8422221999999238,1.8519999999999999,1562.9778743999998,,,,,538,19,Man,Right,
,,,,,,,,,,,,,,,,,538,19,Man,Right,2,47,0.15,2,180,0,0,1.0327674000000115,['y'],0.9588079000000107,1.65,1567.6774788999999,,,,,538,19,Man,Right,
,,,,,,,,,,,,,,,,,538,19,Man,Right,2,21,0.4,2,0,180,180,0.4157678000001397,['y'],0.779751000000033,1.704,1571.5780892999999,,,,,538,19,Man,Right,
,,,,,,,,,,,,,,,,,538,19,Man,Right,2,75,0.15,2,180,0,0,0.4001321000000644,['y'],1.0341870000002018,1.702,1575.5454278,,,,,538,19,Man,Right,
,,,,,,,,,,,,,,,,,538,19,Man,Right,2,50,0.15,1,180,-,180,0.46200550000003204,['n'],1.2106721000000107,1.416,1581.3782205,,,,,538,19,Man,Right,
,,,,,,,,,,,,,,,,,538,19,Man,Right,2,40,0.4,1,0,-,0,0.28750369999988834,['n'],0.9942989999999554,1.724,1585.5621586,,,,,538,19,Man,Right,
,,,,,,,,,,,,,,,,,538,19,Man,Right,2,68,0.15,1,0,-,0,0.7251842000000579,['n'],4.818752500000301,1.724,1593.6781303,,,,,538,19,Man,Right,
,,,,,,,,,,,,,,,,,538,19,Man,Right,2,30,0.4,1,180,-,180,0.28220390000024054,['n'],1.706500700000106,2.0,1598.6450223,,,,,538,19,Man,Right,
,,,,,,,,,,,,,,,,,538,19,Man,Right,2,24,0.4,1,0,-,0,2.304885000000013,['n'],1.4022452999997768,1.948,1605.7121522999998,,,,,538,19,Man,Right,
,,,,,,,,,,,,,,,,,538,19,Man,Right,2,26,0.4,1,180,-,180,0.31258910000042306,['n'],1.066123300000072,1.994,1611.3788590000001,,,,,538,19,Man,Right,
,,,,,,,,,,,,,,,,,538,19,Man,Right,2,79,0.15,2,180,0,0,0.6005540999999539,['y'],1.0506651999999121,1.8,1616.2616279000001,,,,,538,19,Man,Right,
,,,,,,,,,,,,,,,,,538,19,Man,Right,2,44,0.15,1,0,-,0,1.1720260000001872,['y'],1.0982153999998445,1.588,1623.6610029,,,,,538,19,Man,Right,
,,,,,,,,,,,,,,,,,538,19,Man,Right,2,11,0.4,2,180,0,0,0.4408184999997502,['y'],0.843079399999624,1.8679999999999999,1628.3453204999998,,,,,538,19,Man,Right,
,,,,,,,,,,,,,,,,,538,19,Man,Right,2,23,0.4,2,180,0,0,0.30735349999986283,['y'],0.8748780000000806,1.854,1632.1613559,,,,,538,19,Man,Right,
,,,,,,,,,,,,,,,,,538,19,Man,Right,2,71,0.15,2,180,0,0,0.5975812000001497,['n'],0.6906746999998177,1.91,1636.2949445000002,,,,,538,19,Man,Right,
,,,,,,,,,,,,,,,,,538,19,Man,Right,2,13,0.4,2,0,180,180,0.27640999999994165,['y'],0.7705952999999681,1.762,1640.3787553999998,,,,,538,19,Man,Right,
,,,,,,,,,,,,,,,,,538,19,Man,Right,2,33,0.4,2,0,180,180,0.30136090000041804,['y'],1.2024746999995841,1.766,1644.7450311,,,,,538,19,Man,Right,
,,,,,,,,,,,,,,,,,538,19,Man,Right,2,2,1,1,180,-,180,0.283182300000135,['n'],0.6423066000002109,1.988,1648.244892,,,,,538,19,Man,Right,
,,,,,,,,,,,,,,,,,538,19,Man,Right,2,35,0.4,2,180,0,0,0.3192448999998305,['y'],0.8823771000002125,1.6179999999999999,1652.5113863,,,,,538,19,Man,Right,
,,,,,,,,,,,,,,,,,538,19,Man,Right,2,78,0.15,1,180,-,180,0.9224233999998432,['n'],2.3226027999999133,1.996,1658.5444770000001,,,,,538,19,Man,Right,
,,,,,,,,,,,,,,,,,538,19,Man,Right,2,28,0.4,1,0,-,0,0.23899849999997969,['n'],1.346645399999943,2.0,1663.1783615000002,,,,,538,19,Man,Right,
,,,,,,,,,,,,,,,,,538,19,Man,Right,2,41,0.4,2,0,180,180,0.3362796999999773,['y'],0.7147134000001643,1.966,1667.8437909000002,,,,,538,19,Man,Right,
,,,,,,,,,,,,,,,,,538,19,Man,Right,2,53,0.15,2,0,180,0,1.0215455000002294,['n'],1.7864770999999564,1.442,1673.9616402,,,,,538,19,Man,Right,
,,,,,,,,,,,,,,,,,538,19,Man,Right,2,58,0.15,1,180,-,0,0.5145244999998795,['n'],0.850438700000268,1.3980000000000001,1678.6448773999998,,,,,538,19,Man,Right,
,,,,,,,,,,,,,,,,,538,19,Man,Right,2,5,1,2,0,180,180,0.25533150000001115,['y'],0.8269196999999622,1.99,1682.8451634,,,,,538,19,Man,Right,
,,,,,,,,,,,,,,,,,538,19,Man,Right,2,72,0.15,1,0,-,0,0.3040776999996524,['n'],2.586564200000339,1.962,1688.0111086,,,,,538,19,Man,Right,
,,,,,,,,,,,,,,,,,538,19,Man,Right,2,43,0.4,2,180,0,0,0.449433499999941,['y'],0.6026703000002271,1.816,1691.9774140000002,,,,,538,19,Man,Right,
,,,,,,,,,,,,,,,,,538,19,Man,Right,2,61,0.15,2,0,180,0,0.2915683999999601,['n'],1.0905305999999655,1.772,1696.0277915999998,,,,,538,19,Man,Right,
,,,,,,,,,,,,,,,,,538,19,Man,Right,2,62,0.15,1,180,-,180,0.35034029999997074,['n'],1.315027099999952,1.772,1700.1104558999998,,,,,538,19,Man,Right,
,,,,,,,,,,,,,,,,,538,19,Man,Right,3,71,0.15,2,180,0,180,0.8687735000003158,['n'],1.434740099999999,1.4020000000000001,1730.6446001000002,90.0,90.0,82.5,,538,19,Man,Right,
,,,,,,,,,,,,,,,,,538,19,Man,Right,3,75,0.15,2,180,0,0,0.21173360000011598,['n'],1.1468214999999873,1.754,1734.5775344,,,,,538,19,Man,Right,
,,,,,,,,,,,,,,,,,538,19,Man,Right,3,12,0.4,1,0,-,0,0.2744870000001356,['n'],0.5788726000000679,1.8780000000000001,1737.8781533,,,,,538,19,Man,Right,
,,,,,,,,,,,,,,,,,538,19,Man,Right,3,31,0.4,2,180,0,0,0.4861264000001029,['y'],2.4829240999997637,1.874,1743.1777181,,,,,538,19,Man,Right,
,,,,,,,,,,,,,,,,,538,19,Man,Right,3,35,0.4,2,180,0,0,0.30263130000003,['y'],0.7469794999997248,1.8679999999999999,1746.5611440999999,,,,,538,19,Man,Right,
,,,,,,,,,,,,,,,,,538,19,Man,Right,3,0,1,1,0,-,0,0.28236559999959354,['n'],0.4814307000001463,1.874,1749.7448434,,,,,538,19,Man,Right,
,,,,,,,,,,,,,,,,,538,19,Man,Right,3,30,0.4,1,180,-,180,0.5818266999999651,['n'],0.3392392999999174,1.876,1753.0602367,,,,,538,19,Man,Right,
,,,,,,,,,,,,,,,,,538,19,Man,Right,3,52,0.15,1,0,-,0,0.3909386000000268,['n'],0.6904902999999649,2.0,1757.2949316000002,,,,,538,19,Man,Right,
,,,,,,,,,,,,,,,,,538,19,Man,Right,3,68,0.15,1,0,-,0,0.8758867999999893,['n'],0.38712840000016513,2.0,1760.8620693999999,,,,,538,19,Man,Right,
,,,,,,,,,,,,,,,,,538,19,Man,Right,3,37,0.4,2,0,180,180,0.5507611000002726,['y'],1.4907367000000704,1.9060000000000001,1766.8444695,,,,,538,19,Man,Right,
,,,,,,,,,,,,,,,,,538,19,Man,Right,3,44,0.15,1,0,-,0,1.6274234000002252,['n'],0.9873408999997082,1.6139999999999999,1773.1273337999999,,,,,538,19,Man,Right,
,,,,,,,,,,,,,,,,,538,19,Man,Right,3,66,0.15,1,180,-,180,0.3928799999998773,['n'],1.1229444000000512,1.458,1778.1272852999998,,,,,538,19,Man,Right,
,,,,,,,,,,,,,,,,,538,19,Man,Right,3,3,1,2,180,0,0,0.5721034000002874,['y'],0.8670133000000533,1.75,1782.5102398000001,,,,,538,19,Man,Right,
,,,,,,,,,,,,,,,,,538,19,Man,Right,3,56,0.15,1,0,-,0,0.5714988000004269,['n'],0.6668435999999929,1.818,1786.3111276000002,,,,,538,19,Man,Right,
,,,,,,,,,,,,,,,,,538,19,Man,Right,3,70,0.15,1,180,-,180,0.3091804000000593,['n'],0.8667814999998882,1.786,1790.0780355999998,,,,,538,19,Man,Right,
,,,,,,,,,,,,,,,,,538,19,Man,Right,3,18,0.4,1,180,-,180,0.20597700000007535,['n'],0.9468634000004386,1.762,1793.4439604000002,,,,,538,19,Man,Right,
,,,,,,,,,,,,,,,,,538,19,Man,Right,3,73,0.15,2,0,180,0,0.43953800000008414,['n'],1.2430864000002657,1.4100000000000001,1797.7278711000001,,,,,538,19,Man,Right,
,,,,,,,,,,,,,,,,,538,19,Man,Right,3,60,0.15,1,0,-,0,0.5239396000001761,['n'],1.6835022000000208,2.0,1802.5103572,,,,,538,19,Man,Right,
,,,,,,,,,,,,,,,,,538,19,Man,Right,3,48,0.15,1,0,-,0,1.0602262000002156,['y'],4.115107300000091,1.804,1810.2278742,,,,,538,19,Man,Right,
,,,,,,,,,,,,,,,,,538,19,Man,Right,3,45,0.15,2,0,180,180,0.2629167999998572,['n'],0.8591083999999682,2.0,1814.4942976999998,,,,,538,19,Man,Right,
,,,,,,,,,,,,,,,,,538,19,Man,Right,3,34,0.4,1,180,-,180,0.37914150000005975,['n'],2.4827919999997903,2.0,1820.04451,,,,,538,19,Man,Right,
,,,,,,,,,,,,,,,,,538,19,Man,Right,3,76,0.15,1,0,-,0,0.4893886999998358,['n'],1.6506751000001714,1.726,1824.6447081,,,,,538,19,Man,Right,
,,,,,,,,,,,,,,,,,538,19,Man,Right,3,4,1,1,0,-,0,0.3530078999997386,['n'],0.8821834000000308,2.0,1829.5276732,,,,,538,19,Man,Right,
,,,,,,,,,,,,,,,,,538,19,Man,Right,3,42,0.4,1,180,-,180,0.2892743000002156,['n'],1.250813200000266,1.924,1833.4432144,,,,,538,19,Man,Right,
,,,,,,,,,,,,,,,,,538,19,Man,Right,3,13,0.4,2,0,180,180,0.5494108000002598,['n'],0.9314656999999897,1.802,1837.7600844,,,,,538,19,Man,Right,
,,,,,,,,,,,,,,,,,538,19,Man,Right,3,1,1,2,0,180,180,0.3151419000000715,['y'],0.8350970999999845,1.788,1841.4112911,,,,,538,19,Man,Right,
,,,,,,,,,,,,,,,,,538,19,Man,Right,3,19,0.4,2,180,0,0,0.3928455000000213,['y'],1.4353452999998808,1.912,1846.1944157,,,,,538,19,Man,Right,
,,,,,,,,,,,,,,,,,538,19,Man,Right,3,47,0.15,2,180,0,0,0.466989100000319,['y'],1.787239999999656,1.8479999999999999,1852.5772935000002,,,,,538,19,Man,Right,
,,,,,,,,,,,,,,,,,538,19,Man,Right,3,33,0.4,2,0,180,180,0.3723912000000382,['y'],3.2592124999996486,1.748,1859.0767413,,,,,538,19,Man,Right,
,,,,,,,,,,,,,,,,,538,19,Man,Right,3,10,0.4,1,180,-,180,1.0083011000001534,['n'],0.6108049999998002,1.78,1863.2445003999999,,,,,538,19,Man,Right,
,,,,,,,,,,,,,,,,,538,19,Man,Right,3,36,0.4,1,0,-,0,0.3661125999997239,['n'],2.579036200000246,1.806,1868.7444032,,,,,538,19,Man,Right,
,,,,,,,,,,,,,,,,,538,19,Man,Right,3,8,0.4,1,0,-,0,0.26125590000037846,['n'],0.7231881999996403,1.936,1872.1941055,,,,,538,19,Man,Right,
,,,,,,,,,,,,,,,,,538,19,Man,Right,3,28,0.4,1,0,-,0,0.3607637000000068,['n'],1.0193749000000025,1.99,1876.4604382999999,,,,,538,19,Man,Right,
,,,,,,,,,,,,,,,,,538,19,Man,Right,3,78,0.15,1,180,-,180,0.757522599999902,['n'],1.1477152999996179,1.708,1880.7437963,,,,,538,19,Man,Right,
,,,,,,,,,,,,,,,,,538,19,Man,Right,3,46,0.15,1,180,-,180,0.5949263000002247,['n'],1.2037811999998667,1.88,1885.3100539999998,,,,,538,19,Man,Right,
,,,,,,,,,,,,,,,,,538,19,Man,Right,3,15,0.4,2,180,0,0,0.41096909999987474,['y'],0.7794194999996762,1.914,1890.2436362,,,,,538,19,Man,Right,
,,,,,,,,,,,,,,,,,538,19,Man,Right,3,9,0.4,2,0,180,180,0.4470869000001585,['y'],0.8435626000000411,1.682,1894.376818,,,,,538,19,Man,Right,
,,,,,,,,,,,,,,,,,538,19,Man,Right,3,23,0.4,2,180,0,0,0.4324035999998159,['y'],1.0111684000003152,1.798,1899.27638,,,,,538,19,Man,Right,
,,,,,,,,,,,,,,,,,538,19,Man,Right,3,51,0.15,2,180,0,0,0.28441679999968983,['y'],0.7873234000003322,1.58,1904.0106334,,,,,538,19,Man,Right,
,,,,,,,,,,,,,,,,,538,19,Man,Right,3,58,0.15,1,180,-,180,0.319022700000005,['n'],0.923870099999931,1.422,1908.7765947999999,,,,,538,19,Man,Right,
,,,,,,,,,,,,,,,,,538,19,Man,Right,3,55,0.15,2,180,0,180,0.6924556999997549,['n'],5.2505504999999175,1.6480000000000001,1917.9611616,,,,,538,19,Man,Right,
,,,,,,,,,,,,,,,,,538,19,Man,Right,3,26,0.4,1,180,-,180,1.01992939999991,['n'],0.29924080000000686,1.994,1922.6106146,,,,,538,19,Man,Right,
,,,,,,,,,,,,,,,,,538,19,Man,Right,3,17,0.4,2,0,180,180,0.8729202999998051,['y'],0.523442900000191,1.768,1926.8277227,,,,,538,19,Man,Right,
,,,,,,,,,,,,,,,,,538,19,Man,Right,3,67,0.15,2,180,0,0,1.4335321000003205,['y'],0.9226802999996835,1.672,1932.8767117,,,,,538,19,Man,Right,
,,,,,,,,,,,,,,,,,538,19,Man,Right,3,62,0.15,1,180,-,0,0.4989730000002055,['n'],4.371442299999671,1.25,1941.0101787,,,,,538,19,Man,Right,
,,,,,,,,,,,,,,,,,538,19,Man,Right,3,2,1,1,180,-,180,0.32024730000011914,['n'],3.083266099999946,2.0,1947.2595030999998,,,,,538,19,Man,Right,
,,,,,,,,,,,,,,,,,538,19,Man,Right,3,40,0.4,1,0,-,0,0.3197246999998242,['n'],0.5155100000001767,2.0,1950.2931354999998,,,,,538,19,Man,Right,
,,,,,,,,,,,,,,,,,538,19,Man,Right,3,7,1,2,180,0,0,0.6580570000000989,['y'],0.5635775000000649,1.988,1953.9107861999998,,,,,538,19,Man,Right,
,,,,,,,,,,,,,,,,,538,19,Man,Right,3,41,0.4,2,0,180,180,0.6193292000002657,['y'],0.7957738999998583,1.986,1958.3934339,,,,,538,19,Man,Right,
,,,,,,,,,,,,,,,,,538,19,Man,Right,3,50,0.15,1,180,-,180,1.1635180000002947,['y'],1.187346599999728,1.6179999999999999,1964.0107426000002,,,,,538,19,Man,Right,
,,,,,,,,,,,,,,,,,538,19,Man,Right,3,74,0.15,1,180,-,180,1.77114470000015,['n'],1.4118289999996705,1.326,1970.3260220999998,,,,,538,19,Man,Right,
,,,,,,,,,,,,,,,,,538,19,Man,Right,3,63,0.15,2,180,0,0,2.544909000000189,['n'],1.9795132999997804,1.082,1977.9104903999998,,,,,538,19,Man,Right,
,,,,,,,,,,,,,,,,,538,19,Man,Right,3,11,0.4,2,180,0,0,0.8279885000001741,['y'],1.69172750000007,1.996,1983.4600653,,,,,538,19,Man,Right,
,,,,,,,,,,,,,,,,,538,19,Man,Right,3,16,0.4,1,0,-,0,0.5437338000001546,['n'],0.5073800999998639,2.0,1986.9939084,,,,,538,19,Man,Right,
,,,,,,,,,,,,,,,,,538,19,Man,Right,3,79,0.15,2,180,0,0,0.6835346999996545,['y'],0.764282799999819,1.784,1991.2095763999998,,,,,538,19,Man,Right,
,,,,,,,,,,,,,,,,,538,19,Man,Right,3,6,1,1,180,-,180,0.3599107999998523,['n'],0.8280354999997144,1.998,1995.7101163999998,,,,,538,19,Man,Right,
,,,,,,,,,,,,,,,,,538,19,Man,Right,3,14,0.4,1,180,-,180,0.6636543999998139,['n'],1.2115015999997922,1.63,2000.2935828000002,,,,,538,19,Man,Right,
,,,,,,,,,,,,,,,,,538,19,Man,Right,3,61,0.15,2,0,180,180,2.5740748000002895,['n'],0.8517879999999423,1.69,2006.4269077000001,,,,,538,19,Man,Right,
,,,,,,,,,,,,,,,,,538,19,Man,Right,3,5,1,2,0,180,180,0.39302859999997963,['y'],0.8117337000003317,1.942,2010.3605082000001,,,,,538,19,Man,Right,
,,,,,,,,,,,,,,,,,538,19,Man,Right,3,64,0.15,1,0,-,0,0.5394197000000531,['n'],1.1879291000000194,1.938,2014.7605649,,,,,538,19,Man,Right,
,,,,,,,,,,,,,,,,,538,19,Man,Right,3,77,0.15,2,0,180,0,0.3396466999997756,['n'],0.77945550000004,2.0,2019.3268034,,,,,538,19,Man,Right,
,,,,,,,,,,,,,,,,,538,19,Man,Right,3,57,0.15,2,0,180,180,0.7631152999997539,['y'],1.1074469000000136,2.0,2023.8605501,,,,,538,19,Man,Right,
,,,,,,,,,,,,,,,,,538,19,Man,Right,3,54,0.15,1,180,-,180,0.9030953999999838,['n'],0.763595400000213,1.772,2028.0768623000001,,,,,538,19,Man,Right,
,,,,,,,,,,,,,,,,,538,19,Man,Right,3,21,0.4,2,0,180,180,0.35894680000001244,['y'],0.6439455999998245,1.994,2031.6259128999998,,,,,538,19,Man,Right,
,,,,,,,,,,,,,,,,,538,19,Man,Right,3,59,0.15,2,180,0,0,1.0572916999999507,['y'],1.4440920000001825,1.282,2036.8604656999998,,,,,538,19,Man,Right,
,,,,,,,,,,,,,,,,,538,19,Man,Right,3,20,0.4,1,0,-,0,0.34582259999979215,['n'],0.6995070999996642,1.986,2041.0102226000001,,,,,538,19,Man,Right,
,,,,,,,,,,,,,,,,,538,19,Man,Right,3,43,0.4,2,180,0,0,0.32147640000039246,['y'],0.7077965999997105,1.758,2044.6606073,,,,,538,19,Man,Right,
,,,,,,,,,,,,,,,,,538,19,Man,Right,3,39,0.4,2,180,0,0,0.4337777000000642,['n'],0.9712383999999474,1.8780000000000001,2048.5100266,,,,,538,19,Man,Right,
,,,,,,,,,,,,,,,,,538,19,Man,Right,3,72,0.15,1,0,-,0,0.4547018000002936,['n'],1.068310599999677,1.6680000000000001,2052.5094999000003,,,,,538,19,Man,Right,
,,,,,,,,,,,,,,,,,538,19,Man,Right,3,53,0.15,2,0,180,180,2.550322099999903,['y'],0.7638560000000325,1.724,2058.8767914,,,,,538,19,Man,Right,
,,,,,,,,,,,,,,,,,538,19,Man,Right,3,24,0.4,1,0,-,0,0.49943519999987984,['n'],0.8353320000001077,1.97,2062.9096277,,,,,538,19,Man,Right,
,,,,,,,,,,,,,,,,,538,19,Man,Right,3,25,0.4,2,0,180,180,0.33617469999990135,['y'],0.8362954999997783,1.746,2066.5101971000004,,,,,538,19,Man,Right,
,,,,,,,,,,,,,,,,,538,19,Man,Right,3,49,0.15,2,0,180,180,0.3022742000002836,['y'],1.1162935000002108,1.746,2070.2934905,,,,,538,19,Man,Right,
,,,,,,,,,,,,,,,,,538,19,Man,Right,3,32,0.4,1,0,-,0,0.2698726999997234,['y'],4.452098199999909,1.6680000000000001,2077.9096947999997,,,,,538,19,Man,Right,
,,,,,,,,,,,,,,,,,538,19,Man,Right,3,38,0.4,1,180,-,180,0.6768585999998322,['n'],0.772234799999751,1.6680000000000001,2082.2595140000003,,,,,538,19,Man,Right,
,,,,,,,,,,,,,,,,,538,19,Man,Right,3,29,0.4,2,0,180,0,0.2250237000002926,['y'],2.4121774000000187,1.022,2089.0262983000002,,,,,538,19,Man,Right,
,,,,,,,,,,,,,,,,,538,19,Man,Right,3,65,0.15,2,0,180,0,0.5160223000002588,['n'],1.1887197999999444,1.58,2094.2264375000004,,,,,538,19,Man,Right,
,,,,,,,,,,,,,,,,,538,19,Man,Right,3,69,0.15,2,0,180,180,0.8439213999999993,['y'],0.5162812000003214,1.6480000000000001,2097.8756282000004,,,,,538,19,Man,Right,
,,,,,,,,,,,,,,,,,538,19,Man,Right,3,22,0.4,1,180,-,180,0.4671337999998286,['n'],0.6840702000004057,1.592,2101.4101689999998,,,,,538,19,Man,Right,
,,,,,,,,,,,,,,,,,538,19,Man,Right,3,27,0.4,2,180,0,0,0.28093529999978273,['y'],0.7404114999999365,1.798,2105.6268274000004,,,,,538,19,Man,Right,
,,,,,,,,,,,,,,,,,538,19,Man,Right,4,24,0.4,1,0,-,0,0.2442588999997497,['n'],2.868119100000058,1.858,2157.4447204,91.25,92.5,72.5,,538,19,Man,Right,
,,,,,,,,,,,,,,,,,538,19,Man,Right,4,52,0.15,1,0,-,180,1.7264101999999184,['y'],0.7082469000001765,1.71,2162.309074,,,,,538,19,Man,Right,
,,,,,,,,,,,,,,,,,538,19,Man,Right,4,18,0.4,1,180,-,180,0.3892181999999593,['n'],0.7406565000001137,1.71,2165.6770202,,,,,538,19,Man,Right,
,,,,,,,,,,,,,,,,,538,19,Man,Right,4,61,0.15,2,0,180,180,0.882650200000171,['y'],0.40098330000000715,1.93,2169.5257547,,,,,538,19,Man,Right,
,,,,,,,,,,,,,,,,,538,19,Man,Right,4,12,0.4,1,0,-,0,0.3117489999999634,['n'],2.947822200000246,1.916,2174.8932973,,,,,538,19,Man,Right,
,,,,,,,,,,,,,,,,,538,19,Man,Right,4,51,0.15,2,180,0,0,0.33782949999977063,['y'],0.7565816999999697,1.77,2178.4766296,,,,,538,19,Man,Right,
,,,,,,,,,,,,,,,,,538,19,Man,Right,4,62,0.15,1,180,-,180,0.6005161999996744,['y'],2.6526558999998997,1.216,2184.8599061000004,,,,,538,19,Man,Right,
,,,,,,,,,,,,,,,,,538,19,Man,Right,4,37,0.4,2,0,180,180,0.47582409999995434,['y'],0.7967963999999483,1.802,2188.6598248,,,,,538,19,Man,Right,
,,,,,,,,,,,,,,,,,538,19,Man,Right,4,73,0.15,2,0,180,0,0.5659361000002718,['n'],0.9003531000003022,1.6099999999999999,2192.8266837,,,,,538,19,Man,Right,
,,,,,,,,,,,,,,,,,538,19,Man,Right,4,43,0.4,2,180,0,180,1.9032728000001953,['n'],2.148635799999738,1.63,2199.5088293,,,,,538,19,Man,Right,
,,,,,,,,,,,,,,,,,538,19,Man,Right,4,17,0.4,2,0,180,180,0.9765713000001597,['y'],0.33293479999974807,1.63,2202.9757763,,,,,538,19,Man,Right,
,,,,,,,,,,,,,,,,,538,19,Man,Right,4,35,0.4,2,180,0,0,0.2845898999999008,['y'],0.8286573000000317,1.63,2206.4265729999997,,,,,538,19,Man,Right,
,,,,,,,,,,,,,,,,,538,19,Man,Right,4,5,1,2,0,180,180,1.1388087000000269,['y'],0.4528867000003629,1.776,2210.5925815,,,,,538,19,Man,Right,
,,,,,,,,,,,,,,,,,538,19,Man,Right,4,25,0.4,2,0,180,180,0.38687849999996615,['y'],0.716595899999902,1.95,2214.1921395,,,,,538,19,Man,Right,
,,,,,,,,,,,,,,,,,538,19,Man,Right,4,45,0.15,2,0,180,0,1.0200604999999996,['n'],2.4686996999998883,1.51,2221.7920573,,,,,538,19,Man,Right,
,,,,,,,,,,,,,,,,,538,19,Man,Right,4,76,0.15,1,0,-,180,1.242395100000067,['y'],0.284332600000198,1.6139999999999999,2225.8597925000004,,,,,538,19,Man,Right,
,,,,,,,,,,,,,,,,,538,19,Man,Right,4,47,0.15,2,180,0,0,0.8827077999999347,['y'],0.2970617000000857,1.6640000000000001,2229.5424808,,,,,538,19,Man,Right,
,,,,,,,,,,,,,,,,,538,19,Man,Right,4,70,0.15,1,180,-,180,0.4531842000001234,['n'],0.6131707999998071,1.988,2234.1929271999998,,,,,538,19,Man,Right,
,,,,,,,,,,,,,,,,,538,19,Man,Right,4,10,0.4,1,180,-,180,1.2853791999996247,['n'],0.48427559999981895,1.97,2238.7431133,,,,,538,19,Man,Right,
,,,,,,,,,,,,,,,,,538,19,Man,Right,4,34,0.4,1,180,-,180,3.4495990999998867,['y'],1.196237099999962,1.3559999999999999,2246.659893,,,,,538,19,Man,Right,
,,,,,,,,,,,,,,,,,538,19,Man,Right,4,41,0.4,2,0,180,180,0.32137250000005224,['y'],0.48478160000013304,1.792,2249.9430009999996,,,,,538,19,Man,Right,
,,,,,,,,,,,,,,,,,538,19,Man,Right,4,26,0.4,1,180,-,180,0.28664290000006076,['n'],1.2521148000000721,2.0,2253.9424748,,,,,538,19,Man,Right,
,,,,,,,,,,,,,,,,,538,19,Man,Right,4,69,0.15,2,0,180,180,0.3891705999999431,['y'],1.1884138999998868,1.702,2258.5929845,,,,,538,19,Man,Right,
,,,,,,,,,,,,,,,,,538,19,Man,Right,4,4,1,1,0,-,0,0.24538369999982024,['n'],0.7487464000000728,1.99,2262.5264169,,,,,538,19,Man,Right,
,,,,,,,,,,,,,,,,,538,19,Man,Right,4,2,1,1,180,-,180,0.6743036000002576,['n'],0.6847835999997187,1.99,2266.3092681,,,,,538,19,Man,Right,
,,,,,,,,,,,,,,,,,538,19,Man,Right,4,56,0.15,1,0,-,0,0.5634970999999496,['n'],0.7407579999999143,1.99,2269.9091467999997,,,,,538,19,Man,Right,
,,,,,,,,,,,,,,,,,538,19,Man,Right,4,48,0.15,1,0,-,0,0.8124511000000894,['n'],1.2525423000001865,1.99,2274.5585204,,,,,538,19,Man,Right,
,,,,,,,,,,,,,,,,,538,19,Man,Right,4,53,0.15,2,0,180,180,1.5640788999999131,['y'],0.636851800000386,1.5939999999999999,2279.9594598000003,,,,,538,19,Man,Right,
,,,,,,,,,,,,,,,,,538,19,Man,Right,4,36,0.4,1,0,-,0,0.14511459999994258,['n'],1.0526548999996521,1.98,2284.5762044000003,,,,,538,19,Man,Right,
,,,,,,,,,,,,,,,,,538,19,Man,Right,4,49,0.15,2,0,180,0,0.35657979999996314,['n'],0.5962527000001501,1.97,2287.7761305000004,,,,,538,19,Man,Right,
,,,,,,,,,,,,,,,,,538,19,Man,Right,4,55,0.15,2,180,0,0,1.8243552000003547,['y'],0.3725804999999127,1.964,2292.9088448,,,,,538,19,Man,Right,
,,,,,,,,,,,,,,,,,538,19,Man,Right,4,78,0.15,1,180,-,180,1.5905563000001166,['y'],0.5565310999995745,1.958,2297.3423961999997,,,,,538,19,Man,Right,
,,,,,,,,,,,,,,,,,538,19,Man,Right,4,20,0.4,1,0,-,0,0.3235599999998158,['n'],0.5009498999997959,1.958,2300.4589272000003,,,,,538,19,Man,Right,
,,,,,,,,,,,,,,,,,538,19,Man,Right,4,29,0.4,2,0,180,180,0.6448348999997506,['y'],0.42110380000031,1.958,2303.8759378000004,,,,,538,19,Man,Right,
,,,,,,,,,,,,,,,,,538,19,Man,Right,4,32,0.4,1,0,-,0,0.37424289999989924,['n'],0.6530474999999569,1.958,2307.1762306,,,,,538,19,Man,Right,
,,,,,,,,,,,,,,,,,538,19,Man,Right,4,40,0.4,1,0,-,0,0.5662581999999929,['n'],0.8850128999997651,2.0,2311.8426576,,,,,538,19,Man,Right,
,,,,,,,,,,,,,,,,,538,19,Man,Right,4,72,0.15,1,0,-,0,0.5065024000000449,['n'],0.580758699999933,1.998,2315.9083915,,,,,538,19,Man,Right,
,,,,,,,,,,,,,,,,,538,19,Man,Right,4,44,0.15,1,0,-,180,4.269507699999849,['n'],1.2285744999999224,1.404,2324.4594626999997,,,,,538,19,Man,Right,
,,,,,,,,,,,,,,,,,538,19,Man,Right,4,6,1,1,180,-,180,1.111050499999692,['n'],0.5008893999997781,1.986,2329.0587544,,,,,538,19,Man,Right,
,,,,,,,,,,,,,,,,,538,19,Man,Right,4,15,0.4,2,180,0,0,0.44114760000002207,['y'],0.5967971000000034,1.94,2333.0752205999997,,,,,538,19,Man,Right,
,,,,,,,,,,,,,,,,,538,19,Man,Right,4,79,0.15,2,180,0,0,1.0350827000002027,['y'],0.9091975999999704,1.5939999999999999,2337.9927417,,,,,538,19,Man,Right,
,,,,,,,,,,,,,,,,,538,19,Man,Right,4,59,0.15,2,180,0,180,1.4122087999999167,['y'],0.812632599999688,1.338,2343.1421781,,,,,538,19,Man,Right,
,,,,,,,,,,,,,,,,,538,19,Man,Right,4,28,0.4,1,0,-,0,0.2479340999998385,['n'],1.1488753000003271,1.792,2348.0920094000003,,,,,538,19,Man,Right,
,,,,,,,,,,,,,,,,,538,19,Man,Right,4,60,0.15,1,0,-,0,0.6493528999999398,['n'],1.8848612000001594,1.276,2356.0086368,,,,,538,19,Man,Right,
,,,,,,,,,,,,,,,,,538,19,Man,Right,4,68,0.15,1,0,-,0,0.13071549999995113,['n'],0.9088933000002726,1.78,2359.3412513000003,,,,,538,19,Man,Right,
,,,,,,,,,,,,,,,,,538,19,Man,Right,4,14,0.4,1,180,-,0,0.6763985000002322,['y'],0.5329897999999957,1.6179999999999999,2363.3756277,,,,,538,19,Man,Right,
,,,,,,,,,,,,,,,,,538,19,Man,Right,4,13,0.4,2,0,180,180,0.45867299999963507,['y'],1.884979999999814,1.692,2368.1925066000003,,,,,538,19,Man,Right,
,,,,,,,,,,,,,,,,,538,19,Man,Right,4,39,0.4,2,180,0,180,1.5666588000003685,['y'],0.8771175000001676,1.416,2373.7753445999997,,,,,538,19,Man,Right,
,,,,,,,,,,,,,,,,,538,19,Man,Right,4,67,0.15,2,180,0,0,0.6125764999997045,['y'],0.7407262000001538,1.572,2377.9419688999997,,,,,538,19,Man,Right,
,,,,,,,,,,,,,,,,,538,19,Man,Right,4,38,0.4,1,180,-,180,0.3911246000002393,['n'],0.6610901999997623,1.948,2381.5259759,,,,,538,19,Man,Right,
,,,,,,,,,,,,,,,,,538,19,Man,Right,4,75,0.15,2,180,0,0,0.8389975999998569,['y'],0.7254219999999805,1.592,2385.8747406,,,,,538,19,Man,Right,
,,,,,,,,,,,,,,,,,538,19,Man,Right,4,66,0.15,1,180,-,180,2.720701199999894,['y'],1.132892300000094,1.4020000000000001,2393.1583800999997,,,,,538,19,Man,Right,
,,,,,,,,,,,,,,,,,538,19,Man,Right,4,46,0.15,1,180,-,0,0.8847083000000566,['y'],0.46904240000003483,1.4,2397.1921313000003,,,,,538,19,Man,Right,
,,,,,,,,,,,,,,,,,538,19,Man,Right,4,77,0.15,2,0,180,180,0.48214980000011565,['y'],1.188710799999626,1.6320000000000001,2401.4256661,,,,,538,19,Man,Right,
,,,,,,,,,,,,,,,,,538,19,Man,Right,4,74,0.15,1,180,-,180,1.395940200000041,['n'],1.0372015000002648,1.6179999999999999,2406.325645,,,,,538,19,Man,Right,
,,,,,,,,,,,,,,,,,538,19,Man,Right,4,42,0.4,1,180,-,180,1.1920195999996395,['n'],6.140905300000213,1.75,2416.5249857,,,,,538,19,Man,Right,
,,,,,,,,,,,,,,,,,538,19,Man,Right,4,71,0.15,2,180,0,180,0.8721171000001959,['n'],0.9170379000001958,1.568,2421.3418763,,,,,538,19,Man,Right,
,,,,,,,,,,,,,,,,,538,19,Man,Right,4,7,1,2,180,0,0,0.4021218999996563,['y'],1.1414574000000357,1.998,2426.9421872000003,,,,,538,19,Man,Right,
,,,,,,,,,,,,,,,,,538,19,Man,Right,4,57,0.15,2,0,180,0,0.41522630000008576,['n'],0.8768476999998711,1.8,2430.7418018,,,,,538,19,Man,Right,
,,,,,,,,,,,,,,,,,538,19,Man,Right,4,50,0.15,1,180,-,180,1.0772537000002558,['n'],1.3093890000000101,1.612,2436.2756539,,,,,538,19,Man,Right,
,,,,,,,,,,,,,,,,,538,19,Man,Right,4,9,0.4,2,0,180,180,1.0626014999998006,['y'],1.9487802999997257,1.99,2442.6585692,,,,,538,19,Man,Right,
,,,,,,,,,,,,,,,,,538,19,Man,Right,4,65,0.15,2,0,180,180,0.9296260999999504,['y'],0.6370141999996122,1.69,2446.8420165000007,,,,,538,19,Man,Right,
,,,,,,,,,,,,,,,,,538,19,Man,Right,4,19,0.4,2,180,0,0,0.3346534000002066,['y'],0.4367057000008572,1.866,2450.7087749,,,,,538,19,Man,Right,
,,,,,,,,,,,,,,,,,538,19,Man,Right,4,23,0.4,2,180,0,0,0.3036744999999428,['y'],1.117094299999735,1.702,2454.492172,,,,,538,19,Man,Right,
,,,,,,,,,,,,,,,,,538,19,Man,Right,4,64,0.15,1,0,-,180,0.32257860000026994,['y'],2.64534200000071,1.966,2459.8578954000004,,,,,538,19,Man,Right,
,,,,,,,,,,,,,,,,,538,19,Man,Right,4,0,1,1,0,-,0,0.2453049000005194,['n'],0.8449148999998215,1.938,2463.1915653000005,,,,,538,19,Man,Right,
,,,,,,,,,,,,,,,,,538,19,Man,Right,4,11,0.4,2,180,0,0,0.3412164000001212,['y'],0.8375763000003644,1.8599999999999999,2466.8421104,,,,,538,19,Man,Right,
,,,,,,,,,,,,,,,,,538,19,Man,Right,4,8,0.4,1,0,-,0,1.1812306000001627,['n'],0.5652071999993495,1.682,2471.1755139000006,,,,,538,19,Man,Right,
,,,,,,,,,,,,,,,,,538,19,Man,Right,4,21,0.4,2,0,180,180,0.4687180000000808,['n'],0.9245408000006137,1.6640000000000001,2474.7254269000005,,,,,538,19,Man,Right,
,,,,,,,,,,,,,,,,,538,19,Man,Right,4,27,0.4,2,180,0,0,0.3133503999997629,['y'],0.7655893999999535,1.6640000000000001,2478.0578946000005,,,,,538,19,Man,Right,
,,,,,,,,,,,,,,,,,538,19,Man,Right,4,1,1,2,0,180,180,0.4494042999995145,['y'],0.3574766000001546,1.6640000000000001,2481.0589087,,,,,538,19,Man,Right,
,,,,,,,,,,,,,,,,,538,19,Man,Right,4,3,1,2,180,0,0,0.32207629999993515,['y'],0.7813282999995863,1.6640000000000001,2484.6082121,,,,,538,19,Man,Right,
,,,,,,,,,,,,,,,,,538,19,Man,Right,4,54,0.15,1,180,-,0,1.406184200000098,['y'],0.6615648000006331,1.85,2489.3414825,,,,,538,19,Man,Right,
,,,,,,,,,,,,,,,,,538,19,Man,Right,4,16,0.4,1,0,-,0,0.6197013000000879,['n'],2.349176300000181,1.5819999999999999,2495.1586958,,,,,538,19,Man,Right,
,,,,,,,,,,,,,,,,,538,19,Man,Right,4,22,0.4,1,180,-,180,0.6701735999995435,['n'],0.8614808000002085,1.642,2499.4086802,,,,,538,19,Man,Right,
,,,,,,,,,,,,,,,,,538,19,Man,Right,4,33,0.4,2,0,180,180,0.4334123999997246,['y'],0.4370647000005192,1.694,2502.7581399,,,,,538,19,Man,Right,
,,,,,,,,,,,,,,,,,538,19,Man,Right,4,58,0.15,1,180,-,180,1.8222687999996197,['n'],2.5729303999996773,1.584,2510.2918973000005,,,,,538,19,Man,Right,
,,,,,,,,,,,,,,,,,538,19,Man,Right,4,63,0.15,2,180,0,180,1.81889880000017,['y'],3.589124200000697,1.63,2518.0582022,,,,,538,19,Man,Right,
,,,,,,,,,,,,,,,,,538,19,Man,Right,4,31,0.4,2,180,0,0,0.7132307000001674,['y'],2.5174740999991627,1.696,2523.7575924000002,,,,,538,19,Man,Right,
,,,,,,,,,,,,,,,,,538,19,Man,Right,4,30,0.4,1,180,-,0,1.1507180999997217,['y'],0.7736867999992683,1.74,2527.9916292,,,,,538,19,Man,Right,
,,,,,,,,,,,,,,,,,538,19,Man,Right,5,64,0.15,1,0,-,0,1.3120090000002165,['n'],1.9973337999999785,1.736,2543.4585844000003,78.75,72.5,82.5,,538,19,Man,Right,
,,,,,,,,,,,,,,,,,538,19,Man,Right,5,78,0.15,1,180,-,180,0.6746938000005684,['n'],0.5975017999999181,1.662,2547.7082368,,,,,538,19,Man,Right,
,,,,,,,,,,,,,,,,,538,19,Man,Right,5,49,0.15,2,0,180,0,0.7539151000000857,['n'],0.861570799999754,1.748,2551.7079306000005,,,,,538,19,Man,Right,
,,,,,,,,,,,,,,,,,538,19,Man,Right,5,56,0.15,1,0,-,0,0.7039042000005793,['n'],0.8055477000007158,1.4020000000000001,2557.1906471,,,,,538,19,Man,Right,
,,,,,,,,,,,,,,,,,538,19,Man,Right,5,37,0.4,2,0,180,180,0.9105868999995437,['y'],0.30138979999992443,1.704,2560.5574416,,,,,538,19,Man,Right,
,,,,,,,,,,,,,,,,,538,19,Man,Right,5,13,0.4,2,0,180,180,0.5894225000001825,['y'],0.5894247000005635,1.704,2564.1085954,,,,,538,19,Man,Right,
,,,,,,,,,,,,,,,,,538,19,Man,Right,5,25,0.4,2,0,180,180,0.36873500000001513,['y'],0.7412999999996828,1.694,2567.3574622000006,,,,,538,19,Man,Right,
,,,,,,,,,,,,,,,,,538,19,Man,Right,5,7,1,2,180,0,0,0.3115728000002491,['y'],0.45345330000054673,1.698,2570.3412422,,,,,538,19,Man,Right,
,,,,,,,,,,,,,,,,,538,19,Man,Right,5,5,1,2,0,180,180,1.3240224000001035,['y'],0.4617051999994146,1.924,2574.6412556000005,,,,,538,19,Man,Right,
,,,,,,,,,,,,,,,,,538,19,Man,Right,5,36,0.4,1,0,-,0,0.3494306000002325,['n'],0.5971578999997291,2.0,2578.2262699000003,,,,,538,19,Man,Right,
,,,,,,,,,,,,,,,,,538,19,Man,Right,5,66,0.15,1,180,-,0,0.8666421999996601,['y'],0.39764439999999013,1.616,2582.3748258000005,,,,,538,19,Man,Right,
,,,,,,,,,,,,,,,,,538,19,Man,Right,5,41,0.4,2,0,180,0,0.6704154000008202,['n'],0.7578085999994073,1.65,2586.1409131,,,,,538,19,Man,Right,
,,,,,,,,,,,,,,,,,538,19,Man,Right,5,31,0.4,2,180,0,0,0.664139299999988,['y'],0.41318910000063624,1.672,2589.6077614000005,,,,,538,19,Man,Right,
,,,,,,,,,,,,,,,,,538,19,Man,Right,5,68,0.15,1,0,-,180,3.2799481000001833,['y'],0.9971968999998353,1.22,2596.6416085,,,,,538,19,Man,Right,
,,,,,,,,,,,,,,,,,538,19,Man,Right,5,8,0.4,1,0,-,0,1.0359186000005138,['n'],0.22148870000000898,1.998,2600.2750263,,,,,538,19,Man,Right,
,,,,,,,,,,,,,,,,,538,19,Man,Right,5,52,0.15,1,0,-,0,0.6852014000005511,['n'],0.31804270000066026,1.998,2603.5077826000006,,,,,538,19,Man,Right,
,,,,,,,,,,,,,,,,,538,19,Man,Right,5,30,0.4,1,180,-,180,1.151141400000597,['n'],0.429272200000014,1.998,2607.2745755000005,,,,,538,19,Man,Right,
,,,,,,,,,,,,,,,,,538,19,Man,Right,5,65,0.15,2,0,180,180,1.0718423000007533,['n'],0.7177112999997917,1.8639999999999999,2611.741019,,,,,538,19,Man,Right,
,,,,,,,,,,,,,,,,,538,19,Man,Right,5,3,1,2,180,0,0,0.8079879000006258,['y'],0.42169430000012653,1.688,2615.4408854000003,,,,,538,19,Man,Right,
,,,,,,,,,,,,,,,,,538,19,Man,Right,5,24,0.4,1,0,-,0,0.4579586999998355,['n'],0.7176669999998921,1.782,2618.807248,,,,,538,19,Man,Right,
,,,,,,,,,,,,,,,,,538,19,Man,Right,5,51,0.15,2,180,0,0,1.4126836000004914,['n'],1.621891200000391,1.28,2625.3580385000005,,,,,538,19,Man,Right,
,,,,,,,,,,,,,,,,,538,19,Man,Right,5,18,0.4,1,180,-,180,1.4719573000002129,['n'],0.3250054000000091,1.592,2629.4738605000002,,,,,538,19,Man,Right,
,,,,,,,,,,,,,,,,,538,19,Man,Right,5,33,0.4,2,0,180,180,0.7931862999994337,['y'],0.5339782999999443,1.724,2633.0582845,,,,,538,19,Man,Right,
,,,,,,,,,,,,,,,,,538,19,Man,Right,5,44,0.15,1,0,-,180,0.793834600000082,['y'],0.6540454999994836,1.38,2637.7748166,,,,,538,19,Man,Right,
,,,,,,,,,,,,,,,,,538,19,Man,Right,5,29,0.4,2,0,180,180,0.5278704000002108,['y'],1.2451940999999351,1.654,2641.9247147000005,,,,,538,19,Man,Right,
,,,,,,,,,,,,,,,,,538,19,Man,Right,5,67,0.15,2,180,0,0,1.5235976000003575,['y'],0.7095275000001493,1.5819999999999999,2647.3746362,,,,,538,19,Man,Right,
,,,,,,,,,,,,,,,,,538,19,Man,Right,5,58,0.15,1,180,-,180,0.4161835999993855,['n'],0.3811958999995113,1.786,2650.3571204,,,,,538,19,Man,Right,
,,,,,,,,,,,,,,,,,538,19,Man,Right,5,32,0.4,1,0,-,0,0.45639719999962836,['n'],0.6621418000004269,1.786,2653.5747951000003,,,,,538,19,Man,Right,
,,,,,,,,,,,,,,,,,538,19,Man,Right,5,62,0.15,1,180,-,180,0.8212111000002551,['n'],0.43016199999965465,1.69,2657.507777,,,,,538,19,Man,Right,
,,,,,,,,,,,,,,,,,538,19,Man,Right,5,10,0.4,1,180,-,180,1.423700800000006,['n'],0.4216556000001219,1.79,2661.7077696000006,,,,,538,19,Man,Right,
,,,,,,,,,,,,,,,,,538,19,Man,Right,5,27,0.4,2,180,0,0,0.8216663000002882,['y'],0.3339349999996557,1.888,2666.0905741000006,,,,,538,19,Man,Right,
,,,,,,,,,,,,,,,,,538,19,Man,Right,5,16,0.4,1,0,-,0,0.6086821000008058,['n'],0.27009199999974953,2.0,2669.3581545000006,,,,,538,19,Man,Right,
,,,,,,,,,,,,,,,,,538,19,Man,Right,5,28,0.4,1,0,-,0,0.5313563999998223,['n'],0.357739600000059,1.988,2673.4407938000004,,,,,538,19,Man,Right,
,,,,,,,,,,,,,,,,,538,19,Man,Right,5,73,0.15,2,0,180,0,1.7240963999993255,['n'],1.2218516000002637,1.422,2679.0585186,,,,,538,19,Man,Right,
,,,,,,,,,,,,,,,,,538,19,Man,Right,5,21,0.4,2,0,180,180,2.1952933000002304,['y'],0.4059884999996939,1.6640000000000001,2685.4580100000003,,,,,538,19,Man,Right,
,,,,,,,,,,,,,,,,,538,19,Man,Right,5,11,0.4,2,180,0,0,0.8496133999997255,['y'],0.38230750000002445,1.616,2689.1580452,,,,,538,19,Man,Right,
,,,,,,,,,,,,,,,,,538,19,Man,Right,5,69,0.15,2,0,180,180,1.8656261000005543,['y'],1.030242100000578,1.126,2696.4258116,,,,,538,19,Man,Right,
,,,,,,,,,,,,,,,,,538,19,Man,Right,5,47,0.15,2,180,0,0,0.8287044999997306,['n'],0.6622084000000541,1.538,2700.8411815,,,,,538,19,Man,Right,
,,,,,,,,,,,,,,,,,538,19,Man,Right,5,17,0.4,2,0,180,180,0.6352704999999332,['y'],0.46210749999954714,1.612,2704.2743948000007,,,,,538,19,Man,Right,
,,,,,,,,,,,,,,,,,538,19,Man,Right,5,26,0.4,1,180,-,180,0.32714430000032735,['n'],0.9257901000000857,1.702,2708.4079454000002,,,,,538,19,Man,Right,
,,,,,,,,,,,,,,,,,538,19,Man,Right,5,75,0.15,2,180,0,0,2.1079711000002135,['y'],0.606133399999635,1.702,2713.6577972000005,,,,,538,19,Man,Right,
,,,,,,,,,,,,,,,,,538,19,Man,Right,5,77,0.15,2,0,180,0,1.3781557000002067,['n'],2.5982832000008784,1.718,2720.2070468,,,,,538,19,Man,Right,
,,,,,,,,,,,,,,,,,538,19,Man,Right,5,76,0.15,1,0,-,0,0.5141825000000608,['n'],0.48629869999967923,1.718,2723.4246944000006,,,,,538,19,Man,Right,
,,,,,,,,,,,,,,,,,538,19,Man,Right,5,48,0.15,1,0,-,0,0.5942445000000589,['n'],0.6624367000003986,1.81,2727.5573916000003,,,,,538,19,Man,Right,
,,,,,,,,,,,,,,,,,538,19,Man,Right,5,23,0.4,2,180,0,0,1.0627590000003693,['y'],0.6464532999998482,1.722,2732.1570965,,,,,538,19,Man,Right,
,,,,,,,,,,,,,,,,,538,19,Man,Right,5,72,0.15,1,0,-,0,2.7172059000004083,['n'],2.2139743999996426,1.196,2740.040368,,,,,538,19,Man,Right,
,,,,,,,,,,,,,,,,,538,19,Man,Right,5,50,0.15,1,180,-,180,1.1327214000002641,['n'],0.39814300000034564,1.4100000000000001,2745.1239112000003,,,,,538,19,Man,Right,
,,,,,,,,,,,,,,,,,538,19,Man,Right,5,40,0.4,1,0,-,0,0.40960639999957493,['n'],0.43826979999994364,1.8860000000000001,2748.4905194000003,,,,,538,19,Man,Right,
,,,,,,,,,,,,,,,,,538,19,Man,Right,5,34,0.4,1,180,-,180,0.378191799999513,['n'],1.6783729999997377,1.8860000000000001,2752.7738461,,,,,538,19,Man,Right,
,,,,,,,,,,,,,,,,,538,19,Man,Right,5,74,0.15,1,180,-,0,0.9529155999998693,['n'],1.9337132999999085,1.822,2758.1910489,,,,,538,19,Man,Right,
,,,,,,,,,,,,,,,,,538,19,Man,Right,5,22,0.4,1,180,-,180,2.111405900000136,['n'],0.3263312999997652,1.682,2763.6398657,,,,,538,19,Man,Right,
,,,,,,,,,,,,,,,,,538,19,Man,Right,5,2,1,1,180,-,180,0.30842460000076244,['n'],0.5183223000003636,1.986,2767.2904255000003,,,,,538,19,Man,Right,
,,,,,,,,,,,,,,,,,538,19,Man,Right,5,4,1,1,0,-,0,0.21605600000020786,['n'],0.7025535000002492,1.982,2770.3745205000005,,,,,538,19,Man,Right,
,,,,,,,,,,,,,,,,,538,19,Man,Right,5,63,0.15,2,180,0,0,1.0939723999999842,['y'],1.5742270000000644,1.818,2775.6737664,,,,,538,19,Man,Right,
,,,,,,,,,,,,,,,,,538,19,Man,Right,5,46,0.15,1,180,-,180,0.8764197000000422,['n'],0.6861828000000969,1.968,2779.6922337000005,,,,,538,19,Man,Right,
,,,,,,,,,,,,,,,,,538,19,Man,Right,5,53,0.15,2,0,180,180,0.7357180999997581,['y'],0.7184815999999046,1.642,2783.7577384000006,,,,,538,19,Man,Right,
,,,,,,,,,,,,,,,,,538,19,Man,Right,5,19,0.4,2,180,0,0,0.3529865999998947,['y'],1.0866098999995302,1.736,2787.7076993,,,,,538,19,Man,Right,
,,,,,,,,,,,,,,,,,538,19,Man,Right,5,45,0.15,2,0,180,180,1.3821365000003425,['y'],0.6946943000002648,1.3439999999999999,2792.7403275000006,,,,,538,19,Man,Right,
,,,,,,,,,,,,,,,,,538,19,Man,Right,5,54,0.15,1,180,-,180,0.5640851999996812,['n'],0.750204400000257,1.934,2796.6067484000005,,,,,538,19,Man,Right,
,,,,,,,,,,,,,,,,,538,19,Man,Right,5,35,0.4,2,180,0,0,0.4763933999993242,['y'],0.5425493000002461,1.688,2800.3908839000005,,,,,538,19,Man,Right,
,,,,,,,,,,,,,,,,,538,19,Man,Right,5,55,0.15,2,180,0,0,0.20602229999985866,['y'],0.6143929999998363,1.692,2803.5404283,,,,,538,19,Man,Right,
,,,,,,,,,,,,,,,,,538,19,Man,Right,5,59,0.15,2,180,0,180,1.5991156000000046,['y'],0.9986494000004313,1.416,2809.6067356000003,,,,,538,19,Man,Right,
,,,,,,,,,,,,,,,,,538,19,Man,Right,5,61,0.15,2,0,180,180,0.32515049999983603,['y'],0.5103336000001946,1.564,2812.8072007,,,,,538,19,Man,Right,
,,,,,,,,,,,,,,,,,538,19,Man,Right,5,20,0.4,1,0,-,0,0.7249912999996013,['n'],0.7025822000005064,1.722,2816.7233283000005,,,,,538,19,Man,Right,
,,,,,,,,,,,,,,,,,538,19,Man,Right,5,6,1,1,180,-,180,0.3684154000002309,['n'],0.718479500000285,1.954,2820.2070696,,,,,538,19,Man,Right,
,,,,,,,,,,,,,,,,,538,19,Man,Right,5,1,1,2,0,180,180,0.4171654000001581,['y'],0.910308100000293,2.0,2823.8899374000002,,,,,538,19,Man,Right,
,,,,,,,,,,,,,,,,,538,19,Man,Right,5,42,0.4,1,180,-,180,0.3451835999994728,['n'],0.6067026999999143,2.0,2827.1068075000003,,,,,538,19,Man,Right,
,,,,,,,,,,,,,,,,,538,19,Man,Right,5,79,0.15,2,180,0,180,2.0824010999995153,['n'],1.2532096000004458,1.182,2832.9572779,,,,,538,19,Man,Right,
,,,,,,,,,,,,,,,,,538,19,Man,Right,5,38,0.4,1,180,-,180,1.4715498999994452,['n'],0.49404430000049615,2.0,2837.8069267,,,,,538,19,Man,Right,
,,,,,,,,,,,,,,,,,538,19,Man,Right,5,43,0.4,2,180,0,0,0.9118042999998579,['y'],0.518437100000483,1.99,2842.3237084,,,,,538,19,Man,Right,
,,,,,,,,,,,,,,,,,538,19,Man,Right,5,14,0.4,1,180,-,180,0.6799140000002808,['n'],0.470575800000006,1.964,2846.6237891,,,,,538,19,Man,Right,
,,,,,,,,,,,,,,,,,538,19,Man,Right,5,71,0.15,2,180,0,0,1.009882500000458,['y'],0.8306381000002148,1.612,2850.9571083,,,,,538,19,Man,Right,
,,,,,,,,,,,,,,,,,538,19,Man,Right,5,70,0.15,1,180,-,0,0.3407917999993515,['n'],0.7986202000001867,1.82,2854.7403985,,,,,538,19,Man,Right,
,,,,,,,,,,,,,,,,,538,19,Man,Right,5,15,0.4,2,180,0,0,0.4132169000004069,['y'],0.6306131999999707,1.732,2858.257025,,,,,538,19,Man,Right,
,,,,,,,,,,,,,,,,,538,19,Man,Right,5,60,0.15,1,0,-,0,1.9234324999997625,['n'],0.9107254999998986,1.0,2864.8404019,,,,,538,19,Man,Right,
,,,,,,,,,,,,,,,,,538,19,Man,Right,5,12,0.4,1,0,-,0,0.3207048999993276,['n'],1.1266305999997712,1.65,2868.8740131000004,,,,,538,19,Man,Right,
,,,,,,,,,,,,,,,,,538,19,Man,Right,5,0,1,1,0,-,0,0.32476690000021335,['n'],0.43858040000031906,2.0,2872.3726456000004,,,,,538,19,Man,Right,
,,,,,,,,,,,,,,,,,538,19,Man,Right,5,39,0.4,2,180,0,0,0.4629597000002832,['y'],0.3747176999995645,1.85,2876.1231083000002,,,,,538,19,Man,Right,
,,,,,,,,,,,,,,,,,538,19,Man,Right,5,9,0.4,2,0,180,180,0.27294199999960256,['y'],0.6542124999996304,1.8679999999999999,2879.3403784,,,,,538,19,Man,Right,
,,,,,,,,,,,,,,,,,538,19,Man,Right,5,57,0.15,2,0,180,0,1.3039114000002883,['n'],0.7988454000005731,1.3399999999999999,2883.7240606000005,,,,,538,19,Man,Right,
,,,,,,,,,,,,,,,,,,,,,,,,,,,,,,,,,85.0,92.5,77.5,2574.5503695999996,,,,,
