p_block,p_section,p_coherence,p_direction1,p_direction2,p_direction_response,p_direction_RT,p_change_response,p_change_RT,p_confidence,p_full_correct,p_without5_correct,p_full_total,p_without5_total,p_full_avg,p_witout5_avg,p_total_time,sub,age,sex,handedness,loop,trial randomization,coherence,condition,direction1,direction2,direction_response,direction_RT,change_response,change_RT,change_confidence,change_confidence_RT,block_direction_avg,block_stable_avg,block_change_avg,total_time,sub,age,sex,handedness,
1,1,1.0,180,-,180,0.0410373000013351,-,-,-,,,,,,,,503,19,Man,Right,,,,,,,,,,,,,,,,,503,19,Man,Right,
1,1,1.0,180,-,180,2.576596900002187,-,-,-,,,,,,,,503,19,Man,Right,,,,,,,,,,,,,,,,,503,19,Man,Right,
1,1,1.0,0,-,0,0.3246646999978111,-,-,-,,,,,,,,503,19,Man,Right,,,,,,,,,,,,,,,,,503,19,Man,Right,
1,1,1.0,180,-,180,0.6501220999998623,-,-,-,,,,,,,,503,19,Man,Right,,,,,,,,,,,,,,,,,503,19,Man,Right,
1,1,1.0,180,-,180,0.017564800000400282,-,-,-,,,,,,,,503,19,Man,Right,,,,,,,,,,,,,,,,,503,19,Man,Right,
1,1,1.0,0,-,0,0.02762100000109058,-,-,-,,,,,,,,503,19,Man,Right,,,,,,,,,,,,,,,,,503,19,Man,Right,
1,1,1.0,180,-,180,0.3807847000025504,-,-,-,,,,,,,,503,19,Man,Right,,,,,,,,,,,,,,,,,503,19,Man,Right,
1,1,1.0,0,-,0,0.016710199997760355,-,-,-,,,,,,,,503,19,Man,Right,,,,,,,,,,,,,,,,,503,19,Man,Right,
1,1,1.0,0,-,0,0.016242400000919588,-,-,-,,,,,,,,503,19,Man,Right,,,,,,,,,,,,,,,,,503,19,Man,Right,
1,1,1.0,180,-,180,0.579147099997499,-,-,-,10,10,10,10,1.0,1.0,,503,19,Man,Right,,,,,,,,,,,,,,,,,503,19,Man,Right,
2,1,0.15,180,-,180,0.016806200001155958,-,-,-,,,,,,,,503,19,Man,Right,,,,,,,,,,,,,,,,,503,19,Man,Right,
2,1,0.15,180,-,0,0.016637300002912525,-,-,-,,,,,,,,503,19,Man,Right,,,,,,,,,,,,,,,,,503,19,Man,Right,
2,1,0.15,0,-,0,0.016806300001917407,-,-,-,,,,,,,,503,19,Man,Right,,,,,,,,,,,,,,,,,503,19,Man,Right,
2,1,0.4,0,-,0,0.08332540000264999,-,-,-,,,,,,,,503,19,Man,Right,,,,,,,,,,,,,,,,,503,19,Man,Right,
2,1,0.15,0,-,180,0.06605300000228453,-,-,-,,,,,,,,503,19,Man,Right,,,,,,,,,,,,,,,,,503,19,Man,Right,
2,1,0.4,180,-,180,0.016971900000498863,-,-,-,,,,,,,,503,19,Man,Right,,,,,,,,,,,,,,,,,503,19,Man,Right,
2,1,0.4,0,-,0,0.0159540000022389,-,-,-,,,,,,,,503,19,Man,Right,,,,,,,,,,,,,,,,,503,19,Man,Right,
2,1,0.15,180,-,180,0.016702599998097867,-,-,-,,,,,,,,503,19,Man,Right,,,,,,,,,,,,,,,,,503,19,Man,Right,
2,1,0.15,180,-,0,0.016801999998278916,-,-,-,,,,,,,,503,19,Man,Right,,,,,,,,,,,,,,,,,503,19,Man,Right,
2,1,0.15,180,-,180,0.08765330000096583,-,-,-,7,3,10,3,0.7,1.0,,503,19,Man,Right,,,,,,,,,,,,,,,,,503,19,Man,Right,
3,2,1.0,180,0,0,6.791157299998304,['y'],5.33862610000142,2,,,,,,,,503,19,Man,Right,,,,,,,,,,,,,,,,,503,19,Man,Right,
3,2,1.0,180,0,0,3.056471899999451,['n'],0.9615979000009247,1.186,,,,,,,,503,19,Man,Right,,,,,,,,,,,,,,,,,503,19,Man,Right,
3,2,1.0,0,180,180,1.8320893999989494,['y'],0.4412953999999445,1.828,,,,,,,,503,19,Man,Right,,,,,,,,,,,,,,,,,503,19,Man,Right,
3,2,1.0,0,180,180,1.2495788000014727,['y'],0.3132104999967851,1.908,,,,,,,,503,19,Man,Right,,,,,,,,,,,,,,,,,503,19,Man,Right,
3,2,1.0,0,180,0,0.4993458999997529,['y'],1.0808050999985426,1.452,,,,,,,,503,19,Man,Right,,,,,,,,,,,,,,,,,503,19,Man,Right,
3,2,1.0,0,180,180,1.146021300002758,['y'],0.2714726000012888,1.94,,,,,,,,503,19,Man,Right,,,,,,,,,,,,,,,,,503,19,Man,Right,
3,2,1.0,0,180,180,0.8925416999991285,['y'],0.29975610000110464,1.914,,,,,,,,503,19,Man,Right,,,,,,,,,,,,,,,,,503,19,Man,Right,
3,2,1.0,0,180,180,0.6614582999973209,['y'],0.2941469999968831,1.914,,,,,,,,503,19,Man,Right,,,,,,,,,,,,,,,,,503,19,Man,Right,
3,2,1.0,180,0,0,1.1646423999991384,['y'],0.35357940000176313,1.778,,,,,,,,503,19,Man,Right,,,,,,,,,,,,,,,,,503,19,Man,Right,
3,2,1.0,180,0,0,0.6327762000000803,['y'],0.2789867999999842,1.88,9,9,10,10,0.9,0.9,,503,19,Man,Right,,,,,,,,,,,,,,,,,503,19,Man,Right,
4,2,0.4,180,0,0,0.983088900000439,['y'],0.2832209000007424,1.69,,,,,,,,503,19,Man,Right,,,,,,,,,,,,,,,,,503,19,Man,Right,
4,2,0.4,180,0,0,0.6193273999997473,['y'],0.221209600000293,1.5979999999999999,,,,,,,,503,19,Man,Right,,,,,,,,,,,,,,,,,503,19,Man,Right,
4,2,0.4,180,0,0,0.4481226999996579,['y'],0.31246010000177193,1.746,,,,,,,,503,19,Man,Right,,,,,,,,,,,,,,,,,503,19,Man,Right,
4,2,0.4,180,0,0,0.43892549999873154,['y'],0.2568758000015805,1.766,,,,,,,,503,19,Man,Right,,,,,,,,,,,,,,,,,503,19,Man,Right,
4,2,0.4,180,0,0,0.4019035999990592,['y'],0.26125669999964884,1.592,,,,,,,,503,19,Man,Right,,,,,,,,,,,,,,,,,503,19,Man,Right,
4,2,0.15,180,0,0,0.31349799999952666,['n'],0.449195499997586,1.42,,,,,,,,503,19,Man,Right,,,,,,,,,,,,,,,,,503,19,Man,Right,
4,2,0.15,180,0,0,0.3224707000008493,['y'],0.23297589999856427,1.42,,,,,,,,503,19,Man,Right,,,,,,,,,,,,,,,,,503,19,Man,Right,
4,2,0.4,180,0,0,0.22996020000209683,['y'],0.15163329999995767,1.58,,,,,,,,503,19,Man,Right,,,,,,,,,,,,,,,,,503,19,Man,Right,
4,2,0.15,0,180,180,0.699147899998934,['n'],0.2712905000007595,1.366,,,,,,,,503,19,Man,Right,,,,,,,,,,,,,,,,,503,19,Man,Right,
4,2,0.4,180,0,0,0.2632919999996375,['y'],0.31993860000147833,1.6400000000000001,10,7,10,7,1.0,1.0,,503,19,Man,Right,,,,,,,,,,,,,,,,,503,19,Man,Right,
5,3,1.0,0,-,0,2.53321550000328,['n'],1.3873032000010426,1.6400000000000001,,,,,,,,503,19,Man,Right,,,,,,,,,,,,,,,,,503,19,Man,Right,
5,3,0.15,180,-,180,0.8013783000023977,['y'],0.23598800000036135,1.3820000000000001,,,,,,,,503,19,Man,Right,,,,,,,,,,,,,,,,,503,19,Man,Right,
5,3,0.15,0,180,180,0.9381758000017726,['y'],0.2406981000021915,1.6099999999999999,,,,,,,,503,19,Man,Right,,,,,,,,,,,,,,,,,503,19,Man,Right,
5,3,0.4,0,-,0,0.8100668000006408,['n'],0.11771149999913177,1.5899999999999999,,,,,,,,503,19,Man,Right,,,,,,,,,,,,,,,,,503,19,Man,Right,
5,3,0.15,0,180,180,0.5721234000011464,['n'],0.7124082000009366,1.4100000000000001,,,,,,,,503,19,Man,Right,,,,,,,,,,,,,,,,,503,19,Man,Right,
5,3,1.0,0,180,180,0.4829048999999941,['y'],0.24974730000030831,1.91,,,,,,,,503,19,Man,Right,,,,,,,,,,,,,,,,,503,19,Man,Right,
5,3,1.0,0,-,0,0.9647961999980907,['n'],0.32090379999863217,1.376,,,,,,,,503,19,Man,Right,,,,,,,,,,,,,,,,,503,19,Man,Right,
5,3,0.15,180,0,180,0.3150095999990299,['n'],0.3054219000005105,1.286,,,,,,,,503,19,Man,Right,,,,,,,,,,,,,,,,,503,19,Man,Right,
5,3,1.0,0,-,0,0.8716398999968078,['n'],0.11925669999982347,1.286,,,,,,,,503,19,Man,Right,,,,,,,,,,,,,,,,,503,19,Man,Right,
5,3,0.4,180,-,180,0.2777859999987413,['n'],0.23060479999912786,1.44,9,6,10,6,0.9,1.0,,503,19,Man,Right,,,,,,,,,,,,,,,,,503,19,Man,Right,
,,,,,,,,,,,,,,,,5.099998816149309e-06,503,19,Man,Right,,,,,,,,,,,,,,,,,503,19,Man,Right,
,,,,,,,,,,,,,,,,,503,19,Man,Right,0,29,0.4,2,0,180,180,1.1040021000007982,['y'],1.5513815000012983,1.6640000000000001,233.4345594999977,,,,,503,19,Man,Right,
,,,,,,,,,,,,,,,,,503,19,Man,Right,0,3,1,2,180,0,0,0.26191990000006626,['y'],0.9353450999988127,1.6680000000000001,236.86809250000078,,,,,503,19,Man,Right,
,,,,,,,,,,,,,,,,,503,19,Man,Right,0,45,0.15,2,0,180,180,0.4346525000000838,['n'],0.7834358000000066,1.188,241.38532739999937,,,,,503,19,Man,Right,
,,,,,,,,,,,,,,,,,503,19,Man,Right,0,4,1,1,0,-,180,0.8163112000002002,['y'],2.0870453999996244,1.104,246.88479599999846,,,,,503,19,Man,Right,
,,,,,,,,,,,,,,,,,503,19,Man,Right,0,40,0.4,1,0,-,180,0.42678760000126204,['n'],1.103282299998682,1.376,250.81833149999875,,,,,503,19,Man,Right,
,,,,,,,,,,,,,,,,,503,19,Man,Right,0,39,0.4,2,180,0,0,1.5829440999987128,['y'],0.6085725000011735,1.376,250.81833149999875,,,,,503,19,Man,Right,
,,,,,,,,,,,,,,,,,503,19,Man,Right,0,6,1,1,180,-,0,1.2993679999999586,['y'],0.7200075000000652,1.684,259.83514659999855,,,,,503,19,Man,Right,
,,,,,,,,,,,,,,,,,503,19,Man,Right,0,51,0.15,2,180,0,0,0.3722741000019596,['y'],2.3439583999970637,1.35,265.25127280000015,,,,,503,19,Man,Right,
,,,,,,,,,,,,,,,,,503,19,Man,Right,0,41,0.4,2,0,180,180,0.6291913999993994,['y'],0.7037160999971093,1.994,269.05204129999765,,,,,503,19,Man,Right,
,,,,,,,,,,,,,,,,,503,19,Man,Right,0,44,0.15,1,0,-,180,0.3314241000007314,['n'],0.7272693999984767,1.124,272.8512703999986,,,,,503,19,Man,Right,
,,,,,,,,,,,,,,,,,503,19,Man,Right,0,26,0.4,1,180,-,180,0.43787309999970603,['n'],2.983769399997982,1.33,278.8508507999977,,,,,503,19,Man,Right,
,,,,,,,,,,,,,,,,,503,19,Man,Right,0,9,0.4,2,0,180,180,0.29198080000060145,['y'],1.2797389999977895,1.712,282.68395509999755,,,,,503,19,Man,Right,
,,,,,,,,,,,,,,,,,503,19,Man,Right,0,58,0.15,1,180,-,0,0.3962834000012663,['n'],0.8634262999985367,1.126,286.3848665000005,,,,,503,19,Man,Right,
,,,,,,,,,,,,,,,,,503,19,Man,Right,0,37,0.4,2,0,180,180,0.5161361999998917,['y'],0.46368920000168146,1.654,289.7679614000008,,,,,503,19,Man,Right,
,,,,,,,,,,,,,,,,,503,19,Man,Right,0,54,0.15,1,180,-,180,0.38516119999985676,['y'],1.0712440000024799,1.184,293.75098499999876,,,,,503,19,Man,Right,
,,,,,,,,,,,,,,,,,503,19,Man,Right,0,64,0.15,1,0,-,0,0.4015174999985902,['n'],0.4235277000007045,1.31,296.9006112999996,,,,,503,19,Man,Right,
,,,,,,,,,,,,,,,,,503,19,Man,Right,0,15,0.4,2,180,0,0,0.3318839999992633,['y'],0.7352816000020539,1.666,300.20140510000056,,,,,503,19,Man,Right,
,,,,,,,,,,,,,,,,,503,19,Man,Right,0,7,1,2,180,0,0,0.08732389999931911,['y'],0.9356041999999434,1.772,303.418548499998,,,,,503,19,Man,Right,
,,,,,,,,,,,,,,,,,503,19,Man,Right,0,74,0.15,1,180,-,0,0.6855837000002794,['y'],0.7757663000011235,1.254,307.4517620999977,,,,,503,19,Man,Right,
,,,,,,,,,,,,,,,,,503,19,Man,Right,0,18,0.4,1,180,-,0,0.2773123000006308,['n'],0.8951602000015555,1.312,310.85082449999754,,,,,503,19,Man,Right,
,,,,,,,,,,,,,,,,,503,19,Man,Right,0,70,0.15,1,180,-,0,0.8977689999992435,['n'],0.9436988999987079,1.164,315.6508393999975,,,,,503,19,Man,Right,
,,,,,,,,,,,,,,,,,503,19,Man,Right,0,22,0.4,1,180,-,0,1.2739053000004787,['y'],0.5996235999991768,1.4020000000000001,320.6519707000007,,,,,503,19,Man,Right,
,,,,,,,,,,,,,,,,,503,19,Man,Right,0,8,0.4,1,0,-,180,0.7325052000014693,['n'],1.559698600001866,1.6640000000000001,326.23487509999904,,,,,503,19,Man,Right,
,,,,,,,,,,,,,,,,,503,19,Man,Right,0,72,0.15,1,0,-,0,1.3351194999995641,['n'],1.0239504999990459,1.168,331.1350405999983,,,,,503,19,Man,Right,
,,,,,,,,,,,,,,,,,503,19,Man,Right,0,49,0.15,2,0,180,0,0.34244870000111405,['n'],0.3354972999986785,1.306,334.1846153000006,,,,,503,19,Man,Right,
,,,,,,,,,,,,,,,,,503,19,Man,Right,0,32,0.4,1,0,-,0,0.39159010000003036,['n'],1.1278907999985677,1.73,338.1021972999988,,,,,503,19,Man,Right,
,,,,,,,,,,,,,,,,,503,19,Man,Right,0,65,0.15,2,0,180,180,0.8819149000009929,['n'],0.3916334999994433,1.4100000000000001,341.6684279000001,,,,,503,19,Man,Right,
,,,,,,,,,,,,,,,,,503,19,Man,Right,0,79,0.15,2,180,0,0,0.6267226000018127,['y'],0.4870136999998067,1.728,345.3508178000011,,,,,503,19,Man,Right,
,,,,,,,,,,,,,,,,,503,19,Man,Right,0,68,0.15,1,0,-,0,0.23164579999865964,['n'],0.4723580999998376,1.26,349.23521189999883,,,,,503,19,Man,Right,
,,,,,,,,,,,,,,,,,503,19,Man,Right,0,2,1,1,180,-,180,0.8126584999990882,['n'],1.7031934999977238,1.832,354.36871419999807,,,,,503,19,Man,Right,
,,,,,,,,,,,,,,,,,503,19,Man,Right,0,48,0.15,1,0,-,0,0.3130918000024394,['n'],0.3753618999980972,1.32,358.18530199999805,,,,,503,19,Man,Right,
,,,,,,,,,,,,,,,,,503,19,Man,Right,0,75,0.15,2,180,0,0,0.9916479999992589,['n'],0.9838060999973095,1.23,362.3845862999988,,,,,503,19,Man,Right,
,,,,,,,,,,,,,,,,,503,19,Man,Right,0,27,0.4,2,180,0,0,0.3110400999976264,['y'],0.6719252000002598,1.682,365.76800419999927,,,,,503,19,Man,Right,
,,,,,,,,,,,,,,,,,503,19,Man,Right,0,47,0.15,2,180,0,0,0.9761525000030815,['n'],0.8398668999980146,1.278,370.035259100001,,,,,503,19,Man,Right,
,,,,,,,,,,,,,,,,,503,19,Man,Right,0,55,0.15,2,180,0,0,0.26039680000030785,['n'],0.24762589999954798,1.32,373.26767140000084,,,,,503,19,Man,Right,
,,,,,,,,,,,,,,,,,503,19,Man,Right,0,21,0.4,2,0,180,180,0.3657149000027857,['y'],0.6095215000023018,1.674,376.28452800000014,,,,,503,19,Man,Right,
,,,,,,,,,,,,,,,,,503,19,Man,Right,0,57,0.15,2,0,180,180,0.4203231000028609,['y'],0.695655399998941,1.8599999999999999,379.5180569000004,,,,,503,19,Man,Right,
,,,,,,,,,,,,,,,,,503,19,Man,Right,0,5,1,2,0,180,180,0.25357009999788716,['y'],0.639671000000817,2.0,383.05148539999936,,,,,503,19,Man,Right,
,,,,,,,,,,,,,,,,,503,19,Man,Right,0,0,1,1,0,-,180,1.9425771000023815,['y'],0.5035901000010199,1.3,387.66869609999776,,,,,503,19,Man,Right,
,,,,,,,,,,,,,,,,,503,19,Man,Right,0,38,0.4,1,180,-,180,0.3866783999983454,['n'],0.5839675999995961,1.752,390.9518910000006,,,,,503,19,Man,Right,
,,,,,,,,,,,,,,,,,503,19,Man,Right,0,73,0.15,2,0,180,180,1.3268085999989125,['y'],0.6639909999976226,1.0,396.88527109999995,,,,,503,19,Man,Right,
,,,,,,,,,,,,,,,,,503,19,Man,Right,0,46,0.15,1,180,-,180,1.009766999999556,['n'],0.9274617999981274,1.31,401.3017766999983,,,,,503,19,Man,Right,
,,,,,,,,,,,,,,,,,503,19,Man,Right,0,30,0.4,1,180,-,180,0.869850499999302,['n'],0.8871728000012808,1.812,405.33444939999754,,,,,503,19,Man,Right,
,,,,,,,,,,,,,,,,,503,19,Man,Right,0,36,0.4,1,0,-,180,1.4766318000001775,['n'],1.1038186000005226,1.204,409.93459900000016,,,,,503,19,Man,Right,
,,,,,,,,,,,,,,,,,503,19,Man,Right,0,24,0.4,1,0,-,0,1.172047100000782,['n'],0.8715656999993371,1.296,414.03469549999863,,,,,503,19,Man,Right,
,,,,,,,,,,,,,,,,,503,19,Man,Right,0,60,0.15,1,0,-,0,0.4643684000002395,['n'],0.43999039999835077,1.258,417.13502270000026,,,,,503,19,Man,Right,
,,,,,,,,,,,,,,,,,503,19,Man,Right,0,61,0.15,2,0,180,180,0.7785094999999274,['n'],1.935400700000173,1.706,421.8851947000003,,,,,503,19,Man,Right,
,,,,,,,,,,,,,,,,,503,19,Man,Right,0,63,0.15,2,180,0,180,0.5389810999986366,['n'],0.5915617999999085,1.442,425.3010336999978,,,,,503,19,Man,Right,
,,,,,,,,,,,,,,,,,503,19,Man,Right,0,12,0.4,1,0,-,180,1.1213529000015114,['n'],0.5194551000022329,1.45,430.1014714999983,,,,,503,19,Man,Right,
,,,,,,,,,,,,,,,,,503,19,Man,Right,0,67,0.15,2,180,0,180,1.0202288999971643,['n'],0.639767299999221,1.354,434.00092139999833,,,,,503,19,Man,Right,
,,,,,,,,,,,,,,,,,503,19,Man,Right,0,19,0.4,2,180,0,0,0.4662086999996973,['y'],0.4932614999997895,1.776,437.334586099998,,,,,503,19,Man,Right,
,,,,,,,,,,,,,,,,,503,19,Man,Right,0,66,0.15,1,180,-,0,0.3834408999973675,['n'],0.34338860000207205,1.608,441.0345340999993,,,,,503,19,Man,Right,
,,,,,,,,,,,,,,,,,503,19,Man,Right,0,62,0.15,1,180,-,180,0.3287842999998247,['n'],0.8557713000009244,1.65,444.9016358999979,,,,,503,19,Man,Right,
,,,,,,,,,,,,,,,,,503,19,Man,Right,0,34,0.4,1,180,-,180,0.547688399998151,['n'],0.7359366000018781,1.384,448.66762169999856,,,,,503,19,Man,Right,
,,,,,,,,,,,,,,,,,503,19,Man,Right,0,1,1,2,0,180,180,0.3078248000019812,['y'],0.9995746999993571,2.0,452.1508639999993,,,,,503,19,Man,Right,
,,,,,,,,,,,,,,,,,503,19,Man,Right,0,52,0.15,1,0,-,180,0.7803767999976117,['n'],0.10318519999782438,1.442,455.0345419000005,,,,,503,19,Man,Right,
,,,,,,,,,,,,,,,,,503,19,Man,Right,0,78,0.15,1,180,-,0,1.0558927999991283,['n'],0.2636530000017956,1.412,458.98457469999994,,,,,503,19,Man,Right,
,,,,,,,,,,,,,,,,,503,19,Man,Right,0,13,0.4,2,0,180,180,0.5369022999984736,['y'],1.3437926000005973,2.0,463.18406949999917,,,,,503,19,Man,Right,
,,,,,,,,,,,,,,,,,503,19,Man,Right,0,76,0.15,1,0,-,180,0.30018330000166316,['n'],0.4036457000001974,1.23,465.95080600000074,,,,,503,19,Man,Right,
,,,,,,,,,,,,,,,,,503,19,Man,Right,0,16,0.4,1,0,-,180,0.7761303000006592,['n'],0.2635887000033108,1.1179999999999999,470.0685081999982,,,,,503,19,Man,Right,
,,,,,,,,,,,,,,,,,503,19,Man,Right,0,43,0.4,2,180,0,0,0.2908683999994537,['y'],0.5038217999972403,1.788,473.05085340000005,,,,,503,19,Man,Right,
,,,,,,,,,,,,,,,,,503,19,Man,Right,0,11,0.4,2,180,0,0,0.2309668000016245,['y'],0.9839939000012237,1.702,476.40108859999964,,,,,503,19,Man,Right,
,,,,,,,,,,,,,,,,,503,19,Man,Right,0,14,0.4,1,180,-,0,0.2905726999997569,['y'],1.2959066000003077,1.702,476.40108859999964,,,,,503,19,Man,Right,
,,,,,,,,,,,,,,,,,503,19,Man,Right,0,28,0.4,1,0,-,0,0.16417860000001383,['n'],0.6233638000012434,1.748,483.3505813999982,,,,,503,19,Man,Right,
,,,,,,,,,,,,,,,,,503,19,Man,Right,0,50,0.15,1,180,-,180,1.265347100001236,['n'],0.4319141000014497,1.366,487.51845179999873,,,,,503,19,Man,Right,
,,,,,,,,,,,,,,,,,503,19,Man,Right,0,35,0.4,2,180,0,0,0.73300670000026,['y'],2.5035989999996673,1.8940000000000001,493.1506745000006,,,,,503,19,Man,Right,
,,,,,,,,,,,,,,,,,503,19,Man,Right,0,71,0.15,2,180,0,180,1.6164805000007618,['n'],0.19447700000091572,1.1320000000000001,497.15086449999944,,,,,503,19,Man,Right,
,,,,,,,,,,,,,,,,,503,19,Man,Right,0,53,0.15,2,0,180,180,2.203945500001282,['n'],0.2555419999989681,1.342,502.0846692999985,,,,,503,19,Man,Right,
,,,,,,,,,,,,,,,,,503,19,Man,Right,0,69,0.15,2,0,180,180,0.4307074999996985,['n'],0.4395799999983865,1.324,504.90072679999867,,,,,503,19,Man,Right,
,,,,,,,,,,,,,,,,,503,19,Man,Right,0,77,0.15,2,0,180,180,0.34713040000133333,['n'],0.34380760000203736,1.154,508.4175830999993,,,,,503,19,Man,Right,
,,,,,,,,,,,,,,,,,503,19,Man,Right,0,10,0.4,1,180,-,0,0.5167779000003065,['y'],0.38343719999829773,1.416,512.2503417000007,,,,,503,19,Man,Right,
,,,,,,,,,,,,,,,,,503,19,Man,Right,0,31,0.4,2,180,0,0,0.24004580000109854,['y'],0.8877634999989823,1.942,515.9174758000008,,,,,503,19,Man,Right,
,,,,,,,,,,,,,,,,,503,19,Man,Right,0,33,0.4,2,0,180,180,0.40143199999874923,['y'],0.5277834000007715,1.812,518.9504204000004,,,,,503,19,Man,Right,
,,,,,,,,,,,,,,,,,503,19,Man,Right,0,23,0.4,2,180,0,0,0.4044203999983438,['y'],0.4879179999988992,1.812,521.8672440000009,,,,,503,19,Man,Right,
,,,,,,,,,,,,,,,,,503,19,Man,Right,0,20,0.4,1,0,-,180,1.5601673000019218,['n'],0.5274585000006482,1.3780000000000001,526.2678214999978,,,,,503,19,Man,Right,
,,,,,,,,,,,,,,,,,503,19,Man,Right,0,56,0.15,1,0,-,180,0.4406593999992765,['n'],0.31931540000005043,1.3860000000000001,529.2005952,,,,,503,19,Man,Right,
,,,,,,,,,,,,,,,,,503,19,Man,Right,0,17,0.4,2,0,180,180,0.2113917999995465,['y'],0.41515609999987646,1.762,531.8846460999994,,,,,503,19,Man,Right,
,,,,,,,,,,,,,,,,,503,19,Man,Right,0,59,0.15,2,180,0,0,0.782575999997789,['n'],0.25535300000046846,1.186,535.6680154999995,,,,,503,19,Man,Right,
,,,,,,,,,,,,,,,,,503,19,Man,Right,0,42,0.4,1,180,-,0,1.1919847999997728,['y'],0.287180499999522,1.6320000000000001,540.0837261999986,,,,,503,19,Man,Right,
,,,,,,,,,,,,,,,,,503,19,Man,Right,0,25,0.4,2,0,180,180,0.7493795000009413,['y'],0.3945738000002166,1.714,543.2013922000006,,,,,503,19,Man,Right,
,,,,,,,,,,,,,,,,,503,19,Man,Right,1,24,0.4,1,0,-,180,0.7110054000004311,['n'],0.16696940000110772,1.3599999999999999,578.0504956000004,66.25,77.5,65.0,,503,19,Man,Right,
,,,,,,,,,,,,,,,,,503,19,Man,Right,1,14,0.4,1,180,-,0,0.3530318000011903,['n'],0.19982460000028368,1.38,581.9342701999994,,,,,503,19,Man,Right,
,,,,,,,,,,,,,,,,,503,19,Man,Right,1,18,0.4,1,180,-,180,0.8111419000015303,['n'],0.24795309999899473,1.38,585.5345242000003,,,,,503,19,Man,Right,
,,,,,,,,,,,,,,,,,503,19,Man,Right,1,45,0.15,2,0,180,0,1.077646800000366,['n'],0.2159795999978087,1.38,588.9173253000008,,,,,503,19,Man,Right,
,,,,,,,,,,,,,,,,,503,19,Man,Right,1,76,0.15,1,0,-,180,0.8898410000001604,['n'],0.21591880000050878,1.28,592.5681998,,,,,503,19,Man,Right,
,,,,,,,,,,,,,,,,,503,19,Man,Right,1,46,0.15,1,180,-,180,0.5465216999982658,['n'],0.18345490000137943,1.216,595.5027827999984,,,,,503,19,Man,Right,
,,,,,,,,,,,,,,,,,503,19,Man,Right,1,6,1,1,180,-,180,1.3086260000018228,['n'],0.6797070000029635,1.2,599.7344783999979,,,,,503,19,Man,Right,
,,,,,,,,,,,,,,,,,503,19,Man,Right,1,48,0.15,1,0,-,0,0.49505919999865,['n'],0.5032685000005586,1.308,602.7678099000004,,,,,503,19,Man,Right,
,,,,,,,,,,,,,,,,,503,19,Man,Right,1,31,0.4,2,180,0,0,0.38033939999877475,['y'],0.7594516999997722,1.74,606.1338959999994,,,,,503,19,Man,Right,
,,,,,,,,,,,,,,,,,503,19,Man,Right,1,21,0.4,2,0,180,180,0.4527922999986913,['y'],0.6557520999995177,1.612,609.9682988999994,,,,,503,19,Man,Right,
,,,,,,,,,,,,,,,,,503,19,Man,Right,1,56,0.15,1,0,-,180,0.37404979999701027,['n'],0.6959351000004972,1.318,613.0172760999994,,,,,503,19,Man,Right,
,,,,,,,,,,,,,,,,,503,19,Man,Right,1,7,1,2,180,0,0,0.297461199999816,['y'],0.4476598000001104,1.738,615.8502325000009,,,,,503,19,Man,Right,
,,,,,,,,,,,,,,,,,503,19,Man,Right,1,4,1,1,0,-,180,1.2406778999975359,['n'],0.9035734999997658,1.638,620.2506451000008,,,,,503,19,Man,Right,
,,,,,,,,,,,,,,,,,503,19,Man,Right,1,9,0.4,2,0,180,180,0.5295512999982748,['y'],0.4878247000015108,1.6560000000000001,623.3509024999985,,,,,503,19,Man,Right,
,,,,,,,,,,,,,,,,,503,19,Man,Right,1,52,0.15,1,0,-,0,0.8381111999988207,['n'],0.47985759999937727,1.346,626.9004126,,,,,503,19,Man,Right,
,,,,,,,,,,,,,,,,,503,19,Man,Right,1,29,0.4,2,0,180,180,0.8935655999994196,['y'],0.2789143000009062,1.286,630.3000351999981,,,,,503,19,Man,Right,
,,,,,,,,,,,,,,,,,503,19,Man,Right,1,73,0.15,2,0,180,180,0.47105959999680636,['y'],0.3039201999999932,1.6059999999999999,633.6171934999984,,,,,503,19,Man,Right,
,,,,,,,,,,,,,,,,,503,19,Man,Right,1,17,0.4,2,0,180,180,0.45791559999997844,['y'],0.759579900000972,1.6059999999999999,633.6171934999984,,,,,503,19,Man,Right,
,,,,,,,,,,,,,,,,,503,19,Man,Right,1,64,0.15,1,0,-,180,0.2323964999995951,['n'],0.3123462000003201,1.258,639.9847325999981,,,,,503,19,Man,Right,
,,,,,,,,,,,,,,,,,503,19,Man,Right,1,10,0.4,1,180,-,180,0.6735885999987659,['n'],1.2474845999968238,1.28,644.1512376999999,,,,,503,19,Man,Right,
,,,,,,,,,,,,,,,,,503,19,Man,Right,1,19,0.4,2,180,0,0,0.4815387999988161,['y'],0.24765970000225934,1.686,646.9858640999992,,,,,503,19,Man,Right,
,,,,,,,,,,,,,,,,,503,19,Man,Right,1,70,0.15,1,180,-,0,0.3721777999999176,['n'],0.4077280999990762,1.3980000000000001,649.9682199999988,,,,,503,19,Man,Right,
,,,,,,,,,,,,,,,,,503,19,Man,Right,1,67,0.15,2,180,0,0,0.8343236000000616,['y'],0.47174230000018724,1.42,653.6845035999977,,,,,503,19,Man,Right,
,,,,,,,,,,,,,,,,,503,19,Man,Right,1,36,0.4,1,0,-,180,0.48976029999903403,['n'],0.28731490000063786,1.4100000000000001,656.5003216000005,,,,,503,19,Man,Right,
,,,,,,,,,,,,,,,,,503,19,Man,Right,1,62,0.15,1,180,-,0,0.8457912000012584,['n'],0.5433808000016143,1.224,660.1180878999985,,,,,503,19,Man,Right,
,,,,,,,,,,,,,,,,,503,19,Man,Right,1,32,0.4,1,0,-,0,0.2565498000003572,['n'],0.5752751999971224,1.224,663.050204799998,,,,,503,19,Man,Right,
,,,,,,,,,,,,,,,,,503,19,Man,Right,1,58,0.15,1,180,-,180,0.37091789999976754,['n'],0.3595954000011261,1.288,665.8846999999987,,,,,503,19,Man,Right,
,,,,,,,,,,,,,,,,,503,19,Man,Right,1,75,0.15,2,180,0,180,0.7288569999982428,['n'],0.567662499997823,1.6640000000000001,669.1183667000005,,,,,503,19,Man,Right,
,,,,,,,,,,,,,,,,,503,19,Man,Right,1,33,0.4,2,0,180,180,0.4519749999999476,['y'],0.38378480000028503,1.676,672.1007037999989,,,,,503,19,Man,Right,
,,,,,,,,,,,,,,,,,503,19,Man,Right,1,65,0.15,2,0,180,180,0.7199928000009095,['n'],0.3031074999998964,1.3399999999999999,675.351270799998,,,,,503,19,Man,Right,
,,,,,,,,,,,,,,,,,503,19,Man,Right,1,79,0.15,2,180,0,0,0.23315339999680873,['n'],0.16310629999861703,1.392,677.9684610000004,,,,,503,19,Man,Right,
,,,,,,,,,,,,,,,,,503,19,Man,Right,1,35,0.4,2,180,0,0,0.43387389999770676,['y'],0.38340210000023944,1.72,681.0507949999992,,,,,503,19,Man,Right,
,,,,,,,,,,,,,,,,,503,19,Man,Right,1,54,0.15,1,180,-,0,0.433345499997813,['n'],0.35956009999790695,1.322,683.8336334999985,,,,,503,19,Man,Right,
,,,,,,,,,,,,,,,,,503,19,Man,Right,1,59,0.15,2,180,0,0,0.12698660000023665,['n'],0.21574250000048778,1.588,687.4346991999992,,,,,503,19,Man,Right,
,,,,,,,,,,,,,,,,,503,19,Man,Right,1,40,0.4,1,0,-,180,0.35872419999941485,['n'],0.20738189999974566,1.0,691.1007279000005,,,,,503,19,Man,Right,
,,,,,,,,,,,,,,,,,503,19,Man,Right,1,28,0.4,1,0,-,180,0.6923372000019299,['n'],0.391562700002396,1.448,694.8001387000004,,,,,503,19,Man,Right,
,,,,,,,,,,,,,,,,,503,19,Man,Right,1,23,0.4,2,180,0,0,0.23406050000266987,['y'],0.29552160000093863,1.6320000000000001,697.5014615,,,,,503,19,Man,Right,
,,,,,,,,,,,,,,,,,503,19,Man,Right,1,27,0.4,2,180,0,0,0.3588247000006959,['y'],0.2479440999995859,1.8519999999999999,700.8007275999989,,,,,503,19,Man,Right,
,,,,,,,,,,,,,,,,,503,19,Man,Right,1,47,0.15,2,180,0,0,0.2675563999982842,['y'],0.8713872999978776,1.354,704.384066300001,,,,,503,19,Man,Right,
,,,,,,,,,,,,,,,,,503,19,Man,Right,1,71,0.15,2,180,0,0,0.44568860000072164,['y'],0.5113306000021112,1.324,707.4841282999987,,,,,503,19,Man,Right,
,,,,,,,,,,,,,,,,,503,19,Man,Right,1,69,0.15,2,0,180,180,0.4981054999989283,['y'],1.0396354999975301,1.342,711.1335393000008,,,,,503,19,Man,Right,
,,,,,,,,,,,,,,,,,503,19,Man,Right,1,25,0.4,2,0,180,180,1.7277331000004779,['y'],0.23934210000152234,1.3599999999999999,715.4007644999983,,,,,503,19,Man,Right,
,,,,,,,,,,,,,,,,,503,19,Man,Right,1,39,0.4,2,180,0,0,0.3423581999995804,['y'],0.4713239999982761,1.678,719.0182338999984,,,,,503,19,Man,Right,
,,,,,,,,,,,,,,,,,503,19,Man,Right,1,3,1,2,180,0,0,0.25905839999904856,['y'],0.2634829999988142,2.0,721.7345905000002,,,,,503,19,Man,Right,
,,,,,,,,,,,,,,,,,503,19,Man,Right,1,20,0.4,1,0,-,180,0.32442839999930584,['n'],0.3676037000004726,1.3719999999999999,724.9345420999998,,,,,503,19,Man,Right,
,,,,,,,,,,,,,,,,,503,19,Man,Right,1,5,1,2,0,180,180,0.20586739999998827,['y'],0.29541339999923366,2.0,727.6012721000006,,,,,503,19,Man,Right,
,,,,,,,,,,,,,,,,,503,19,Man,Right,1,8,0.4,1,0,-,180,0.2737253999985114,['n'],0.9354955999988306,1.44,731.0168234999983,,,,,503,19,Man,Right,
,,,,,,,,,,,,,,,,,503,19,Man,Right,1,0,1,1,0,-,0,0.698826600000757,['n'],0.5593140000019048,1.444,734.300355899999,,,,,503,19,Man,Right,
,,,,,,,,,,,,,,,,,503,19,Man,Right,1,16,0.4,1,0,-,180,0.3495800999990024,['y'],0.64632519999941,1.4020000000000001,737.9183152000005,,,,,503,19,Man,Right,
,,,,,,,,,,,,,,,,,503,19,Man,Right,1,13,0.4,2,0,180,180,0.5332632999998168,['y'],0.14362670000264188,1.3439999999999999,741.2177448000002,,,,,503,19,Man,Right,
,,,,,,,,,,,,,,,,,503,19,Man,Right,1,74,0.15,1,180,-,180,0.3875818000014988,['n'],0.303385299997899,1.3359999999999999,744.5173748999987,,,,,503,19,Man,Right,
,,,,,,,,,,,,,,,,,503,19,Man,Right,1,43,0.4,2,180,0,0,0.21336230000088108,['y'],0.2799193999999261,1.3559999999999999,747.4845750999993,,,,,503,19,Man,Right,
,,,,,,,,,,,,,,,,,503,19,Man,Right,1,12,0.4,1,0,-,180,0.14713860000119894,['n'],0.43980369999917457,1.37,750.8672243000001,,,,,503,19,Man,Right,
,,,,,,,,,,,,,,,,,503,19,Man,Right,1,55,0.15,2,180,0,0,0.47432970000227215,['n'],0.2001596999980393,1.3519999999999999,753.5672071999979,,,,,503,19,Man,Right,
,,,,,,,,,,,,,,,,,503,19,Man,Right,1,53,0.15,2,0,180,180,3.1731710999993084,['n'],0.9994855000004463,1.3,760.0340958999986,,,,,503,19,Man,Right,
,,,,,,,,,,,,,,,,,503,19,Man,Right,1,63,0.15,2,180,0,0,0.30896969999957946,['n'],0.2953795999965223,1.312,762.6008046999996,,,,,503,19,Man,Right,
,,,,,,,,,,,,,,,,,503,19,Man,Right,1,66,0.15,1,180,-,0,0.31340350000027684,['n'],0.22350789999836707,1.326,765.317364399998,,,,,503,19,Man,Right,
,,,,,,,,,,,,,,,,,503,19,Man,Right,1,60,0.15,1,0,-,0,0.46781150000242633,['n'],0.19994500000029802,1.282,768.3002118999975,,,,,503,19,Man,Right,
,,,,,,,,,,,,,,,,,503,19,Man,Right,1,22,0.4,1,180,-,180,0.2957224000019778,['n'],0.45550139999977546,1.126,771.1338632000006,,,,,503,19,Man,Right,
,,,,,,,,,,,,,,,,,503,19,Man,Right,1,42,0.4,1,180,-,0,0.2746210000004794,['n'],0.4320523999995203,1.3319999999999999,774.0504643999993,,,,,503,19,Man,Right,
,,,,,,,,,,,,,,,,,503,19,Man,Right,1,11,0.4,2,180,0,0,0.2097920999985945,['y'],0.5596327999992354,1.786,777.1505867999986,,,,,503,19,Man,Right,
,,,,,,,,,,,,,,,,,503,19,Man,Right,1,37,0.4,2,0,180,180,0.47887120000086725,['y'],0.43959329999779584,1.758,780.0501096999978,,,,,503,19,Man,Right,
,,,,,,,,,,,,,,,,,503,19,Man,Right,1,49,0.15,2,0,180,180,0.3561563000002934,['y'],0.5433760000014445,1.292,783.5508474999988,,,,,503,19,Man,Right,
,,,,,,,,,,,,,,,,,503,19,Man,Right,1,38,0.4,1,180,-,0,0.2698167000016838,['n'],0.19973799999934272,1.4140000000000001,786.0178252000005,,,,,503,19,Man,Right,
,,,,,,,,,,,,,,,,,503,19,Man,Right,1,34,0.4,1,180,-,0,0.13933689999976195,['n'],0.1919342000001052,1.408,788.4010095999984,,,,,503,19,Man,Right,
,,,,,,,,,,,,,,,,,503,19,Man,Right,1,1,1,2,0,180,180,0.2831826999972691,['y'],0.23952029999782098,2.0,791.0180646999979,,,,,503,19,Man,Right,
,,,,,,,,,,,,,,,,,503,19,Man,Right,1,41,0.4,2,0,180,180,0.7989357999977074,['y'],0.6234653999999864,1.682,794.9844965999982,,,,,503,19,Man,Right,
,,,,,,,,,,,,,,,,,503,19,Man,Right,1,78,0.15,1,180,-,180,0.2328522999996494,['n'],0.1259453000020585,1.682,794.9844965999982,,,,,503,19,Man,Right,
,,,,,,,,,,,,,,,,,503,19,Man,Right,1,30,0.4,1,180,-,180,0.4422907000007399,['n'],0.4796052999990934,1.3860000000000001,800.2667681999992,,,,,503,19,Man,Right,
,,,,,,,,,,,,,,,,,503,19,Man,Right,1,57,0.15,2,0,180,180,0.4406128999980865,['n'],0.2072288999988814,1.388,802.9834434000004,,,,,503,19,Man,Right,
,,,,,,,,,,,,,,,,,503,19,Man,Right,1,2,1,1,180,-,180,0.670136700002331,['n'],0.958954800000356,2.0,806.7165304000009,,,,,503,19,Man,Right,
,,,,,,,,,,,,,,,,,503,19,Man,Right,1,72,0.15,1,0,-,180,0.2313721999998961,['n'],0.527573499999562,1.1480000000000001,809.8336032000007,,,,,503,19,Man,Right,
,,,,,,,,,,,,,,,,,503,19,Man,Right,1,68,0.15,1,0,-,0,0.14657429999715532,['n'],0.4635047999981907,1.276,812.6002154999987,,,,,503,19,Man,Right,
,,,,,,,,,,,,,,,,,503,19,Man,Right,1,50,0.15,1,180,-,180,0.24519280000095023,['n'],0.19167219999872032,1.384,815.051163199998,,,,,503,19,Man,Right,
,,,,,,,,,,,,,,,,,503,19,Man,Right,1,26,0.4,1,180,-,0,0.26619729999947594,['n'],0.1775058999992325,1.3780000000000001,817.4671605000003,,,,,503,19,Man,Right,
,,,,,,,,,,,,,,,,,503,19,Man,Right,1,61,0.15,2,0,180,180,0.9292390000009618,['y'],0.27949140000055195,1.58,820.8674016000004,,,,,503,19,Man,Right,
,,,,,,,,,,,,,,,,,503,19,Man,Right,1,15,0.4,2,180,0,0,0.5229785000010452,['y'],0.4313216000009561,1.5819999999999999,823.8001889999978,,,,,503,19,Man,Right,
,,,,,,,,,,,,,,,,,503,19,Man,Right,1,77,0.15,2,0,180,0,0.4208824999986973,['n'],0.30428890000257525,1.384,826.4834439999977,,,,,503,19,Man,Right,
,,,,,,,,,,,,,,,,,503,19,Man,Right,1,44,0.15,1,0,-,180,0.24225810000280035,['n'],0.15153680000003078,1.37,828.8514398000007,,,,,503,19,Man,Right,
,,,,,,,,,,,,,,,,,503,19,Man,Right,1,51,0.15,2,180,0,0,0.17231679999895277,['n'],0.20759289999841712,1.374,831.1847261000003,,,,,503,19,Man,Right,
,,,,,,,,,,,,,,,,,503,19,Man,Right,2,8,0.4,1,0,-,180,0.5356168999969668,['n'],0.15938550000282703,1.4060000000000001,888.1337841999994,67.5,97.5,72.5,,503,19,Man,Right,
,,,,,,,,,,,,,,,,,503,19,Man,Right,2,25,0.4,2,0,180,180,0.49645389999932377,['y'],0.5597895999999309,1.3719999999999999,891.3171163000006,,,,,503,19,Man,Right,
,,,,,,,,,,,,,,,,,503,19,Man,Right,2,73,0.15,2,0,180,180,0.2580218999974022,['n'],0.2795628999992914,1.384,894.066593399999,,,,,503,19,Man,Right,
,,,,,,,,,,,,,,,,,503,19,Man,Right,2,66,0.15,1,180,-,180,0.26007039999967674,['n'],0.3279629999997269,1.266,896.6676241999994,,,,,503,19,Man,Right,
,,,,,,,,,,,,,,,,,503,19,Man,Right,2,0,1,1,0,-,0,0.6128883000019414,['n'],0.5672353000009025,1.45,899.7843052999997,,,,,503,19,Man,Right,
,,,,,,,,,,,,,,,,,503,19,Man,Right,2,40,0.4,1,0,-,180,0.5123473999992711,['n'],0.23897860000215587,1.432,902.5169156000011,,,,,503,19,Man,Right,
,,,,,,,,,,,,,,,,,503,19,Man,Right,2,18,0.4,1,180,-,0,0.8241471999972418,['y'],0.3918338000003132,1.396,905.7000114000002,,,,,503,19,Man,Right,
,,,,,,,,,,,,,,,,,503,19,Man,Right,2,55,0.15,2,180,0,0,0.5052935999992769,['n'],0.3198929999998654,1.362,908.5337813999977,,,,,503,19,Man,Right,
,,,,,,,,,,,,,,,,,503,19,Man,Right,2,41,0.4,2,0,180,180,0.2947362000013527,['y'],0.2476308000004792,1.42,911.1340495999975,,,,,503,19,Man,Right,
,,,,,,,,,,,,,,,,,503,19,Man,Right,2,31,0.4,2,180,0,0,0.5586773999966681,['y'],1.2391510000015842,1.552,915.0174393999987,,,,,503,19,Man,Right,
,,,,,,,,,,,,,,,,,503,19,Man,Right,2,36,0.4,1,0,-,180,0.26176780000241706,['n'],0.7759455999985221,1.326,918.3168603999984,,,,,503,19,Man,Right,
,,,,,,,,,,,,,,,,,503,19,Man,Right,2,74,0.15,1,180,-,180,0.25963169999886304,['n'],0.15926430000035907,1.308,920.6837866999995,,,,,503,19,Man,Right,
,,,,,,,,,,,,,,,,,503,19,Man,Right,2,77,0.15,2,0,180,180,0.20973360000061803,['y'],0.18359430000055,1.346,923.4169574999978,,,,,503,19,Man,Right,
,,,,,,,,,,,,,,,,,503,19,Man,Right,2,45,0.15,2,0,180,180,0.26058109999939916,['n'],0.27963979999913136,1.19,926.1169382999979,,,,,503,19,Man,Right,
,,,,,,,,,,,,,,,,,503,19,Man,Right,2,35,0.4,2,180,0,0,0.17279070000222418,['y'],0.2714847999995982,1.726,928.7669989999995,,,,,503,19,Man,Right,
,,,,,,,,,,,,,,,,,503,19,Man,Right,2,5,1,2,0,180,180,0.28738460000022314,['y'],0.2479118000010203,2.0,931.4178313999982,,,,,503,19,Man,Right,
,,,,,,,,,,,,,,,,,503,19,Man,Right,2,4,1,1,0,-,180,0.7870094000027166,['y'],0.3756269000004977,1.0,935.217805799999,,,,,503,19,Man,Right,
,,,,,,,,,,,,,,,,,503,19,Man,Right,2,76,0.15,1,0,-,180,0.7076811999977508,['n'],0.7837054000010539,1.434,938.6833712999978,,,,,503,19,Man,Right,
,,,,,,,,,,,,,,,,,503,19,Man,Right,2,21,0.4,2,0,180,180,0.4670326000014029,['y'],0.27956260000064503,1.6219999999999999,941.8341264999981,,,,,503,19,Man,Right,
,,,,,,,,,,,,,,,,,503,19,Man,Right,2,50,0.15,1,180,-,180,0.5625853999990795,['n'],0.26372690000061993,1.6099999999999999,944.6837737999995,,,,,503,19,Man,Right,
,,,,,,,,,,,,,,,,,503,19,Man,Right,2,47,0.15,2,180,0,180,0.3706095000015921,['n'],0.23208470000099624,1.6099999999999999,947.2668926000006,,,,,503,19,Man,Right,
,,,,,,,,,,,,,,,,,503,19,Man,Right,2,69,0.15,2,0,180,0,0.2581976000001305,['n'],0.5041622999997344,1.284,950.1166272999981,,,,,503,19,Man,Right,
,,,,,,,,,,,,,,,,,503,19,Man,Right,2,1,1,2,0,180,180,0.2829057000017201,['y'],0.31150549999802024,1.6099999999999999,952.7000315999976,,,,,503,19,Man,Right,
,,,,,,,,,,,,,,,,,503,19,Man,Right,2,43,0.4,2,180,0,0,0.7780629000008048,['y'],0.9759061999975529,1.3519999999999999,956.8171445999978,,,,,503,19,Man,Right,
,,,,,,,,,,,,,,,,,503,19,Man,Right,2,38,0.4,1,180,-,180,0.2946795999996539,['n'],0.22377380000034464,1.35,959.4174805000002,,,,,503,19,Man,Right,
,,,,,,,,,,,,,,,,,503,19,Man,Right,2,34,0.4,1,180,-,180,0.27872950000164565,['n'],0.4075854000002437,1.358,962.0508474999988,,,,,503,19,Man,Right,
,,,,,,,,,,,,,,,,,503,19,Man,Right,2,30,0.4,1,180,-,180,0.7476915000006557,['n'],0.2633251000006567,1.392,965.6004887999989,,,,,503,19,Man,Right,
,,,,,,,,,,,,,,,,,503,19,Man,Right,2,56,0.15,1,0,-,0,0.8133895999999368,['n'],0.23926199999914388,1.328,968.668110999999,,,,,503,19,Man,Right,
,,,,,,,,,,,,,,,,,503,19,Man,Right,2,13,0.4,2,0,180,180,0.5724353999976302,['n'],0.9513177999979234,1.16,972.8838190999995,,,,,503,19,Man,Right,
,,,,,,,,,,,,,,,,,503,19,Man,Right,2,7,1,2,180,0,0,0.28046570000151405,['y'],0.36745370000062394,2.0,975.6178466999991,,,,,503,19,Man,Right,
,,,,,,,,,,,,,,,,,503,19,Man,Right,2,42,0.4,1,180,-,0,0.4991030999990471,['n'],0.2811765000005835,1.472,978.3997782000006,,,,,503,19,Man,Right,
,,,,,,,,,,,,,,,,,503,19,Man,Right,2,29,0.4,2,0,180,180,0.5039085999997042,['y'],0.44719479999912437,1.4140000000000001,981.5840199999984,,,,,503,19,Man,Right,
,,,,,,,,,,,,,,,,,503,19,Man,Right,2,12,0.4,1,0,-,180,0.19324219999907655,['n'],0.1991492000015569,1.4140000000000001,983.9508870999998,,,,,503,19,Man,Right,
,,,,,,,,,,,,,,,,,503,19,Man,Right,2,16,0.4,1,0,-,180,0.11449649999849498,['n'],0.1836055000021588,1.408,986.2002203000011,,,,,503,19,Man,Right,
,,,,,,,,,,,,,,,,,503,19,Man,Right,2,58,0.15,1,180,-,0,0.32751099999950384,['y'],0.5999389000025985,1.146,989.4837153000008,,,,,503,19,Man,Right,
,,,,,,,,,,,,,,,,,503,19,Man,Right,2,22,0.4,1,180,-,0,0.6096101000002818,['n'],0.25586809999731486,1.588,992.7330555000008,,,,,503,19,Man,Right,
,,,,,,,,,,,,,,,,,503,19,Man,Right,2,39,0.4,2,180,0,0,0.466612799998984,['y'],0.24733129999731318,1.5939999999999999,995.6508388000002,,,,,503,19,Man,Right,
,,,,,,,,,,,,,,,,,503,19,Man,Right,2,32,0.4,1,0,-,180,1.4837316000011924,['n'],0.3195601000006718,1.3719999999999999,999.6338557999989,,,,,503,19,Man,Right,
,,,,,,,,,,,,,,,,,503,19,Man,Right,2,54,0.15,1,180,-,0,2.716033400000015,['n'],1.0633606000010332,1.3639999999999999,1005.7011276999983,,,,,503,19,Man,Right,
,,,,,,,,,,,,,,,,,503,19,Man,Right,2,68,0.15,1,0,-,0,0.5161165000026813,['y'],1.0071798999997554,1.4020000000000001,1009.3675264999983,,,,,503,19,Man,Right,
,,,,,,,,,,,,,,,,,503,19,Man,Right,2,15,0.4,2,180,0,0,1.095597600000474,['n'],0.40722250000180793,1.3639999999999999,1013.7667903000001,,,,,503,19,Man,Right,
,,,,,,,,,,,,,,,,,503,19,Man,Right,2,49,0.15,2,0,180,0,0.18620580000060727,['n'],0.15947890000097686,1.4100000000000001,1016.1002255999992,,,,,503,19,Man,Right,
,,,,,,,,,,,,,,,,,503,19,Man,Right,2,26,0.4,1,180,-,0,0.16892359999837936,['n'],0.2553967999992892,1.3519999999999999,1018.5674642999984,,,,,503,19,Man,Right,
,,,,,,,,,,,,,,,,,503,19,Man,Right,2,60,0.15,1,0,-,180,0.2649277999989863,['n'],0.5200203000022157,1.3639999999999999,1021.3501273000002,,,,,503,19,Man,Right,
,,,,,,,,,,,,,,,,,503,19,Man,Right,2,33,0.4,2,0,180,180,0.4573091000020213,['y'],0.1356452999971225,1.554,1024.3842208999995,,,,,503,19,Man,Right,
,,,,,,,,,,,,,,,,,503,19,Man,Right,2,14,0.4,1,180,-,0,0.19488450000062585,['n'],0.29561370000010356,1.446,1026.9667154999988,,,,,503,19,Man,Right,
,,,,,,,,,,,,,,,,,503,19,Man,Right,2,3,1,2,180,0,0,0.35219969999889145,['y'],0.44740050000109477,2.0,1029.8164803,,,,,503,19,Man,Right,
,,,,,,,,,,,,,,,,,503,19,Man,Right,2,10,0.4,1,180,-,0,0.6229161000010208,['n'],0.5117719999980181,1.3940000000000001,1032.9333893000003,,,,,503,19,Man,Right,
,,,,,,,,,,,,,,,,,503,19,Man,Right,2,51,0.15,2,180,0,0,0.1939435999993293,['n'],0.15172090000123717,1.3940000000000001,1032.9333893000003,,,,,503,19,Man,Right,
,,,,,,,,,,,,,,,,,503,19,Man,Right,2,6,1,1,180,-,180,0.5554448999973829,['y'],1.1914838000011514,1.6640000000000001,1039.0168491000004,,,,,503,19,Man,Right,
,,,,,,,,,,,,,,,,,503,19,Man,Right,2,27,0.4,2,180,0,180,0.7893096000007063,['n'],0.2877805999996781,1.426,1042.2671396000005,,,,,503,19,Man,Right,
,,,,,,,,,,,,,,,,,503,19,Man,Right,2,72,0.15,1,0,-,0,0.43382650000057765,['n'],0.2076290999975754,1.434,1045.0497398999978,,,,,503,19,Man,Right,
,,,,,,,,,,,,,,,,,503,19,Man,Right,2,64,0.15,1,0,-,0,0.1349475999995775,['n'],0.2157697000002372,1.3319999999999999,1047.5498315999976,,,,,503,19,Man,Right,
,,,,,,,,,,,,,,,,,503,19,Man,Right,2,23,0.4,2,180,0,0,0.8207906999996339,['y'],0.3438382999993337,1.328,1051.1833162000003,,,,,503,19,Man,Right,
,,,,,,,,,,,,,,,,,503,19,Man,Right,2,2,1,1,180,-,0,0.7539428000018233,['y'],0.14324570000098902,1.37,1054.9335511999998,,,,,503,19,Man,Right,
,,,,,,,,,,,,,,,,,503,19,Man,Right,2,11,0.4,2,180,0,0,0.5994266999987303,['n'],0.33281390000047395,1.314,1057.8169400000006,,,,,503,19,Man,Right,
,,,,,,,,,,,,,,,,,503,19,Man,Right,2,67,0.15,2,180,0,0,0.9595826999975543,['n'],0.31969179999941844,1.3639999999999999,1061.067390100001,,,,,503,19,Man,Right,
,,,,,,,,,,,,,,,,,503,19,Man,Right,2,75,0.15,2,180,0,0,0.2859747999973479,['n'],0.3436231999985466,1.572,1063.6843698999983,,,,,503,19,Man,Right,
,,,,,,,,,,,,,,,,,503,19,Man,Right,2,19,0.4,2,180,0,0,0.19974240000010468,['n'],0.19740590000219527,1.666,1066.283571699998,,,,,503,19,Man,Right,
,,,,,,,,,,,,,,,,,503,19,Man,Right,2,24,0.4,1,0,-,0,0.40608339999744203,['n'],0.31164669999998296,1.688,1069.0003450999975,,,,,503,19,Man,Right,
,,,,,,,,,,,,,,,,,503,19,Man,Right,2,9,0.4,2,0,180,180,0.5273068999995303,['n'],0.3590126000017335,1.42,1071.8671981999978,,,,,503,19,Man,Right,
,,,,,,,,,,,,,,,,,503,19,Man,Right,2,59,0.15,2,180,0,180,0.3968520999987959,['n'],0.3352852999996685,1.3559999999999999,1074.5999396999978,,,,,503,19,Man,Right,
,,,,,,,,,,,,,,,,,503,19,Man,Right,2,62,0.15,1,180,-,0,0.15102029999980005,['n'],0.2073441000029561,1.248,1076.9335035000004,,,,,503,19,Man,Right,
,,,,,,,,,,,,,,,,,503,19,Man,Right,2,48,0.15,1,0,-,0,0.07388039999932516,['n'],0.17577600000004168,1.342,1079.1670449999983,,,,,503,19,Man,Right,
,,,,,,,,,,,,,,,,,503,19,Man,Right,2,17,0.4,2,0,180,180,0.6407020000006014,['y'],0.31945330000235117,1.786,1082.333122,,,,,503,19,Man,Right,
,,,,,,,,,,,,,,,,,503,19,Man,Right,2,78,0.15,1,180,-,180,0.17493049999757204,['n'],0.16750940000201808,1.3860000000000001,1084.683621100001,,,,,503,19,Man,Right,
,,,,,,,,,,,,,,,,,503,19,Man,Right,2,46,0.15,1,180,-,180,0.15592560000004596,['n'],0.1757142999995267,1.354,1086.9839243999995,,,,,503,19,Man,Right,
,,,,,,,,,,,,,,,,,503,19,Man,Right,2,70,0.15,1,180,-,0,0.016958899999735877,['n'],0.2948544999999285,1.3820000000000001,1089.5840524999985,,,,,503,19,Man,Right,
,,,,,,,,,,,,,,,,,503,19,Man,Right,2,63,0.15,2,180,0,0,0.25747950000004494,['n'],0.1669571000020369,1.37,1092.1666760000007,,,,,503,19,Man,Right,
,,,,,,,,,,,,,,,,,503,19,Man,Right,2,44,0.15,1,0,-,180,0.3123460000024352,['n'],0.5919804999975895,1.342,1095.0336027999983,,,,,503,19,Man,Right,
,,,,,,,,,,,,,,,,,503,19,Man,Right,2,52,0.15,1,0,-,0,0.18095829999947455,['y'],0.1992882999984431,1.184,1097.9499718999978,,,,,503,19,Man,Right,
,,,,,,,,,,,,,,,,,503,19,Man,Right,2,53,0.15,2,0,180,0,0.1255009999986214,['n'],0.23978290000013658,1.434,1100.4330015999985,,,,,503,19,Man,Right,
,,,,,,,,,,,,,,,,,503,19,Man,Right,2,20,0.4,1,0,-,0,0.2599716000004264,['n'],0.26352659999975003,1.444,1103.2337195,,,,,503,19,Man,Right,
,,,,,,,,,,,,,,,,,503,19,Man,Right,2,65,0.15,2,0,180,0,0.19857950000005076,['n'],0.2555164999976114,1.576,1105.6833327999993,,,,,503,19,Man,Right,
,,,,,,,,,,,,,,,,,503,19,Man,Right,2,79,0.15,2,180,0,0,0.10098609999840846,['n'],0.19152110000140965,1.548,1107.9838915,,,,,503,19,Man,Right,
,,,,,,,,,,,,,,,,,503,19,Man,Right,2,61,0.15,2,0,180,180,0.9536842000015895,['n'],0.1599701000013738,1.46,1111.0670905999978,,,,,503,19,Man,Right,
,,,,,,,,,,,,,,,,,503,19,Man,Right,2,71,0.15,2,180,0,180,0.321739200000593,['n'],0.1357220000027155,1.298,1113.5495517999989,,,,,503,19,Man,Right,
,,,,,,,,,,,,,,,,,503,19,Man,Right,2,57,0.15,2,0,180,0,0.34918779999861727,['n'],0.1954734000028111,1.396,1116.033473200001,,,,,503,19,Man,Right,
,,,,,,,,,,,,,,,,,503,19,Man,Right,2,28,0.4,1,0,-,180,1.0082204999998794,['y'],0.24758550000115065,1.3820000000000001,1119.817269799998,,,,,503,19,Man,Right,
,,,,,,,,,,,,,,,,,503,19,Man,Right,2,37,0.4,2,0,180,180,0.3404474000017217,['n'],0.23155039999983273,1.3980000000000001,1123.1169045999995,,,,,503,19,Man,Right,
,,,,,,,,,,,,,,,,,503,19,Man,Right,3,37,0.4,2,0,180,180,1.206959499999357,['y'],0.3353188000000955,2.0,1134.283489999998,61.25,80.0,40.0,,503,19,Man,Right,
,,,,,,,,,,,,,,,,,503,19,Man,Right,3,0,1,1,0,-,180,0.6425414999976056,['n'],0.2636568999987503,1.4020000000000001,1137.3672621999976,,,,,503,19,Man,Right,
,,,,,,,,,,,,,,,,,503,19,Man,Right,3,78,0.15,1,180,-,180,0.21695030000046245,['n'],0.15993990000060876,1.4020000000000001,1139.7165314999984,,,,,503,19,Man,Right,
,,,,,,,,,,,,,,,,,503,19,Man,Right,3,51,0.15,2,180,0,0,0.267462700001488,['n'],0.2880314999965776,1.374,1142.2499771000003,,,,,503,19,Man,Right,
,,,,,,,,,,,,,,,,,503,19,Man,Right,3,74,0.15,1,180,-,0,0.4856801000023552,['n'],0.263427199999569,1.358,1144.9665190999985,,,,,503,19,Man,Right,
,,,,,,,,,,,,,,,,,503,19,Man,Right,3,18,0.4,1,180,-,0,0.23252779999893392,['n'],0.1275750999993761,1.3719999999999999,1147.3672904999985,,,,,503,19,Man,Right,
,,,,,,,,,,,,,,,,,503,19,Man,Right,3,24,0.4,1,0,-,180,0.5786172000007355,['n'],0.18331039999975474,1.27,1150.1672717000001,,,,,503,19,Man,Right,
,,,,,,,,,,,,,,,,,503,19,Man,Right,3,1,1,2,0,180,180,0.2642188999998325,['y'],0.19949869999982184,1.944,1152.6679044999983,,,,,503,19,Man,Right,
,,,,,,,,,,,,,,,,,503,19,Man,Right,3,32,0.4,1,0,-,180,0.43645029999970575,['n'],0.47144589999879827,1.944,1152.6679044999983,,,,,503,19,Man,Right,
,,,,,,,,,,,,,,,,,503,19,Man,Right,3,75,0.15,2,180,0,180,0.2637226999977429,['n'],0.15947119999691495,1.432,1158.2672923999999,,,,,503,19,Man,Right,
,,,,,,,,,,,,,,,,,503,19,Man,Right,3,2,1,1,180,-,180,0.9330016999992949,['n'],0.8860438999981852,1.3479999999999999,1162.9999027999984,,,,,503,19,Man,Right,
,,,,,,,,,,,,,,,,,503,19,Man,Right,3,6,1,1,180,-,180,0.30325920000177575,['n'],0.4872033999999985,1.234,1165.8994796999978,,,,,503,19,Man,Right,
,,,,,,,,,,,,,,,,,503,19,Man,Right,3,3,1,2,180,0,0,0.4745963999994274,['y'],0.4640575000012177,1.714,1168.817254900001,,,,,503,19,Man,Right,
,,,,,,,,,,,,,,,,,503,19,Man,Right,3,27,0.4,2,180,0,0,0.4573769999988144,['y'],1.167975899999874,1.6520000000000001,1173.4669082,,,,,503,19,Man,Right,
,,,,,,,,,,,,,,,,,503,19,Man,Right,3,11,0.4,2,180,0,0,1.0991563999996288,['n'],0.642596699999558,1.6139999999999999,1177.6165801999996,,,,,503,19,Man,Right,
,,,,,,,,,,,,,,,,,503,19,Man,Right,3,22,0.4,1,180,-,180,0.4890192000020761,['n'],0.19959639999797218,1.612,1180.316577499998,,,,,503,19,Man,Right,
,,,,,,,,,,,,,,,,,503,19,Man,Right,3,79,0.15,2,180,0,180,0.25541009999869857,['n'],0.18398979999983567,1.446,1183.0001368999983,,,,,503,19,Man,Right,
,,,,,,,,,,,,,,,,,503,19,Man,Right,3,57,0.15,2,0,180,180,0.7587860000021465,['n'],0.3761856000019179,1.346,1186.0836539999982,,,,,503,19,Man,Right,
,,,,,,,,,,,,,,,,,503,19,Man,Right,3,34,0.4,1,180,-,0,0.2602574000011373,['n'],0.18388520000007702,1.3399999999999999,1188.4671406999987,,,,,503,19,Man,Right,
,,,,,,,,,,,,,,,,,503,19,Man,Right,3,30,0.4,1,180,-,0,0.18270679999841377,['n'],0.19188279999798397,1.3439999999999999,1190.7998972999994,,,,,503,19,Man,Right,
,,,,,,,,,,,,,,,,,503,19,Man,Right,3,71,0.15,2,180,0,0,0.16998400000011316,['n'],0.1433941000032064,1.366,1193.067611399998,,,,,503,19,Man,Right,
,,,,,,,,,,,,,,,,,503,19,Man,Right,3,44,0.15,1,0,-,0,0.12553429999752552,['n'],0.1836421000007249,1.4100000000000001,1195.4161180999981,,,,,503,19,Man,Right,
,,,,,,,,,,,,,,,,,503,19,Man,Right,3,72,0.15,1,0,-,0,0.06482210000103805,['n'],0.9916881999997713,1.162,1198.7829545999994,,,,,503,19,Man,Right,
,,,,,,,,,,,,,,,,,503,19,Man,Right,3,39,0.4,2,180,0,0,2.5758791000007477,['y'],1.1351600000016333,1.596,1204.999777099998,,,,,503,19,Man,Right,
,,,,,,,,,,,,,,,,,503,19,Man,Right,3,54,0.15,1,180,-,180,0.2644730000029085,['n'],0.5513315999996848,1.366,1207.7661745999976,,,,,503,19,Man,Right,
,,,,,,,,,,,,,,,,,503,19,Man,Right,3,38,0.4,1,180,-,0,1.849176499999885,['n'],0.24811469999986002,1.424,1212.1668608,,,,,503,19,Man,Right,
,,,,,,,,,,,,,,,,,503,19,Man,Right,3,9,0.4,2,0,180,180,0.2884129000012763,['n'],0.15117630000167992,1.146,1215.3829219,,,,,503,19,Man,Right,
,,,,,,,,,,,,,,,,,503,19,Man,Right,3,52,0.15,1,0,-,180,0.25827250000293134,['n'],0.31162010000116425,1.334,1217.8668281999999,,,,,503,19,Man,Right,
,,,,,,,,,,,,,,,,,503,19,Man,Right,3,23,0.4,2,180,0,0,0.24924359999931767,['y'],0.39835409999795957,1.3599999999999999,1220.4831236999999,,,,,503,19,Man,Right,
,,,,,,,,,,,,,,,,,503,19,Man,Right,3,14,0.4,1,180,-,0,0.26363539999874774,['n'],0.2556486999965273,1.3439999999999999,1222.967125799998,,,,,503,19,Man,Right,
,,,,,,,,,,,,,,,,,503,19,Man,Right,3,69,0.15,2,0,180,180,1.5469821999977285,['y'],0.24757899999895017,1.434,1226.917072199998,,,,,503,19,Man,Right,
,,,,,,,,,,,,,,,,,503,19,Man,Right,3,45,0.15,2,0,180,180,0.23890279999977793,['n'],0.20688960000188672,1.548,1229.4667091999981,,,,,503,19,Man,Right,
,,,,,,,,,,,,,,,,,503,19,Man,Right,3,7,1,2,180,0,0,0.31125930000052904,['y'],0.23223409999991418,2.0,1231.9828641999993,,,,,503,19,Man,Right,
,,,,,,,,,,,,,,,,,503,19,Man,Right,3,10,0.4,1,180,-,180,0.6381040999985998,['n'],0.1517879000020912,1.1280000000000001,1235.2999347999976,,,,,503,19,Man,Right,
,,,,,,,,,,,,,,,,,503,19,Man,Right,3,48,0.15,1,0,-,180,0.32600149999780115,['n'],0.1351594000007026,1.384,1238.2168620999983,,,,,503,19,Man,Right,
,,,,,,,,,,,,,,,,,503,19,Man,Right,3,35,0.4,2,180,0,0,0.19833440000002156,['y'],0.16750339999998687,1.4020000000000001,1240.7827111999977,,,,,503,19,Man,Right,
,,,,,,,,,,,,,,,,,503,19,Man,Right,3,68,0.15,1,0,-,180,0.21629369999936898,['y'],0.13585819999934756,1.3780000000000001,1243.6337571999975,,,,,503,19,Man,Right,
,,,,,,,,,,,,,,,,,503,19,Man,Right,3,67,0.15,2,180,0,0,0.17207450000205426,['n'],0.2081646999977238,1.3319999999999999,1246.1999902999996,,,,,503,19,Man,Right,
,,,,,,,,,,,,,,,,,503,19,Man,Right,3,43,0.4,2,180,0,0,0.5548236000031466,['y'],0.23119690000021365,1.592,1249.0493841999996,,,,,503,19,Man,Right,
,,,,,,,,,,,,,,,,,503,19,Man,Right,3,73,0.15,2,0,180,180,1.2544106999994256,['n'],0.5432580999986385,1.446,1252.9331086999991,,,,,503,19,Man,Right,
,,,,,,,,,,,,,,,,,503,19,Man,Right,3,33,0.4,2,0,180,180,0.23169029999917257,['y'],0.2558184999979858,1.54,1255.649738600001,,,,,503,19,Man,Right,
,,,,,,,,,,,,,,,,,503,19,Man,Right,3,49,0.15,2,0,180,180,0.981507700002112,['y'],0.2722503999975743,1.558,1258.8835852999982,,,,,503,19,Man,Right,
,,,,,,,,,,,,,,,,,503,19,Man,Right,3,55,0.15,2,180,0,180,0.16395229999761796,['n'],0.1198357000030228,1.424,1261.4330967999995,,,,,503,19,Man,Right,
,,,,,,,,,,,,,,,,,503,19,Man,Right,3,15,0.4,2,180,0,0,0.27650179999909597,['y'],0.30424700000003213,1.576,1264.099663099998,,,,,503,19,Man,Right,
,,,,,,,,,,,,,,,,,503,19,Man,Right,3,42,0.4,1,180,-,180,0.5670895999974164,['n'],1.1912577000002784,1.308,1268.0332689999996,,,,,503,19,Man,Right,
,,,,,,,,,,,,,,,,,503,19,Man,Right,3,53,0.15,2,0,180,180,0.11006289999932051,['n'],0.24031230000036885,1.248,1270.366670200001,,,,,503,19,Man,Right,
,,,,,,,,,,,,,,,,,503,19,Man,Right,3,28,0.4,1,0,-,180,0.5305048000009265,['n'],0.3991619000007631,1.242,1273.2344764000009,,,,,503,19,Man,Right,
,,,,,,,,,,,,,,,,,503,19,Man,Right,3,12,0.4,1,0,-,0,1.1047001000006276,['n'],0.2636932999994315,1.654,1276.7164016999996,,,,,503,19,Man,Right,
,,,,,,,,,,,,,,,,,503,19,Man,Right,3,70,0.15,1,180,-,0,4.173962199998641,['n'],0.44755479999730596,1.1560000000000001,1283.4164523,,,,,503,19,Man,Right,
,,,,,,,,,,,,,,,,,503,19,Man,Right,3,8,0.4,1,0,-,180,0.36914619999879505,['n'],0.1515361000019766,1.25,1285.8496479999994,,,,,503,19,Man,Right,
,,,,,,,,,,,,,,,,,503,19,Man,Right,3,41,0.4,2,0,180,180,0.6233738999981142,['y'],0.27952060000097845,1.62,1289.2003847999986,,,,,503,19,Man,Right,
,,,,,,,,,,,,,,,,,503,19,Man,Right,3,20,0.4,1,0,-,180,1.6274059999996098,['n'],0.7753235999989556,1.296,1293.617057899999,,,,,503,19,Man,Right,
,,,,,,,,,,,,,,,,,503,19,Man,Right,3,16,0.4,1,0,-,180,0.28293050000138464,['n'],0.22345629999836092,1.3479999999999999,1296.049663400001,,,,,503,19,Man,Right,
,,,,,,,,,,,,,,,,,503,19,Man,Right,3,64,0.15,1,0,-,180,0.20927169999777107,['n'],0.3831209000018134,1.256,1298.5504048000003,,,,,503,19,Man,Right,
,,,,,,,,,,,,,,,,,503,19,Man,Right,3,26,0.4,1,180,-,0,0.3372254999994766,['n'],0.22366609999880893,1.32,1301.1830652999997,,,,,503,19,Man,Right,
,,,,,,,,,,,,,,,,,503,19,Man,Right,3,76,0.15,1,0,-,0,0.28414340000017546,['n'],0.27927460000137216,1.248,1303.7011899999998,,,,,503,19,Man,Right,
,,,,,,,,,,,,,,,,,503,19,Man,Right,3,50,0.15,1,180,-,180,0.3014511000001221,['n'],0.32729810000091675,1.328,1306.3494409999985,,,,,503,19,Man,Right,
,,,,,,,,,,,,,,,,,503,19,Man,Right,3,17,0.4,2,0,180,180,0.6116181000033976,['y'],0.27955609999844455,1.6099999999999999,1310.033688200001,,,,,503,19,Man,Right,
,,,,,,,,,,,,,,,,,503,19,Man,Right,3,58,0.15,1,180,-,0,0.33464140000069165,['n'],0.35943390000102227,1.396,1313.133122299998,,,,,503,19,Man,Right,
,,,,,,,,,,,,,,,,,503,19,Man,Right,3,25,0.4,2,0,180,180,1.1570216999971308,['y'],0.29586809999818797,1.6400000000000001,1316.700077999998,,,,,503,19,Man,Right,
,,,,,,,,,,,,,,,,,503,19,Man,Right,3,40,0.4,1,0,-,0,0.3978627000033157,['n'],0.3114722999998776,1.5739999999999998,1319.717526299999,,,,,503,19,Man,Right,
,,,,,,,,,,,,,,,,,503,19,Man,Right,3,46,0.15,1,180,-,0,0.230797000000166,['n'],0.16741650000039954,1.45,1322.117051000001,,,,,503,19,Man,Right,
,,,,,,,,,,,,,,,,,503,19,Man,Right,3,65,0.15,2,0,180,180,0.20116390000112006,['n'],0.13584830000036163,1.3900000000000001,1324.7172355000002,,,,,503,19,Man,Right,
,,,,,,,,,,,,,,,,,503,19,Man,Right,3,60,0.15,1,0,-,0,0.309510399998544,['n'],0.7757855000018026,1.676,1328.1167163999999,,,,,503,19,Man,Right,
,,,,,,,,,,,,,,,,,503,19,Man,Right,3,66,0.15,1,180,-,180,0.10028079999756301,['n'],0.215717199997016,1.304,1330.4325540999998,,,,,503,19,Man,Right,
,,,,,,,,,,,,,,,,,503,19,Man,Right,3,47,0.15,2,180,0,0,0.3927134000005026,['n'],0.19962610000220593,1.224,1333.0155801,,,,,503,19,Man,Right,
,,,,,,,,,,,,,,,,,503,19,Man,Right,3,59,0.15,2,180,0,180,0.24362579999797163,['n'],0.1594857999989472,1.334,1335.2996237999978,,,,,503,19,Man,Right,
,,,,,,,,,,,,,,,,,503,19,Man,Right,3,5,1,2,0,180,180,0.5830545000026177,['y'],0.2155994999993709,1.88,1338.1335751999977,,,,,503,19,Man,Right,
,,,,,,,,,,,,,,,,,503,19,Man,Right,3,77,0.15,2,0,180,180,0.3162740000007034,['n'],0.20836689999850933,1.568,1340.6327106999997,,,,,503,19,Man,Right,
,,,,,,,,,,,,,,,,,503,19,Man,Right,3,56,0.15,1,0,-,180,0.2404815999980201,['n'],0.16759509999974398,1.428,1343.0667403999978,,,,,503,19,Man,Right,
,,,,,,,,,,,,,,,,,503,19,Man,Right,3,31,0.4,2,180,0,0,0.7272050999999919,['y'],0.23998049999863724,1.534,1346.0503080999988,,,,,503,19,Man,Right,
,,,,,,,,,,,,,,,,,503,19,Man,Right,3,63,0.15,2,180,0,180,0.06259069999941858,['n'],0.23203750000175205,1.534,1346.0503080999988,,,,,503,19,Man,Right,
,,,,,,,,,,,,,,,,,503,19,Man,Right,3,21,0.4,2,0,180,180,0.9919665000015812,['y'],0.29536060000100406,1.318,1351.5660795000003,,,,,503,19,Man,Right,
,,,,,,,,,,,,,,,,,503,19,Man,Right,3,62,0.15,1,180,-,180,2.282662800000253,['n'],0.49380329999985406,1.19,1356.8503299999975,,,,,503,19,Man,Right,
,,,,,,,,,,,,,,,,,503,19,Man,Right,3,61,0.15,2,0,180,180,0.24768150000090827,['n'],0.2231214000021282,1.3719999999999999,1359.3337979999997,,,,,503,19,Man,Right,
,,,,,,,,,,,,,,,,,503,19,Man,Right,3,29,0.4,2,0,180,180,0.3961221999998088,['y'],0.19989200000054552,1.688,1362.1006233999979,,,,,503,19,Man,Right,
,,,,,,,,,,,,,,,,,503,19,Man,Right,3,4,1,1,0,-,180,0.7021849000011571,['y'],0.23199770000064746,1.278,1365.8332808999985,,,,,503,19,Man,Right,
,,,,,,,,,,,,,,,,,503,19,Man,Right,3,36,0.4,1,0,-,0,0.307084300002316,['n'],0.639945800001442,1.708,1368.815812500001,,,,,503,19,Man,Right,
,,,,,,,,,,,,,,,,,503,19,Man,Right,3,19,0.4,2,180,0,0,0.4976729999980307,['y'],0.3759697000023152,1.708,1371.650153399998,,,,,503,19,Man,Right,
,,,,,,,,,,,,,,,,,503,19,Man,Right,3,13,0.4,2,0,180,180,0.5062063000004855,['y'],0.15909900000042398,1.642,1374.249350099999,,,,,503,19,Man,Right,
,,,,,,,,,,,,,,,,,503,19,Man,Right,4,58,0.15,1,180,-,180,0.6027213999986998,['n'],0.11926450000100886,1.642,1374.249350099999,65.0,95.0,55.0,,503,19,Man,Right,
,,,,,,,,,,,,,,,,,503,19,Man,Right,4,24,0.4,1,0,-,180,0.2863934999986668,['n'],0.16759329999695183,1.326,1444.7001777999976,,,,,503,19,Man,Right,
,,,,,,,,,,,,,,,,,503,19,Man,Right,4,52,0.15,1,0,-,180,0.26448249999884865,['n'],0.143989899999724,1.4020000000000001,1447.0326552000006,,,,,503,19,Man,Right,
,,,,,,,,,,,,,,,,,503,19,Man,Right,4,36,0.4,1,0,-,0,0.01658099999986007,['n'],0.8188671000025352,1.318,1449.966940899998,,,,,503,19,Man,Right,
,,,,,,,,,,,,,,,,,503,19,Man,Right,4,32,0.4,1,0,-,0,0.2544893000012962,['n'],0.1115191999997478,1.252,1452.2323958999987,,,,,503,19,Man,Right,
,,,,,,,,,,,,,,,,,503,19,Man,Right,4,50,0.15,1,180,-,180,0.22851319999972475,['y'],0.567620400001033,1.434,1455.4514151000003,,,,,503,19,Man,Right,
,,,,,,,,,,,,,,,,,503,19,Man,Right,4,57,0.15,2,0,180,180,0.14697459999661078,['n'],0.17546539999966626,1.434,1455.4514151000003,,,,,503,19,Man,Right,
,,,,,,,,,,,,,,,,,503,19,Man,Right,4,16,0.4,1,0,-,0,0.6422819000035815,['n'],0.5516796999982034,1.392,1460.9661573999983,,,,,503,19,Man,Right,
,,,,,,,,,,,,,,,,,503,19,Man,Right,4,7,1,2,180,0,0,0.3499483000014152,['y'],0.3356982999976026,1.624,1463.5825568,,,,,503,19,Man,Right,
,,,,,,,,,,,,,,,,,503,19,Man,Right,4,13,0.4,2,0,180,180,0.5347776000016893,['y'],0.3195859000006749,1.626,1466.3156894999993,,,,,503,19,Man,Right,
,,,,,,,,,,,,,,,,,503,19,Man,Right,4,43,0.4,2,180,0,0,0.5766551999986405,['n'],0.32018279999829247,1.362,1469.665678999998,,,,,503,19,Man,Right,
,,,,,,,,,,,,,,,,,503,19,Man,Right,4,54,0.15,1,180,-,180,0.3380144000002474,['n'],0.25527689999944414,1.49,1472.2988148999975,,,,,503,19,Man,Right,
,,,,,,,,,,,,,,,,,503,19,Man,Right,4,39,0.4,2,180,0,0,0.3618276000015612,['y'],0.4639519000011205,1.558,1474.9833155999986,,,,,503,19,Man,Right,
,,,,,,,,,,,,,,,,,503,19,Man,Right,4,5,1,2,0,180,180,0.7631677999997919,['y'],1.935491500000353,1.558,1474.9833155999986,,,,,503,19,Man,Right,
,,,,,,,,,,,,,,,,,503,19,Man,Right,4,79,0.15,2,180,0,180,0.2764008999984071,['n'],0.1998507000025711,1.45,1482.1832632000005,,,,,503,19,Man,Right,
,,,,,,,,,,,,,,,,,503,19,Man,Right,4,12,0.4,1,0,-,0,0.49462900000071386,['n'],0.1598740999979782,1.45,1484.7162494000004,,,,,503,19,Man,Right,
,,,,,,,,,,,,,,,,,503,19,Man,Right,4,66,0.15,1,180,-,180,0.14457720000064,['n'],0.20795309999812162,1.45,1486.9667594999992,,,,,503,19,Man,Right,
,,,,,,,,,,,,,,,,,503,19,Man,Right,4,48,0.15,1,0,-,180,0.24595029999909457,['n'],0.5999172000010731,1.45,1489.7513856000005,,,,,503,19,Man,Right,
,,,,,,,,,,,,,,,,,503,19,Man,Right,4,17,0.4,2,0,180,180,0.46808600000076694,['y'],0.26397740000174963,1.6480000000000001,1492.6831905,,,,,503,19,Man,Right,
,,,,,,,,,,,,,,,,,503,19,Man,Right,4,38,0.4,1,180,-,180,1.0235027999988233,['n'],0.1436370999981591,1.6480000000000001,1495.9002666999986,,,,,503,19,Man,Right,
,,,,,,,,,,,,,,,,,503,19,Man,Right,4,31,0.4,2,180,0,0,0.4247262999997474,['n'],0.4961005000004661,1.6480000000000001,1498.7823282999998,,,,,503,19,Man,Right,
,,,,,,,,,,,,,,,,,503,19,Man,Right,4,23,0.4,2,180,0,0,0.3081188000032853,['n'],0.23988069999904837,1.6480000000000001,1501.3667403,,,,,503,19,Man,Right,
,,,,,,,,,,,,,,,,,503,19,Man,Right,4,41,0.4,2,0,180,180,0.3575654000014765,['n'],0.5037855000009586,1.6480000000000001,1504.132440999998,,,,,503,19,Man,Right,
,,,,,,,,,,,,,,,,,503,19,Man,Right,4,21,0.4,2,0,180,180,0.6152524999997695,['y'],0.46380259999932605,1.62,1507.3322492999978,,,,,503,19,Man,Right,
,,,,,,,,,,,,,,,,,503,19,Man,Right,4,76,0.15,1,0,-,180,0.21641879999879166,['n'],0.19914459999927203,1.616,1509.6325561999984,,,,,503,19,Man,Right,
,,,,,,,,,,,,,,,,,503,19,Man,Right,4,55,0.15,2,180,0,0,0.3877705999984755,['n'],0.15160480000122334,1.3679999999999999,1512.6826406,,,,,503,19,Man,Right,
,,,,,,,,,,,,,,,,,503,19,Man,Right,4,28,0.4,1,0,-,180,0.6332432000017434,['n'],0.24793200000203797,1.3679999999999999,1515.4994210999976,,,,,503,19,Man,Right,
,,,,,,,,,,,,,,,,,503,19,Man,Right,4,9,0.4,2,0,180,180,1.5025585000003048,['y'],0.2161205999982485,1.3679999999999999,1519.2162941999995,,,,,503,19,Man,Right,
,,,,,,,,,,,,,,,,,503,19,Man,Right,4,37,0.4,2,0,180,180,0.31585030000132974,['n'],0.11206469999888213,1.486,1521.533371900001,,,,,503,19,Man,Right,
,,,,,,,,,,,,,,,,,503,19,Man,Right,4,56,0.15,1,0,-,180,0.09645699999964563,['n'],0.12769380000099773,1.486,1523.6322588000003,,,,,503,19,Man,Right,
,,,,,,,,,,,,,,,,,503,19,Man,Right,4,75,0.15,2,180,0,180,0.08315810000203783,['n'],0.1515980000003765,1.568,1525.8498295999998,,,,,503,19,Man,Right,
,,,,,,,,,,,,,,,,,503,19,Man,Right,4,20,0.4,1,0,-,0,0.33975160000045435,['n'],0.21561970000038855,1.374,1528.3167050999982,,,,,503,19,Man,Right,
,,,,,,,,,,,,,,,,,503,19,Man,Right,4,60,0.15,1,0,-,0,0.6152431999980763,['n'],0.13557809999838355,1.32,1531.0660277999996,,,,,503,19,Man,Right,
,,,,,,,,,,,,,,,,,503,19,Man,Right,4,25,0.4,2,0,180,180,0.4642167999991216,['y'],0.2395911999992677,1.458,1533.7494270999996,,,,,503,19,Man,Right,
,,,,,,,,,,,,,,,,,503,19,Man,Right,4,78,0.15,1,180,-,180,0.26559110000016517,['n'],0.23730439999781083,1.47,1536.3833046,,,,,503,19,Man,Right,
,,,,,,,,,,,,,,,,,503,19,Man,Right,4,27,0.4,2,180,0,0,0.2529332999984035,['y'],0.783313800002361,1.43,1539.582725199998,,,,,503,19,Man,Right,
,,,,,,,,,,,,,,,,,503,19,Man,Right,4,14,0.4,1,180,-,180,0.23053369999979623,['n'],0.15189689999897382,1.416,1541.8655154999979,,,,,503,19,Man,Right,
,,,,,,,,,,,,,,,,,503,19,Man,Right,4,46,0.15,1,180,-,180,0.2597129000023415,['n'],0.11134529999981169,1.416,1541.8655154999979,,,,,503,19,Man,Right,
,,,,,,,,,,,,,,,,,503,19,Man,Right,4,59,0.15,2,180,0,180,0.3708640999975614,['n'],0.16012689999843133,1.244,1546.4831591000002,,,,,503,19,Man,Right,
,,,,,,,,,,,,,,,,,503,19,Man,Right,4,49,0.15,2,0,180,180,0.24074839999957476,['n'],0.1278996000000916,1.326,1548.8165885999988,,,,,503,19,Man,Right,
,,,,,,,,,,,,,,,,,503,19,Man,Right,4,68,0.15,1,0,-,180,0.09366550000049756,['n'],0.16764310000144178,1.388,1550.9989616999992,,,,,503,19,Man,Right,
,,,,,,,,,,,,,,,,,503,19,Man,Right,4,72,0.15,1,0,-,180,0.15175099999760278,['n'],0.15192930000193883,1.408,1553.2154727999987,,,,,503,19,Man,Right,
,,,,,,,,,,,,,,,,,503,19,Man,Right,4,63,0.15,2,180,0,180,0.08622630000172649,['n'],0.17593029999989085,1.3980000000000001,1555.365608199998,,,,,503,19,Man,Right,
,,,,,,,,,,,,,,,,,503,19,Man,Right,4,8,0.4,1,0,-,0,0.6869122999996762,['n'],0.2238030999978946,1.366,1558.1995898999994,,,,,503,19,Man,Right,
,,,,,,,,,,,,,,,,,503,19,Man,Right,4,4,1,1,0,-,180,2.622243100002379,['n'],0.8561200999974972,1.564,1563.7488683999982,,,,,503,19,Man,Right,
,,,,,,,,,,,,,,,,,503,19,Man,Right,4,19,0.4,2,180,0,0,0.4058819999991101,['y'],0.27965109999786364,1.672,1566.3830151000002,,,,,503,19,Man,Right,
,,,,,,,,,,,,,,,,,503,19,Man,Right,4,22,0.4,1,180,-,0,0.3515890999988187,['n'],0.8077388999990944,1.6600000000000001,1569.5499178999999,,,,,503,19,Man,Right,
,,,,,,,,,,,,,,,,,503,19,Man,Right,4,77,0.15,2,0,180,0,0.26267730000108713,['n'],0.26403429999845685,1.6400000000000001,1572.049970600001,,,,,503,19,Man,Right,
,,,,,,,,,,,,,,,,,503,19,Man,Right,4,62,0.15,1,180,-,180,0.3166357000009157,['n'],0.19971389999773237,1.42,1574.5835212999991,,,,,503,19,Man,Right,
,,,,,,,,,,,,,,,,,503,19,Man,Right,4,29,0.4,2,0,180,180,0.5913766999983636,['y'],0.1512981999985641,1.42,1574.5835212999991,,,,,503,19,Man,Right,
,,,,,,,,,,,,,,,,,503,19,Man,Right,4,3,1,2,180,0,0,0.26105980000284035,['y'],0.28787739999825135,2.0,1579.7832550999992,,,,,503,19,Man,Right,
,,,,,,,,,,,,,,,,,503,19,Man,Right,4,53,0.15,2,0,180,0,1.3498002000014822,['n'],0.5905749999983527,1.718,1583.832144600001,,,,,503,19,Man,Right,
,,,,,,,,,,,,,,,,,503,19,Man,Right,4,30,0.4,1,180,-,0,0.13984009999694536,['n'],0.1919285999974818,1.448,1586.133153499999,,,,,503,19,Man,Right,
,,,,,,,,,,,,,,,,,503,19,Man,Right,4,11,0.4,2,180,0,0,0.32832289999714703,['n'],0.31924160000198754,1.522,1588.7997546000006,,,,,503,19,Man,Right,
,,,,,,,,,,,,,,,,,503,19,Man,Right,4,71,0.15,2,180,0,180,0.29473919999873033,['n'],0.31986939999842434,1.302,1592.065438499998,,,,,503,19,Man,Right,
,,,,,,,,,,,,,,,,,503,19,Man,Right,4,61,0.15,2,0,180,180,0.21839810000165016,['n'],0.11924390000058338,1.3780000000000001,1594.5829511999982,,,,,503,19,Man,Right,
,,,,,,,,,,,,,,,,,503,19,Man,Right,4,34,0.4,1,180,-,0,0.1994693999986339,['n'],0.14334840000083204,1.366,1596.8492664000005,,,,,503,19,Man,Right,
,,,,,,,,,,,,,,,,,503,19,Man,Right,4,47,0.15,2,180,0,0,0.0979349999979604,['n'],0.31123749999824213,1.304,1599.683012900001,,,,,503,19,Man,Right,
,,,,,,,,,,,,,,,,,503,19,Man,Right,4,0,1,1,0,-,180,0.3150127999979304,['n'],0.1836885999982769,1.304,1599.683012900001,,,,,503,19,Man,Right,
,,,,,,,,,,,,,,,,,503,19,Man,Right,4,65,0.15,2,0,180,180,1.2571032999985619,['y'],0.11137919999964652,1.432,1605.548531299999,,,,,503,19,Man,Right,
,,,,,,,,,,,,,,,,,503,19,Man,Right,4,2,1,1,180,-,0,0.6331038000025728,['n'],0.3034845999973186,1.432,1605.548531299999,,,,,503,19,Man,Right,
,,,,,,,,,,,,,,,,,503,19,Man,Right,4,15,0.4,2,180,0,0,0.5853115999998408,['y'],0.21587920000092709,1.5,1610.7836247999985,,,,,503,19,Man,Right,
,,,,,,,,,,,,,,,,,503,19,Man,Right,4,70,0.15,1,180,-,180,0.18994249999741442,['n'],0.15189110000210349,1.3820000000000001,1613.2322755999994,,,,,503,19,Man,Right,
,,,,,,,,,,,,,,,,,503,19,Man,Right,4,73,0.15,2,0,180,180,0.24540019999767537,['n'],0.19996199999877717,1.3820000000000001,1613.2322755999994,,,,,503,19,Man,Right,
,,,,,,,,,,,,,,,,,503,19,Man,Right,4,10,0.4,1,180,-,0,0.20918849999725353,['n'],0.17529430000286084,1.412,1618.6490292999988,,,,,503,19,Man,Right,
,,,,,,,,,,,,,,,,,503,19,Man,Right,4,45,0.15,2,0,180,0,0.4006478999981482,['n'],0.14382859999750508,1.412,1621.1993805999991,,,,,503,19,Man,Right,
,,,,,,,,,,,,,,,,,503,19,Man,Right,4,40,0.4,1,0,-,180,0.2711854000008316,['y'],0.20762700000341283,1.412,1621.1993805999991,,,,,503,19,Man,Right,
,,,,,,,,,,,,,,,,,503,19,Man,Right,4,1,1,2,0,180,180,0.3235218999980134,['y'],0.22400689999994938,2.0,1626.2329533999982,,,,,503,19,Man,Right,
,,,,,,,,,,,,,,,,,503,19,Man,Right,4,51,0.15,2,180,0,180,2.245187000000442,['n'],0.8555942000020877,1.3860000000000001,1631.3153716999987,,,,,503,19,Man,Right,
,,,,,,,,,,,,,,,,,503,19,Man,Right,4,44,0.15,1,0,-,180,0.04171860000133165,['n'],0.175557899998239,1.408,1633.4164634000008,,,,,503,19,Man,Right,
,,,,,,,,,,,,,,,,,503,19,Man,Right,4,18,0.4,1,180,-,0,0.20566909999979543,['n'],0.13573529999848688,1.408,1633.4164634000008,,,,,503,19,Man,Right,
,,,,,,,,,,,,,,,,,503,19,Man,Right,4,6,1,1,180,-,180,0.5170237000020279,['n'],0.7757999999994354,1.9060000000000001,1639.149604899998,,,,,503,19,Man,Right,
,,,,,,,,,,,,,,,,,503,19,Man,Right,4,69,0.15,2,0,180,0,0.24926309999864316,['n'],0.4463420000029146,1.634,1641.8991257999987,,,,,503,19,Man,Right,
,,,,,,,,,,,,,,,,,503,19,Man,Right,4,64,0.15,1,0,-,180,0.06628450000062003,['n'],0.17595129999972414,1.634,1641.8991257999987,,,,,503,19,Man,Right,
,,,,,,,,,,,,,,,,,503,19,Man,Right,4,74,0.15,1,180,-,180,0.020464899997023167,['n'],0.11951110000154586,1.5,1645.8723394000008,,,,,503,19,Man,Right,
,,,,,,,,,,,,,,,,,503,19,Man,Right,4,35,0.4,2,180,0,0,0.37013849999857484,['y'],0.36732929999925545,1.642,1648.8830328999975,,,,,503,19,Man,Right,
,,,,,,,,,,,,,,,,,503,19,Man,Right,4,26,0.4,1,180,-,180,0.634464000002481,['n'],0.4959944000001997,1.642,1652.081979999999,,,,,503,19,Man,Right,
,,,,,,,,,,,,,,,,,503,19,Man,Right,4,67,0.15,2,180,0,180,0.28341330000330345,['n'],0.19182549999823095,1.642,1652.081979999999,,,,,503,19,Man,Right,
,,,,,,,,,,,,,,,,,503,19,Man,Right,4,42,0.4,1,180,-,180,0.17053599999781,['n'],0.15987519999907818,1.366,1657.3493923999995,,,,,503,19,Man,Right,
,,,,,,,,,,,,,,,,,503,19,Man,Right,4,33,0.4,2,0,180,180,0.5689056000010169,['y'],0.15177419999963604,1.366,1657.3493923999995,,,,,503,19,Man,Right,
,,,,,,,,,,,,,,,,,503,19,Man,Right,5,79,0.15,2,180,0,180,0.3673527999999351,['n'],0.1513122000033036,1.5,1665.5841431000008,62.5,95.0,42.5,,503,19,Man,Right,
,,,,,,,,,,,,,,,,,503,19,Man,Right,5,25,0.4,2,0,180,180,0.6395024000012199,['y'],0.14335169999685604,1.5,1668.2481635000004,,,,,503,19,Man,Right,
,,,,,,,,,,,,,,,,,503,19,Man,Right,5,45,0.15,2,0,180,180,1.2681510000002163,['n'],0.13555769999948097,1.5779999999999998,1671.9158863999983,,,,,503,19,Man,Right,
,,,,,,,,,,,,,,,,,503,19,Man,Right,5,49,0.15,2,0,180,180,0.32419730000037816,['n'],0.2073421999994025,1.3679999999999999,1674.4662957,,,,,503,19,Man,Right,
,,,,,,,,,,,,,,,,,503,19,Man,Right,5,15,0.4,2,180,0,0,0.4420010000030743,['y'],1.247798699998384,1.292,1678.3495574000008,,,,,503,19,Man,Right,
,,,,,,,,,,,,,,,,,503,19,Man,Right,5,46,0.15,1,180,-,180,1.4257980000002135,['n'],0.2554630000013276,1.334,1682.1990518999992,,,,,503,19,Man,Right,
,,,,,,,,,,,,,,,,,503,19,Man,Right,5,58,0.15,1,180,-,180,0.13210649999746238,['n'],0.16774099999747705,1.334,1682.1990518999992,,,,,503,19,Man,Right,
,,,,,,,,,,,,,,,,,503,19,Man,Right,5,19,0.4,2,180,0,180,0.23739349999959813,['n'],0.33601029999772436,1.5739999999999998,1687.0327371999992,,,,,503,19,Man,Right,
,,,,,,,,,,,,,,,,,503,19,Man,Right,5,24,0.4,1,0,-,0,0.2768082000002323,['n'],0.19188669999857666,1.5739999999999998,1689.416498999999,,,,,503,19,Man,Right,
,,,,,,,,,,,,,,,,,503,19,Man,Right,5,56,0.15,1,0,-,0,0.1414952999984962,['n'],0.16790609999952721,1.5739999999999998,1691.6819405999995,,,,,503,19,Man,Right,
,,,,,,,,,,,,,,,,,503,19,Man,Right,5,39,0.4,2,180,0,0,0.40468710000277497,['y'],0.27978670000084094,1.5739999999999998,1694.2823745999995,,,,,503,19,Man,Right,
,,,,,,,,,,,,,,,,,503,19,Man,Right,5,2,1,1,180,-,180,1.1222833000028913,['n'],0.6399625999983982,1.836,1698.3500442999975,,,,,503,19,Man,Right,
,,,,,,,,,,,,,,,,,503,19,Man,Right,5,44,0.15,1,0,-,180,0.20906919999833917,['n'],0.1752548000004026,1.836,1698.3500442999975,,,,,503,19,Man,Right,
,,,,,,,,,,,,,,,,,503,19,Man,Right,5,67,0.15,2,180,0,0,0.29844089999824064,['y'],0.9757062999997288,1.588,1704.6663597000006,,,,,503,19,Man,Right,
,,,,,,,,,,,,,,,,,503,19,Man,Right,5,10,0.4,1,180,-,0,0.33278669999708654,['n'],0.18390480000016396,1.588,1707.298674499998,,,,,503,19,Man,Right,
,,,,,,,,,,,,,,,,,503,19,Man,Right,5,5,1,2,0,180,180,0.42891270000109216,['y'],0.20001769999726093,1.588,1710.2323292,,,,,503,19,Man,Right,
,,,,,,,,,,,,,,,,,503,19,Man,Right,5,77,0.15,2,0,180,180,0.2706085999998322,['n'],0.2960069000000658,1.326,1713.0162333999979,,,,,503,19,Man,Right,
,,,,,,,,,,,,,,,,,503,19,Man,Right,5,32,0.4,1,0,-,180,0.3675165000022389,['n'],0.15129739999974845,1.3319999999999999,1715.4663084999993,,,,,503,19,Man,Right,
,,,,,,,,,,,,,,,,,503,19,Man,Right,5,3,1,2,180,0,0,0.32398669999747653,['y'],0.19972469999993336,1.742,1719.2324260999994,,,,,503,19,Man,Right,
,,,,,,,,,,,,,,,,,503,19,Man,Right,5,70,0.15,1,180,-,180,0.8628196000026946,['n'],0.39953219999733847,1.424,1722.8496768000005,,,,,503,19,Man,Right,
,,,,,,,,,,,,,,,,,503,19,Man,Right,5,61,0.15,2,0,180,0,0.24712520000321092,['n'],0.1761557999998331,1.424,1722.8496768000005,,,,,503,19,Man,Right,
,,,,,,,,,,,,,,,,,503,19,Man,Right,5,42,0.4,1,180,-,180,0.3208382000011625,['n'],0.24818299999969895,1.31,1727.8482603999983,,,,,503,19,Man,Right,
,,,,,,,,,,,,,,,,,503,19,Man,Right,5,14,0.4,1,180,-,180,0.28662310000072466,['n'],0.2394458000017039,1.308,1730.3152014999978,,,,,503,19,Man,Right,
,,,,,,,,,,,,,,,,,503,19,Man,Right,5,18,0.4,1,180,-,0,0.20616030000019236,['n'],0.1915197000016633,1.308,1732.7325017000003,,,,,503,19,Man,Right,
,,,,,,,,,,,,,,,,,503,19,Man,Right,5,74,0.15,1,180,-,0,0.23259549999784213,['n'],0.17589030000090133,1.308,1735.1993526999977,,,,,503,19,Man,Right,
,,,,,,,,,,,,,,,,,503,19,Man,Right,5,52,0.15,1,0,-,0,0.08710470000005444,['n'],0.1515901999991911,1.408,1737.431855499999,,,,,503,19,Man,Right,
,,,,,,,,,,,,,,,,,503,19,Man,Right,5,35,0.4,2,180,0,0,0.6430232000020624,['y'],0.16005330000189133,1.564,1740.1993328999997,,,,,503,19,Man,Right,
,,,,,,,,,,,,,,,,,503,19,Man,Right,5,13,0.4,2,0,180,180,0.5871177999979409,['y'],0.7354911000002176,1.984,1743.6653512999983,,,,,503,19,Man,Right,
,,,,,,,,,,,,,,,,,503,19,Man,Right,5,55,0.15,2,180,0,0,0.6756922999993549,['n'],0.19143650000114576,1.798,1746.565563799999,,,,,503,19,Man,Right,
,,,,,,,,,,,,,,,,,503,19,Man,Right,5,76,0.15,1,0,-,0,0.34360860000015236,['n'],0.14311040000029607,1.642,1749.2495396999984,,,,,503,19,Man,Right,
,,,,,,,,,,,,,,,,,503,19,Man,Right,5,48,0.15,1,0,-,0,1.2058385000018461,['n'],0.3196328000012727,1.446,1752.6985836999993,,,,,503,19,Man,Right,
,,,,,,,,,,,,,,,,,503,19,Man,Right,5,16,0.4,1,0,-,0,0.2272585999999137,['n'],0.30350259999977425,1.714,1755.4328034999999,,,,,503,19,Man,Right,
,,,,,,,,,,,,,,,,,503,19,Man,Right,5,6,1,1,180,-,0,0.4064049000007799,['n'],0.18336679999993066,1.71,1757.9322352999989,,,,,503,19,Man,Right,
,,,,,,,,,,,,,,,,,503,19,Man,Right,5,72,0.15,1,0,-,0,0.27423710000221035,['n'],0.34413990000030026,1.71,1760.4825228000009,,,,,503,19,Man,Right,
,,,,,,,,,,,,,,,,,503,19,Man,Right,5,17,0.4,2,0,180,180,0.41644299999825307,['y'],0.34024499999941327,1.71,1760.4825228000009,,,,,503,19,Man,Right,
,,,,,,,,,,,,,,,,,503,19,Man,Right,5,27,0.4,2,180,0,0,0.24985910000032163,['n'],0.42409520000001066,1.72,1765.8984367999983,,,,,503,19,Man,Right,
,,,,,,,,,,,,,,,,,503,19,Man,Right,5,9,0.4,2,0,180,180,0.7543951000006928,['y'],0.23995259999719565,1.706,1768.7991665000009,,,,,503,19,Man,Right,
,,,,,,,,,,,,,,,,,503,19,Man,Right,5,21,0.4,2,0,180,180,0.5034808999989764,['y'],0.3440253999979177,1.4,1771.9821926999975,,,,,503,19,Man,Right,
,,,,,,,,,,,,,,,,,503,19,Man,Right,5,54,0.15,1,180,-,180,0.2558422000001883,['n'],0.26362760000120034,1.4060000000000001,1774.531841600001,,,,,503,19,Man,Right,
,,,,,,,,,,,,,,,,,503,19,Man,Right,5,65,0.15,2,0,180,180,1.0496853999975428,['n'],0.6940768000022217,1.678,1778.2496310999995,,,,,503,19,Man,Right,
,,,,,,,,,,,,,,,,,503,19,Man,Right,5,31,0.4,2,180,0,0,0.41896229999838397,['y'],0.23202890000175103,1.442,1781.4318514000006,,,,,503,19,Man,Right,
,,,,,,,,,,,,,,,,,503,19,Man,Right,5,71,0.15,2,180,0,180,0.5117382999997062,['n'],0.45624859999952605,1.572,1784.3991490999979,,,,,503,19,Man,Right,
,,,,,,,,,,,,,,,,,503,19,Man,Right,5,26,0.4,1,180,-,180,0.4868592000020726,['n'],0.18360240000038175,1.3900000000000001,1787.1156774999981,,,,,503,19,Man,Right,
,,,,,,,,,,,,,,,,,503,19,Man,Right,5,20,0.4,1,0,-,0,0.2968250000012631,['n'],0.15157080000062706,1.3900000000000001,1789.5827965999997,,,,,503,19,Man,Right,
,,,,,,,,,,,,,,,,,503,19,Man,Right,5,38,0.4,1,180,-,0,0.568694300000061,['n'],0.4157113000001118,1.532,1792.599029099998,,,,,503,19,Man,Right,
,,,,,,,,,,,,,,,,,503,19,Man,Right,5,22,0.4,1,180,-,180,0.3287702999987232,['n'],0.2312443999981042,1.408,1795.4487679999984,,,,,503,19,Man,Right,
,,,,,,,,,,,,,,,,,503,19,Man,Right,5,40,0.4,1,0,-,180,0.22946200000296813,['n'],0.10352309999871068,1.408,1795.4487679999984,,,,,503,19,Man,Right,
,,,,,,,,,,,,,,,,,503,19,Man,Right,5,23,0.4,2,180,0,0,0.3506516000015836,['y'],0.1598292999988189,1.5,1799.809696299999,,,,,503,19,Man,Right,
,,,,,,,,,,,,,,,,,503,19,Man,Right,5,1,1,2,0,180,180,0.3784278000021004,['y'],0.15141709999807063,1.884,1803.0491621,,,,,503,19,Man,Right,
,,,,,,,,,,,,,,,,,503,19,Man,Right,5,66,0.15,1,180,-,180,0.1974764000005962,['n'],0.19178240000110236,1.366,1805.399244100001,,,,,503,19,Man,Right,
,,,,,,,,,,,,,,,,,503,19,Man,Right,5,8,0.4,1,0,-,180,0.27301530000113416,['n'],0.16785709999749088,1.362,1807.7655330999987,,,,,503,19,Man,Right,
,,,,,,,,,,,,,,,,,503,19,Man,Right,5,37,0.4,2,0,180,180,0.3543428999983007,['y'],0.1838813000031223,1.692,1810.2321593999986,,,,,503,19,Man,Right,
,,,,,,,,,,,,,,,,,503,19,Man,Right,5,33,0.4,2,0,180,180,0.2623373000024003,['n'],0.23153839999940828,1.72,1812.6483936999975,,,,,503,19,Man,Right,
,,,,,,,,,,,,,,,,,503,19,Man,Right,5,12,0.4,1,0,-,180,0.31678249999822583,['n'],0.42390750000049593,1.716,1815.3989196000002,,,,,503,19,Man,Right,
,,,,,,,,,,,,,,,,,503,19,Man,Right,5,51,0.15,2,180,0,180,0.27991300000212505,['n'],0.2077595000009751,1.154,1817.782825899998,,,,,503,19,Man,Right,
,,,,,,,,,,,,,,,,,503,19,Man,Right,5,0,1,1,0,-,0,1.7920654000008653,['n'],1.2954239999999118,1.6320000000000001,1823.0821001000004,,,,,503,19,Man,Right,
,,,,,,,,,,,,,,,,,503,19,Man,Right,5,30,0.4,1,180,-,180,0.22222900000269874,['n'],0.3752457999980834,1.724,1825.6821735999984,,,,,503,19,Man,Right,
,,,,,,,,,,,,,,,,,503,19,Man,Right,5,36,0.4,1,0,-,180,0.2385097999977006,['n'],0.19149470000047586,1.362,1828.1163775999994,,,,,503,19,Man,Right,
,,,,,,,,,,,,,,,,,503,19,Man,Right,5,11,0.4,2,180,0,0,1.7095244000011007,['n'],0.3030729000020074,1.318,1832.0318120999982,,,,,503,19,Man,Right,
,,,,,,,,,,,,,,,,,503,19,Man,Right,5,75,0.15,2,180,0,180,0.5558962000031897,['n'],0.20783079999819165,1.274,1834.732458800001,,,,,503,19,Man,Right,
,,,,,,,,,,,,,,,,,503,19,Man,Right,5,43,0.4,2,180,0,0,0.3094617999995535,['n'],0.44814920000135317,1.694,1837.7828098999998,,,,,503,19,Man,Right,
,,,,,,,,,,,,,,,,,503,19,Man,Right,5,41,0.4,2,0,180,180,0.6646460000010848,['y'],0.1677270000000135,1.698,1840.6155689999978,,,,,503,19,Man,Right,
,,,,,,,,,,,,,,,,,503,19,Man,Right,5,60,0.15,1,0,-,180,0.24835170000005746,['n'],0.1512750000001688,1.224,1842.8495083999987,,,,,503,19,Man,Right,
,,,,,,,,,,,,,,,,,503,19,Man,Right,5,28,0.4,1,0,-,0,1.4307641999985208,['n'],0.23199659999954747,1.388,1846.6339189999999,,,,,503,19,Man,Right,
,,,,,,,,,,,,,,,,,503,19,Man,Right,5,78,0.15,1,180,-,180,0.1042078999998921,['n'],0.10340580000047339,1.388,1846.6339189999999,,,,,503,19,Man,Right,
,,,,,,,,,,,,,,,,,503,19,Man,Right,5,69,0.15,2,0,180,0,0.016704900001059286,['n'],0.1305861000000732,1.24,1850.8152642999994,,,,,503,19,Man,Right,
,,,,,,,,,,,,,,,,,503,19,Man,Right,5,50,0.15,1,180,-,180,0.2246331000023929,['n'],0.1523047000009683,1.276,1853.0484499999984,,,,,503,19,Man,Right,
,,,,,,,,,,,,,,,,,503,19,Man,Right,5,34,0.4,1,180,-,180,0.15081909999935306,['n'],0.1112226000004739,1.276,1853.0484499999984,,,,,503,19,Man,Right,
,,,,,,,,,,,,,,,,,503,19,Man,Right,5,4,1,1,0,-,180,1.076630200001091,['y'],0.3031307999990531,1.756,1858.5156151999981,,,,,503,19,Man,Right,
,,,,,,,,,,,,,,,,,503,19,Man,Right,5,47,0.15,2,180,0,180,0.0901637999995728,['n'],0.19997809999767924,1.756,1858.5156151999981,,,,,503,19,Man,Right,
,,,,,,,,,,,,,,,,,503,19,Man,Right,5,68,0.15,1,0,-,180,0.0500038999998651,['n'],0.16798740000012913,1.5,1862.650104100001,,,,,503,19,Man,Right,
,,,,,,,,,,,,,,,,,503,19,Man,Right,5,57,0.15,2,0,180,0,0.11946999999781838,['n'],0.18403979999857256,1.5,1864.802241999998,,,,,503,19,Man,Right,
,,,,,,,,,,,,,,,,,503,19,Man,Right,5,63,0.15,2,180,0,180,0.16113550000227406,['n'],0.14365060000272933,1.5,1866.970218800001,,,,,503,19,Man,Right,
,,,,,,,,,,,,,,,,,503,19,Man,Right,5,59,0.15,2,180,0,0,0.2838040999995428,['n'],0.16770749999705004,1.338,1869.5159238999986,,,,,503,19,Man,Right,
,,,,,,,,,,,,,,,,,503,19,Man,Right,5,53,0.15,2,0,180,180,0.06036179999864544,['n'],0.11980019999828073,1.308,1871.6159321999985,,,,,503,19,Man,Right,
,,,,,,,,,,,,,,,,,503,19,Man,Right,5,64,0.15,1,0,-,0,0.29584719999911613,['n'],0.15965520000099787,1.314,1873.9817552999993,,,,,503,19,Man,Right,
,,,,,,,,,,,,,,,,,503,19,Man,Right,5,62,0.15,1,180,-,180,0.9953753999980108,['n'],0.46331070000087493,1.6280000000000001,1877.298833599998,,,,,503,19,Man,Right,
,,,,,,,,,,,,,,,,,503,19,Man,Right,5,7,1,2,180,0,0,0.23583809999763616,['y'],0.19961120000152732,2.0,1879.9495728000002,,,,,503,19,Man,Right,
,,,,,,,,,,,,,,,,,503,19,Man,Right,5,29,0.4,2,0,180,180,0.6020500999984506,['y'],0.19148459999996703,1.84,1882.8659015999983,,,,,503,19,Man,Right,
,,,,,,,,,,,,,,,,,503,19,Man,Right,5,73,0.15,2,0,180,0,0.13100639999902342,['n'],0.1519055999997363,1.506,1885.131645999998,,,,,503,19,Man,Right,
,,,,,,,,,,,,,,,,,,,,,,,,,,,,,,,,,68.75,97.5,45.0,1672.631132999999,,,,,
