p_block,p_section,p_coherence,p_direction1,p_direction2,p_direction_response,p_direction_RT,p_change_response,p_change_RT,p_confidence,p_full_correct,p_without5_correct,p_full_total,p_without5_total,p_full_avg,p_witout5_avg,p_total_time,sub,age,sex,handedness,loop,trial randomization,coherence,condition,direction1,direction2,direction_response,direction_RT,change_response,change_RT,change_confidence,change_confidence_RT,block_direction_avg,block_stable_avg,block_change_avg,total_time,sub,age,sex,handedness,
1,1,1.0,180,-,180,1.1382245000022522,-,-,-,,,,,,,,507,18,Woman,Left,,,,,,,,,,,,,,,,,507,18,Woman,Left,
1,1,1.0,180,-,180,0.029836000001523644,-,-,-,,,,,,,,507,18,Woman,Left,,,,,,,,,,,,,,,,,507,18,Woman,Left,
1,1,1.0,180,-,180,0.016625700001895893,-,-,-,,,,,,,,507,18,Woman,Left,,,,,,,,,,,,,,,,,507,18,Woman,Left,
1,1,1.0,180,-,180,4.394742099997529,-,-,-,,,,,,,,507,18,Woman,Left,,,,,,,,,,,,,,,,,507,18,Woman,Left,
1,1,1.0,0,-,0,0.01678660000106902,-,-,-,,,,,,,,507,18,Woman,Left,,,,,,,,,,,,,,,,,507,18,Woman,Left,
1,1,1.0,180,-,180,0.016870300001755822,-,-,-,,,,,,,,507,18,Woman,Left,,,,,,,,,,,,,,,,,507,18,Woman,Left,
1,1,1.0,180,-,180,0.016805200000817422,-,-,-,,,,,,,,507,18,Woman,Left,,,,,,,,,,,,,,,,,507,18,Woman,Left,
1,1,1.0,0,-,0,0.017267399998672772,-,-,-,,,,,,,,507,18,Woman,Left,,,,,,,,,,,,,,,,,507,18,Woman,Left,
1,1,1.0,180,-,180,0.016049000001657987,-,-,-,,,,,,,,507,18,Woman,Left,,,,,,,,,,,,,,,,,507,18,Woman,Left,
1,1,1.0,180,-,180,1.139392000000953,-,-,-,10,10,10,10,1.0,1.0,,507,18,Woman,Left,,,,,,,,,,,,,,,,,507,18,Woman,Left,
2,1,0.4,0,-,0,0.4002385999992839,-,-,-,,,,,,,,507,18,Woman,Left,,,,,,,,,,,,,,,,,507,18,Woman,Left,
2,1,0.4,0,-,0,0.016832799999974668,-,-,-,,,,,,,,507,18,Woman,Left,,,,,,,,,,,,,,,,,507,18,Woman,Left,
2,1,0.15,0,-,0,0.017090200002712663,-,-,-,,,,,,,,507,18,Woman,Left,,,,,,,,,,,,,,,,,507,18,Woman,Left,
2,1,0.15,180,-,180,0.016855699999723583,-,-,-,,,,,,,,507,18,Woman,Left,,,,,,,,,,,,,,,,,507,18,Woman,Left,
2,1,0.15,180,-,180,0.2554941999987932,-,-,-,,,,,,,,507,18,Woman,Left,,,,,,,,,,,,,,,,,507,18,Woman,Left,
2,1,0.15,0,-,0,0.07091050000235555,-,-,-,,,,,,,,507,18,Woman,Left,,,,,,,,,,,,,,,,,507,18,Woman,Left,
2,1,0.4,180,-,180,0.016762999999627937,-,-,-,,,,,,,,507,18,Woman,Left,,,,,,,,,,,,,,,,,507,18,Woman,Left,
2,1,0.15,180,-,180,0.14435799999773735,-,-,-,,,,,,,,507,18,Woman,Left,,,,,,,,,,,,,,,,,507,18,Woman,Left,
2,1,0.4,0,-,0,0.07734030000210623,-,-,-,,,,,,,,507,18,Woman,Left,,,,,,,,,,,,,,,,,507,18,Woman,Left,
2,1,0.4,180,-,180,0.016654000002745306,-,-,-,10,5,10,5,1.0,1.0,,507,18,Woman,Left,,,,,,,,,,,,,,,,,507,18,Woman,Left,
3,2,1.0,180,0,0,4.182622600001196,['y'],5.313192000001436,2.0,,,,,,,,507,18,Woman,Left,,,,,,,,,,,,,,,,,507,18,Woman,Left,
3,2,1.0,180,0,0,2.042596399998729,['y'],1.384293000002799,2.0,,,,,,,,507,18,Woman,Left,,,,,,,,,,,,,,,,,507,18,Woman,Left,
3,2,1.0,180,0,0,0.8811466000006476,['y'],1.6052492000017082,1.92,,,,,,,,507,18,Woman,Left,,,,,,,,,,,,,,,,,507,18,Woman,Left,
3,2,1.0,0,180,180,1.262634500002605,['y'],1.1482317000009061,2.0,,,,,,,,507,18,Woman,Left,,,,,,,,,,,,,,,,,507,18,Woman,Left,
3,2,1.0,0,180,180,0.5491914999984147,['y'],0.34317420000297716,2.0,,,,,,,,507,18,Woman,Left,,,,,,,,,,,,,,,,,507,18,Woman,Left,
3,2,1.0,180,0,0,0.8259456999985559,['y'],1.2491609999997308,2.0,,,,,,,,507,18,Woman,Left,,,,,,,,,,,,,,,,,507,18,Woman,Left,
3,2,1.0,180,0,0,0.49508980000246083,['y'],1.7159922999999253,2.0,,,,,,,,507,18,Woman,Left,,,,,,,,,,,,,,,,,507,18,Woman,Left,
3,2,1.0,0,180,180,0.4976131000003079,['y'],1.013904300001741,2.0,,,,,,,,507,18,Woman,Left,,,,,,,,,,,,,,,,,507,18,Woman,Left,
3,2,1.0,180,0,0,0.5054722999993828,['y'],0.36456340000222553,2.0,,,,,,,,507,18,Woman,Left,,,,,,,,,,,,,,,,,507,18,Woman,Left,
3,2,1.0,180,0,0,0.4882982000017364,['y'],1.5966771999992488,2.0,10,10,10,10,1.0,1.0,,507,18,Woman,Left,,,,,,,,,,,,,,,,,507,18,Woman,Left,
4,2,0.4,0,180,180,1.2795173000013165,['y'],0.6687964000011561,1.9,,,,,,,,507,18,Woman,Left,,,,,,,,,,,,,,,,,507,18,Woman,Left,
4,2,0.4,180,0,0,0.6202927000013005,['y'],0.30656979999912437,2.0,,,,,,,,507,18,Woman,Left,,,,,,,,,,,,,,,,,507,18,Woman,Left,
4,2,0.4,180,0,0,0.2827724000017042,['y'],0.26889650000157417,2.0,,,,,,,,507,18,Woman,Left,,,,,,,,,,,,,,,,,507,18,Woman,Left,
4,2,0.15,0,180,180,6.211928499997157,['n'],2.8036223000017344,1.1480000000000001,,,,,,,,507,18,Woman,Left,,,,,,,,,,,,,,,,,507,18,Woman,Left,
4,2,0.15,0,180,180,1.0282211999983701,['y'],1.9401030000008177,1.5859999999999999,,,,,,,,507,18,Woman,Left,,,,,,,,,,,,,,,,,507,18,Woman,Left,
4,2,0.15,180,0,0,2.0247462000006635,['y'],0.5107543999984046,1.802,,,,,,,,507,18,Woman,Left,,,,,,,,,,,,,,,,,507,18,Woman,Left,
4,2,0.4,0,180,180,0.6584994000004372,['y'],0.30497319999994943,2.0,,,,,,,,507,18,Woman,Left,,,,,,,,,,,,,,,,,507,18,Woman,Left,
4,2,0.4,0,180,180,0.7992849000002025,['y'],0.28468989999964833,2.0,,,,,,,,507,18,Woman,Left,,,,,,,,,,,,,,,,,507,18,Woman,Left,
4,2,0.15,180,0,0,0.5668337999995856,['y'],0.2640793999999005,2.0,,,,,,,,507,18,Woman,Left,,,,,,,,,,,,,,,,,507,18,Woman,Left,
4,2,0.4,0,180,180,0.3013578999998572,['y'],0.2814531000003626,2.0,10,6,10,6,1.0,1.0,,507,18,Woman,Left,,,,,,,,,,,,,,,,,507,18,Woman,Left,
5,3,1.0,0,180,180,0.3905620000005001,['y'],0.26329059999989113,2.0,,,,,,,,507,18,Woman,Left,,,,,,,,,,,,,,,,,507,18,Woman,Left,
5,3,1.0,180,-,180,1.5481261000022641,['n'],0.8313081999986025,2.0,,,,,,,,507,18,Woman,Left,,,,,,,,,,,,,,,,,507,18,Woman,Left,
5,3,0.15,0,180,180,1.0663337999976648,['n'],1.0962545999973372,1.202,,,,,,,,507,18,Woman,Left,,,,,,,,,,,,,,,,,507,18,Woman,Left,
5,3,0.4,0,180,180,0.7318201000016415,['y'],0.20737219999864465,2.0,,,,,,,,507,18,Woman,Left,,,,,,,,,,,,,,,,,507,18,Woman,Left,
5,3,1.0,180,-,180,0.8238957000030496,['n'],0.37577170000076876,2.0,,,,,,,,507,18,Woman,Left,,,,,,,,,,,,,,,,,507,18,Woman,Left,
5,3,1.0,0,180,180,0.5733366000022215,['y'],0.1753949999983888,2.0,,,,,,,,507,18,Woman,Left,,,,,,,,,,,,,,,,,507,18,Woman,Left,
5,3,1.0,0,180,180,2.4460591999995813,['y'],0.30935200000021723,2.0,,,,,,,,507,18,Woman,Left,,,,,,,,,,,,,,,,,507,18,Woman,Left,
5,3,0.4,0,180,180,1.0174900999991223,['y'],0.24982639999871026,1.422,,,,,,,,507,18,Woman,Left,,,,,,,,,,,,,,,,,507,18,Woman,Left,
5,3,0.4,180,0,0,0.4263518000007025,['y'],0.2986845000014,2.0,,,,,,,,507,18,Woman,Left,,,,,,,,,,,,,,,,,507,18,Woman,Left,
5,3,0.15,0,-,180,1.1716362000006484,['y'],0.7977592999995977,1.376,9,8,10,8,0.9,1.0,,507,18,Woman,Left,,,,,,,,,,,,,,,,,507,18,Woman,Left,
,,,,,,,,,,,,,,,,5.40000110049732e-06,507,18,Woman,Left,,,,,,,,,,,,,,,,,507,18,Woman,Left,
,,,,,,,,,,,,,,,,,507,18,Woman,Left,0,15,0.4,2,180,0,0,0.9692740999998932,['y'],2.4530960000010964,2.0,326.2655309999973,,,,,507,18,Woman,Left,
,,,,,,,,,,,,,,,,,507,18,Woman,Left,0,7,1,2,180,0,0,0.34588450000228477,['y'],1.301235100003396,2.0,331.0993398999999,,,,,507,18,Woman,Left,
,,,,,,,,,,,,,,,,,507,18,Woman,Left,0,60,0.15,1,0,-,180,1.7191096000024118,['n'],2.2696008999992046,1.244,339.9830435999975,,,,,507,18,Woman,Left,
,,,,,,,,,,,,,,,,,507,18,Woman,Left,0,68,0.15,1,0,-,0,2.5535882000003767,['n'],4.629380700000183,1.282,350.91598019999947,,,,,507,18,Woman,Left,
,,,,,,,,,,,,,,,,,507,18,Woman,Left,0,62,0.15,1,180,-,180,2.43856660000165,['n'],2.525402400002349,1.416,360.34945519999746,,,,,507,18,Woman,Left,
,,,,,,,,,,,,,,,,,507,18,Woman,Left,0,14,0.4,1,180,-,180,1.1936582999987877,['n'],1.9971938999988197,1.73,366.91530189999685,,,,,507,18,Woman,Left,
,,,,,,,,,,,,,,,,,507,18,Woman,Left,0,77,0.15,2,0,180,180,0.7937658999981068,['n'],2.1978230999993684,1.5779999999999998,375.2982983999973,,,,,507,18,Woman,Left,
,,,,,,,,,,,,,,,,,507,18,Woman,Left,0,13,0.4,2,0,180,180,1.0081325999999535,['y'],5.573877799997717,2.0,386.3652112999989,,,,,507,18,Woman,Left,
,,,,,,,,,,,,,,,,,507,18,Woman,Left,0,29,0.4,2,0,180,180,0.5712018999984139,['y'],2.2615808000009565,2.0,392.5822092999988,,,,,507,18,Woman,Left,
,,,,,,,,,,,,,,,,,507,18,Woman,Left,0,52,0.15,1,0,-,0,1.333774300001096,['n'],8.573513700001058,1.0,406.0151353000001,,,,,507,18,Woman,Left,
,,,,,,,,,,,,,,,,,507,18,Woman,Left,0,61,0.15,2,0,180,180,1.5220798999980616,['n'],1.0211720000006608,1.73,411.49899249999726,,,,,507,18,Woman,Left,
,,,,,,,,,,,,,,,,,507,18,Woman,Left,0,51,0.15,2,180,0,180,0.5980777000004309,['n'],1.2616806999976689,1.57,416.7992348999978,,,,,507,18,Woman,Left,
,,,,,,,,,,,,,,,,,507,18,Woman,Left,0,59,0.15,2,180,0,0,1.113322799999878,['y'],1.7579568999972253,1.682,423.5821477999998,,,,,507,18,Woman,Left,
,,,,,,,,,,,,,,,,,507,18,Woman,Left,0,35,0.4,2,180,0,0,0.6187922999997681,['y'],4.061672799998632,2.0,431.46464489999926,,,,,507,18,Woman,Left,
,,,,,,,,,,,,,,,,,507,18,Woman,Left,0,57,0.15,2,0,180,180,0.4023018999978376,['y'],1.2300482999999076,2.0,436.06507749999946,,,,,507,18,Woman,Left,
,,,,,,,,,,,,,,,,,507,18,Woman,Left,0,65,0.15,2,0,180,180,1.098036500003218,['n'],1.8538863000030688,1.608,442.69854359999954,,,,,507,18,Woman,Left,
,,,,,,,,,,,,,,,,,507,18,Woman,Left,0,38,0.4,1,180,-,180,0.6024741000001086,['y'],1.277382000000216,1.702,448.4316758999994,,,,,507,18,Woman,Left,
,,,,,,,,,,,,,,,,,507,18,Woman,Left,0,70,0.15,1,180,-,0,2.5963291999978537,['n'],1.15027629999895,1.4140000000000001,455.68235659999846,,,,,507,18,Woman,Left,
,,,,,,,,,,,,,,,,,507,18,Woman,Left,0,17,0.4,2,0,180,180,1.1782929000000877,['y'],1.437623399997392,2.0,461.09865119999813,,,,,507,18,Woman,Left,
,,,,,,,,,,,,,,,,,507,18,Woman,Left,0,26,0.4,1,180,-,180,0.7652990000024147,['n'],1.1257502000007662,2.0,465.89811049999844,,,,,507,18,Woman,Left,
,,,,,,,,,,,,,,,,,507,18,Woman,Left,0,69,0.15,2,0,180,180,0.4882956000001286,['y'],0.8781901000002108,2.0,470.2823533999981,,,,,507,18,Woman,Left,
,,,,,,,,,,,,,,,,,507,18,Woman,Left,0,41,0.4,2,0,180,180,1.1056558999989647,['y'],0.5257660999996006,2.0,474.86493319999863,,,,,507,18,Woman,Left,
,,,,,,,,,,,,,,,,,507,18,Woman,Left,0,27,0.4,2,180,0,0,0.45111919999908423,['y'],0.9260329999997339,2.0,478.98206789999676,,,,,507,18,Woman,Left,
,,,,,,,,,,,,,,,,,507,18,Woman,Left,0,6,1,1,180,-,180,0.66891140000007,['n'],1.7178951999994752,2.0,484.3484310999993,,,,,507,18,Woman,Left,
,,,,,,,,,,,,,,,,,507,18,Woman,Left,0,37,0.4,2,0,180,180,0.9460825999994995,['y'],1.1415869000011298,2.0,489.28203679999933,,,,,507,18,Woman,Left,
,,,,,,,,,,,,,,,,,507,18,Woman,Left,0,45,0.15,2,0,180,180,2.0485450999985915,['n'],1.9017480000002251,1.634,496.1319192999981,,,,,507,18,Woman,Left,
,,,,,,,,,,,,,,,,,507,18,Woman,Left,0,78,0.15,1,180,-,0,3.871497599997383,['n'],2.158093900001404,1.3639999999999999,505.1656325999975,,,,,507,18,Woman,Left,
,,,,,,,,,,,,,,,,,507,18,Woman,Left,0,25,0.4,2,0,180,180,0.4237671999981103,['y'],0.8862566999996488,2.0,510.21386639999764,,,,,507,18,Woman,Left,
,,,,,,,,,,,,,,,,,507,18,Woman,Left,0,12,0.4,1,0,-,0,2.1825758000013593,['n'],1.6700635999986844,1.596,518.1316469999983,,,,,507,18,Woman,Left,
,,,,,,,,,,,,,,,,,507,18,Woman,Left,0,23,0.4,2,180,0,0,0.6329146999996738,['y'],0.9098935000001802,2.0,522.3650136999968,,,,,507,18,Woman,Left,
,,,,,,,,,,,,,,,,,507,18,Woman,Left,0,54,0.15,1,180,-,0,1.222331299999496,['n'],1.581899799999519,1.6219999999999999,531.0470918999999,,,,,507,18,Woman,Left,
,,,,,,,,,,,,,,,,,507,18,Woman,Left,0,42,0.4,1,180,-,180,1.0881474999987404,['n'],1.2618904999981169,1.76,536.4315250999971,,,,,507,18,Woman,Left,
,,,,,,,,,,,,,,,,,507,18,Woman,Left,0,71,0.15,2,180,0,180,0.9164802000013879,['n'],1.210914600000251,1.456,542.2645937999987,,,,,507,18,Woman,Left,
,,,,,,,,,,,,,,,,,507,18,Woman,Left,0,43,0.4,2,180,0,0,0.540809199999785,['y'],1.1666394999992917,2.0,546.9981755999979,,,,,507,18,Woman,Left,
,,,,,,,,,,,,,,,,,507,18,Woman,Left,0,36,0.4,1,0,-,0,1.2066094999972847,['n'],1.4784781000016665,1.892,552.7649689999998,,,,,507,18,Woman,Left,
,,,,,,,,,,,,,,,,,507,18,Woman,Left,0,53,0.15,2,0,180,180,1.7217362000010326,['y'],1.0865494000026956,1.6059999999999999,558.7310507999973,,,,,507,18,Woman,Left,
,,,,,,,,,,,,,,,,,507,18,Woman,Left,0,20,0.4,1,0,-,0,1.1182838000022457,['n'],1.3743059000007634,1.692,565.5303950999987,,,,,507,18,Woman,Left,
,,,,,,,,,,,,,,,,,507,18,Woman,Left,0,72,0.15,1,0,-,0,1.2440783999991254,['n'],2.030307500001072,1.608,572.3648198999981,,,,,507,18,Woman,Left,
,,,,,,,,,,,,,,,,,507,18,Woman,Left,0,18,0.4,1,180,-,180,1.993315399999119,['n'],3.798407900001621,1.21,581.6140577999977,,,,,507,18,Woman,Left,
,,,,,,,,,,,,,,,,,507,18,Woman,Left,0,8,0.4,1,0,-,0,0.8041517000019667,['n'],1.174393000001146,1.3599999999999999,586.5646934999968,,,,,507,18,Woman,Left,
,,,,,,,,,,,,,,,,,507,18,Woman,Left,0,66,0.15,1,180,-,0,0.7280786000010266,['n'],6.110497000001487,1.424,596.6305940999991,,,,,507,18,Woman,Left,
,,,,,,,,,,,,,,,,,507,18,Woman,Left,0,55,0.15,2,180,0,180,2.2775461000019277,['n'],2.341878100000031,1.312,604.3810070999971,,,,,507,18,Woman,Left,
,,,,,,,,,,,,,,,,,507,18,Woman,Left,0,58,0.15,1,180,-,180,0.4592343999975128,['n'],4.278028000000631,1.338,612.2639045999967,,,,,507,18,Woman,Left,
,,,,,,,,,,,,,,,,,507,18,Woman,Left,0,46,0.15,1,180,-,180,3.458620699999301,['n'],2.573972900001536,1.172,622.3808560999969,,,,,507,18,Woman,Left,
,,,,,,,,,,,,,,,,,507,18,Woman,Left,0,48,0.15,1,0,-,180,0.7301451999992423,['n'],3.758266300003015,1.208,630.6477305999979,,,,,507,18,Woman,Left,
,,,,,,,,,,,,,,,,,507,18,Woman,Left,0,1,1,2,0,180,180,0.8475796999991871,['y'],1.358836200000951,2.0,636.2806892999979,,,,,507,18,Woman,Left,
,,,,,,,,,,,,,,,,,507,18,Woman,Left,0,24,0.4,1,0,-,0,0.874829000000318,['n'],0.9022169999989273,2.0,641.1968734999973,,,,,507,18,Woman,Left,
,,,,,,,,,,,,,,,,,507,18,Woman,Left,0,0,1,1,0,-,0,0.3944218999968143,['n'],1.0067219000011391,2.0,645.4301083999999,,,,,507,18,Woman,Left,
,,,,,,,,,,,,,,,,,507,18,Woman,Left,0,63,0.15,2,180,0,180,0.88883050000004,['n'],1.1503537999997206,1.698,650.1973710999991,,,,,507,18,Woman,Left,
,,,,,,,,,,,,,,,,,507,18,Woman,Left,0,10,0.4,1,180,-,180,0.549221099998249,['n'],0.8707816999994975,1.972,654.6632395999986,,,,,507,18,Woman,Left,
,,,,,,,,,,,,,,,,,507,18,Woman,Left,0,22,0.4,1,180,-,180,1.7143140000007406,['n'],0.9822196000022814,1.9020000000000001,661.7309858999979,,,,,507,18,Woman,Left,
,,,,,,,,,,,,,,,,,507,18,Woman,Left,0,79,0.15,2,180,0,0,0.9733306000016455,['y'],1.2627229999998235,1.986,666.8634142999981,,,,,507,18,Woman,Left,
,,,,,,,,,,,,,,,,,507,18,Woman,Left,0,2,1,1,180,-,180,0.3810152999976708,['y'],1.6704125000032946,1.086,673.8796223999998,,,,,507,18,Woman,Left,
,,,,,,,,,,,,,,,,,507,18,Woman,Left,0,30,0.4,1,180,-,180,0.647676100001263,['n'],0.934635999998136,1.972,678.8639609999991,,,,,507,18,Woman,Left,
,,,,,,,,,,,,,,,,,507,18,Woman,Left,0,73,0.15,2,0,180,180,1.208350299999438,['y'],1.1185995000014373,1.718,684.5635332999991,,,,,507,18,Woman,Left,
,,,,,,,,,,,,,,,,,507,18,Woman,Left,0,74,0.15,1,180,-,0,0.8682265000024927,['n'],5.04683870000008,1.38,693.9138734999979,,,,,507,18,Woman,Left,
,,,,,,,,,,,,,,,,,507,18,Woman,Left,0,40,0.4,1,0,-,0,0.8259948999984772,['n'],3.110309199997573,1.1440000000000001,700.8965798999998,,,,,507,18,Woman,Left,
,,,,,,,,,,,,,,,,,507,18,Woman,Left,0,50,0.15,1,180,-,180,0.38704710000092746,['y'],1.5746564000000944,1.838,706.3957344999981,,,,,507,18,Woman,Left,
,,,,,,,,,,,,,,,,,507,18,Woman,Left,0,19,0.4,2,180,0,0,0.43547810000018217,['y'],1.318931199999497,2.0,711.2965049999984,,,,,507,18,Woman,Left,
,,,,,,,,,,,,,,,,,507,18,Woman,Left,0,5,1,2,0,180,180,0.5198204000007536,['y'],1.1026782000008097,2.0,715.6295266999987,,,,,507,18,Woman,Left,
,,,,,,,,,,,,,,,,,507,18,Woman,Left,0,9,0.4,2,0,180,180,0.4557917999991332,['y'],1.0708330000015849,2.0,719.963487099998,,,,,507,18,Woman,Left,
,,,,,,,,,,,,,,,,,507,18,Woman,Left,0,75,0.15,2,180,0,0,0.8582065999980841,['y'],0.9826484999975946,2.0,724.2796152999981,,,,,507,18,Woman,Left,
,,,,,,,,,,,,,,,,,507,18,Woman,Left,0,49,0.15,2,0,180,180,0.426231800000096,['y'],1.1584335000006831,2.0,728.6796643999987,,,,,507,18,Woman,Left,
,,,,,,,,,,,,,,,,,507,18,Woman,Left,0,33,0.4,2,0,180,180,0.4022082000010414,['y'],1.2384381000010762,2.0,733.1967899999981,,,,,507,18,Woman,Left,
,,,,,,,,,,,,,,,,,507,18,Woman,Left,0,76,0.15,1,0,-,0,1.0332931999982975,['n'],1.062807399997837,1.338,738.046831599997,,,,,507,18,Woman,Left,
,,,,,,,,,,,,,,,,,507,18,Woman,Left,0,32,0.4,1,0,-,0,0.7109142000008433,['n'],0.966578200001095,1.686,743.7633636999999,,,,,507,18,Woman,Left,
,,,,,,,,,,,,,,,,,507,18,Woman,Left,0,47,0.15,2,180,0,180,0.7847622999979649,['n'],1.0146627999965858,1.404,748.4963911999985,,,,,507,18,Woman,Left,
,,,,,,,,,,,,,,,,,507,18,Woman,Left,0,28,0.4,1,0,-,0,1.192909299999883,['n'],1.5507423999988532,1.6520000000000001,753.9632502999993,,,,,507,18,Woman,Left,
,,,,,,,,,,,,,,,,,507,18,Woman,Left,0,64,0.15,1,0,-,0,0.6818406999991566,['n'],3.278605899999093,1.638,761.529831099997,,,,,507,18,Woman,Left,
,,,,,,,,,,,,,,,,,507,18,Woman,Left,0,21,0.4,2,0,180,180,0.6551929999986896,['y'],0.8793989999976475,2.0,766.5127102999977,,,,,507,18,Woman,Left,
,,,,,,,,,,,,,,,,,507,18,Woman,Left,0,39,0.4,2,180,0,0,0.6827279000026465,['y'],1.0711009000006015,2.0,771.345592499998,,,,,507,18,Woman,Left,
,,,,,,,,,,,,,,,,,507,18,Woman,Left,0,31,0.4,2,180,0,0,0.3451271000012639,['y'],0.9907192999999097,2.0,775.5625457999995,,,,,507,18,Woman,Left,
,,,,,,,,,,,,,,,,,507,18,Woman,Left,0,56,0.15,1,0,-,180,0.547962100001314,['n'],1.0951406000021962,1.822,780.8298734999989,,,,,507,18,Woman,Left,
,,,,,,,,,,,,,,,,,507,18,Woman,Left,0,16,0.4,1,0,-,0,0.9710794000020542,['n'],2.630851399997482,1.556,787.8293058999989,,,,,507,18,Woman,Left,
,,,,,,,,,,,,,,,,,507,18,Woman,Left,0,11,0.4,2,180,0,0,0.46204150000266964,['y'],1.43865519999963,2.0,792.7297401999967,,,,,507,18,Woman,Left,
,,,,,,,,,,,,,,,,,507,18,Woman,Left,0,67,0.15,2,180,0,180,1.2852691000007326,['n'],0.8707537000009324,1.27,798.1798834999972,,,,,507,18,Woman,Left,
,,,,,,,,,,,,,,,,,507,18,Woman,Left,0,34,0.4,1,180,-,0,0.8130001999998058,['n'],0.9831817000012961,1.29,803.0459897999972,,,,,507,18,Woman,Left,
,,,,,,,,,,,,,,,,,507,18,Woman,Left,0,3,1,2,180,0,0,0.6503300000003946,['y'],0.8025940000006813,2.0,807.2452134999985,,,,,507,18,Woman,Left,
,,,,,,,,,,,,,,,,,507,18,Woman,Left,0,44,0.15,1,0,-,0,0.8681756999976642,['n'],2.782777000000351,1.63,813.7624574999973,,,,,507,18,Woman,Left,
,,,,,,,,,,,,,,,,,507,18,Woman,Left,0,4,1,1,0,-,0,1.4407089999986056,['n'],0.751177900001494,2.0,818.8126277999982,,,,,507,18,Woman,Left,
,,,,,,,,,,,,,,,,,507,18,Woman,Left,1,44,0.15,1,0,-,180,0.816264000000956,['n'],1.5650659999992058,1.27,847.3116026999996,81.25,92.5,75.0,,507,18,Woman,Left,
,,,,,,,,,,,,,,,,,507,18,Woman,Left,1,18,0.4,1,180,-,180,0.6947923999978229,['n'],1.0074748000006366,2.0,852.0788381999992,,,,,507,18,Woman,Left,
,,,,,,,,,,,,,,,,,507,18,Woman,Left,1,65,0.15,2,0,180,180,2.1535605000026408,['n'],2.4307957000019087,2.0,859.8953113999996,,,,,507,18,Woman,Left,
,,,,,,,,,,,,,,,,,507,18,Woman,Left,1,50,0.15,1,180,-,180,0.9432285000002594,['n'],0.4469853999980842,1.74,864.3950269999987,,,,,507,18,Woman,Left,
,,,,,,,,,,,,,,,,,507,18,Woman,Left,1,2,1,1,180,-,180,0.32905460000256426,['n'],1.7752962999984447,1.802,871.8125349999973,,,,,507,18,Woman,Left,
,,,,,,,,,,,,,,,,,507,18,Woman,Left,1,61,0.15,2,0,180,0,1.4719097999986843,['n'],5.415503000000172,1.764,881.912283499998,,,,,507,18,Woman,Left,
,,,,,,,,,,,,,,,,,507,18,Woman,Left,1,49,0.15,2,0,180,0,0.8458852999974624,['n'],1.9674180000001797,1.302,887.5623622999992,,,,,507,18,Woman,Left,
,,,,,,,,,,,,,,,,,507,18,Woman,Left,1,66,0.15,1,180,-,180,3.2993401999992784,['n'],1.5155912000009266,1.266,896.0947981999998,,,,,507,18,Woman,Left,
,,,,,,,,,,,,,,,,,507,18,Woman,Left,1,20,0.4,1,0,-,0,0.6990488000010373,['n'],0.7030199999971956,1.8479999999999999,900.6447687,,,,,507,18,Woman,Left,
,,,,,,,,,,,,,,,,,507,18,Woman,Left,1,3,1,2,180,0,0,0.4363675999993575,['y'],3.007632200002263,2.0,907.4118941999986,,,,,507,18,Woman,Left,
,,,,,,,,,,,,,,,,,507,18,Woman,Left,1,55,0.15,2,180,0,0,1.0269311999982165,['y'],0.8310795000033977,2.0,912.0617391999986,,,,,507,18,Woman,Left,
,,,,,,,,,,,,,,,,,507,18,Woman,Left,1,8,0.4,1,0,-,0,0.366304899998795,['n'],1.3117985999997472,2.0,916.3954545999986,,,,,507,18,Woman,Left,
,,,,,,,,,,,,,,,,,507,18,Woman,Left,1,30,0.4,1,180,-,180,0.9215731000003871,['n'],0.8789867000014056,2.0,921.1112192999972,,,,,507,18,Woman,Left,
,,,,,,,,,,,,,,,,,507,18,Woman,Left,1,73,0.15,2,0,180,180,1.146392200000264,['n'],0.7275298999993538,1.616,926.8954688999984,,,,,507,18,Woman,Left,
,,,,,,,,,,,,,,,,,507,18,Woman,Left,1,11,0.4,2,180,0,0,0.9640422000011313,['y'],0.5995590000020457,2.0,932.3616507999977,,,,,507,18,Woman,Left,
,,,,,,,,,,,,,,,,,507,18,Woman,Left,1,28,0.4,1,0,-,0,1.8692871999992349,['y'],1.8556697000021813,1.826,940.595357299997,,,,,507,18,Woman,Left,
,,,,,,,,,,,,,,,,,507,18,Woman,Left,1,58,0.15,1,180,-,0,0.9113453000027221,['y'],2.6955703999992693,1.908,947.1444128999974,,,,,507,18,Woman,Left,
,,,,,,,,,,,,,,,,,507,18,Woman,Left,1,39,0.4,2,180,0,0,0.43321300000025076,['y'],1.0071697999992466,2.0,952.0618839999988,,,,,507,18,Woman,Left,
,,,,,,,,,,,,,,,,,507,18,Woman,Left,1,45,0.15,2,0,180,180,0.5993283999996493,['y'],2.5857114999998885,2.0,958.1119053999973,,,,,507,18,Woman,Left,
,,,,,,,,,,,,,,,,,507,18,Woman,Left,1,70,0.15,1,180,-,180,1.3084926000010455,['n'],0.8238176999984717,1.4020000000000001,963.5285546999985,,,,,507,18,Woman,Left,
,,,,,,,,,,,,,,,,,507,18,Woman,Left,1,33,0.4,2,0,180,180,0.47824889999901643,['y'],0.7832411999988835,2.0,967.6286201999974,,,,,507,18,Woman,Left,
,,,,,,,,,,,,,,,,,507,18,Woman,Left,1,0,1,1,0,-,0,0.5196462000021711,['n'],0.6397772999989684,2.0,971.4280841,,,,,507,18,Woman,Left,
,,,,,,,,,,,,,,,,,507,18,Woman,Left,1,34,0.4,1,180,-,180,0.4051605999993626,['n'],1.2875009999988833,2.0,976.1275227999977,,,,,507,18,Woman,Left,
,,,,,,,,,,,,,,,,,507,18,Woman,Left,1,6,1,1,180,-,180,0.27789670000129263,['n'],0.5118092999982764,2.0,979.7443662999976,,,,,507,18,Woman,Left,
,,,,,,,,,,,,,,,,,507,18,Woman,Left,1,64,0.15,1,0,-,180,0.6017661000005319,['n'],2.7755724000016926,1.704,986.3448772999982,,,,,507,18,Woman,Left,
,,,,,,,,,,,,,,,,,507,18,Woman,Left,1,74,0.15,1,180,-,180,0.2969468000010238,['n'],2.5279193999995186,1.638,992.0278217999985,,,,,507,18,Woman,Left,
,,,,,,,,,,,,,,,,,507,18,Woman,Left,1,19,0.4,2,180,0,0,0.5937673000007635,['y'],0.9836491999994905,2.0,996.3443559999978,,,,,507,18,Woman,Left,
,,,,,,,,,,,,,,,,,507,18,Woman,Left,1,24,0.4,1,0,-,180,1.4423754999988887,['y'],0.6711410999996588,2.0,1001.643763,,,,,507,18,Woman,Left,
,,,,,,,,,,,,,,,,,507,18,Woman,Left,1,77,0.15,2,0,180,180,1.5997614999978396,['y'],1.1687315000017406,1.8,1010.9776223999979,,,,,507,18,Woman,Left,
,,,,,,,,,,,,,,,,,507,18,Woman,Left,1,78,0.15,1,180,-,180,0.7493410999995831,['y'],1.8076279000015347,2.0,1016.310273199997,,,,,507,18,Woman,Left,
,,,,,,,,,,,,,,,,,507,18,Woman,Left,1,62,0.15,1,180,-,180,1.9824293999990914,['y'],1.1033580000002985,1.684,1023.4445005999987,,,,,507,18,Woman,Left,
,,,,,,,,,,,,,,,,,507,18,Woman,Left,1,4,1,1,0,-,0,0.6466159999981755,['n'],1.4238874000002397,2.0,1028.4614005000003,,,,,507,18,Woman,Left,
,,,,,,,,,,,,,,,,,507,18,Woman,Left,1,68,0.15,1,0,-,0,0.9430122000012489,['n'],1.503574700000172,1.3719999999999999,1034.0781126999973,,,,,507,18,Woman,Left,
,,,,,,,,,,,,,,,,,507,18,Woman,Left,1,75,0.15,2,180,0,0,0.7378228999987186,['n'],4.111465900001349,1.294,1042.2776429999976,,,,,507,18,Woman,Left,
,,,,,,,,,,,,,,,,,507,18,Woman,Left,1,22,0.4,1,180,-,180,0.5291519999991579,['n'],1.2553641000013158,1.744,1046.9111299999968,,,,,507,18,Woman,Left,
,,,,,,,,,,,,,,,,,507,18,Woman,Left,1,79,0.15,2,180,0,0,1.922516300001007,['y'],1.663549900000362,1.242,1054.144041399999,,,,,507,18,Woman,Left,
,,,,,,,,,,,,,,,,,507,18,Woman,Left,1,53,0.15,2,0,180,180,1.1156976999991457,['y'],0.7673748000015621,2.0,1058.677415799997,,,,,507,18,Woman,Left,
,,,,,,,,,,,,,,,,,507,18,Woman,Left,1,5,1,2,0,180,180,0.88010629999917,['y'],0.519382599999517,2.0,1062.8105268,,,,,507,18,Woman,Left,
,,,,,,,,,,,,,,,,,507,18,Woman,Left,1,29,0.4,2,0,180,180,0.2745859999995446,['y'],0.6237120000005234,2.0,1066.4770121999973,,,,,507,18,Woman,Left,
,,,,,,,,,,,,,,,,,507,18,Woman,Left,1,23,0.4,2,180,0,0,0.5839980999990075,['y'],0.6635701999985031,2.0,1070.4276028999993,,,,,507,18,Woman,Left,
,,,,,,,,,,,,,,,,,507,18,Woman,Left,1,52,0.15,1,0,-,0,0.9973547999979928,['n'],0.4715187000001606,1.778,1075.027105199999,,,,,507,18,Woman,Left,
,,,,,,,,,,,,,,,,,507,18,Woman,Left,1,9,0.4,2,0,180,180,0.995691899999656,['y'],0.6318018999991182,2.0,1079.5268761999978,,,,,507,18,Woman,Left,
,,,,,,,,,,,,,,,,,507,18,Woman,Left,1,14,0.4,1,180,-,180,0.5325768000002427,['n'],0.6316656000017247,2.0,1083.2445060999999,,,,,507,18,Woman,Left,
,,,,,,,,,,,,,,,,,507,18,Woman,Left,1,41,0.4,2,0,180,180,0.4298004000011133,['y'],0.8160677999985637,2.0,1087.1944083999988,,,,,507,18,Woman,Left,
,,,,,,,,,,,,,,,,,507,18,Woman,Left,1,26,0.4,1,180,-,180,0.2643423999979859,['n'],0.4799977999973635,2.0,1090.4935259999984,,,,,507,18,Woman,Left,
,,,,,,,,,,,,,,,,,507,18,Woman,Left,1,57,0.15,2,0,180,180,1.2688112999967416,['y'],0.4236425999988569,1.83,1094.9437397999973,,,,,507,18,Woman,Left,
,,,,,,,,,,,,,,,,,507,18,Woman,Left,1,10,0.4,1,180,-,180,0.39327400000183843,['n'],0.6638927000021795,1.854,1098.8439478999971,,,,,507,18,Woman,Left,
,,,,,,,,,,,,,,,,,507,18,Woman,Left,1,76,0.15,1,0,-,0,2.2447004999994533,['n'],1.6322519999994256,1.318,1109.1105930999984,,,,,507,18,Woman,Left,
,,,,,,,,,,,,,,,,,507,18,Woman,Left,1,63,0.15,2,180,0,180,0.7944018000016513,['n'],2.271792199997435,1.758,1114.8605972999976,,,,,507,18,Woman,Left,
,,,,,,,,,,,,,,,,,507,18,Woman,Left,1,69,0.15,2,0,180,0,0.6143182000014349,['n'],1.743857699999353,1.23,1120.210485399999,,,,,507,18,Woman,Left,
,,,,,,,,,,,,,,,,,507,18,Woman,Left,1,59,0.15,2,180,0,180,1.3583354000002146,['n'],1.3358525000003283,1.324,1126.6607753999997,,,,,507,18,Woman,Left,
,,,,,,,,,,,,,,,,,507,18,Woman,Left,1,16,0.4,1,0,-,0,1.7319821999990381,['y'],0.5044414000003599,1.638,1131.5764077999993,,,,,507,18,Woman,Left,
,,,,,,,,,,,,,,,,,507,18,Woman,Left,1,43,0.4,2,180,0,0,1.2158983000008448,['y'],0.42711599999893224,1.94,1137.1936586999982,,,,,507,18,Woman,Left,
,,,,,,,,,,,,,,,,,507,18,Woman,Left,1,31,0.4,2,180,0,0,0.6669244000004255,['y'],0.3748148000013316,2.0,1141.2603744999979,,,,,507,18,Woman,Left,
,,,,,,,,,,,,,,,,,507,18,Woman,Left,1,51,0.15,2,180,0,0,0.5052045999982511,['y'],0.4158812999994552,2.0,1145.4603740999992,,,,,507,18,Woman,Left,
,,,,,,,,,,,,,,,,,507,18,Woman,Left,1,27,0.4,2,180,0,0,0.17157620000216411,['y'],0.33642840000175056,2.0,1149.2103446,,,,,507,18,Woman,Left,
,,,,,,,,,,,,,,,,,507,18,Woman,Left,1,60,0.15,1,0,-,180,1.069828800002142,['n'],0.5918208999974013,1.37,1154.193606599998,,,,,507,18,Woman,Left,
,,,,,,,,,,,,,,,,,507,18,Woman,Left,1,35,0.4,2,180,0,0,0.47630349999963073,['y'],0.28825399999914225,2.0,1157.5928902999985,,,,,507,18,Woman,Left,
,,,,,,,,,,,,,,,,,507,18,Woman,Left,1,21,0.4,2,0,180,180,0.3354609999987588,['y'],1.2086366000003181,2.0,1161.9760511999993,,,,,507,18,Woman,Left,
,,,,,,,,,,,,,,,,,507,18,Woman,Left,1,47,0.15,2,180,0,0,0.63290440000128,['y'],0.3919291999991401,2.0,1165.776121699997,,,,,507,18,Woman,Left,
,,,,,,,,,,,,,,,,,507,18,Woman,Left,1,72,0.15,1,0,-,0,0.5142121999997471,['y'],1.0322835999977542,2.0,1169.9605888999977,,,,,507,18,Woman,Left,
,,,,,,,,,,,,,,,,,507,18,Woman,Left,1,17,0.4,2,0,180,180,0.5943944999999076,['y'],0.24775080000108574,2.0,1174.0602470999984,,,,,507,18,Woman,Left,
,,,,,,,,,,,,,,,,,507,18,Woman,Left,1,7,1,2,180,0,0,0.39844689999881666,['y'],1.4006231999992451,2.0,1179.343297899999,,,,,507,18,Woman,Left,
,,,,,,,,,,,,,,,,,507,18,Woman,Left,1,54,0.15,1,180,-,180,0.6465428000010434,['n'],1.4643991999982973,1.358,1184.6929729000003,,,,,507,18,Woman,Left,
,,,,,,,,,,,,,,,,,507,18,Woman,Left,1,36,0.4,1,0,-,0,0.6238241999999445,['n'],0.56829099999959,2.0,1188.609309399999,,,,,507,18,Woman,Left,
,,,,,,,,,,,,,,,,,507,18,Woman,Left,1,37,0.4,2,0,180,180,0.6662010000000009,['y'],0.6862564999973984,2.0,1192.6931435999977,,,,,507,18,Woman,Left,
,,,,,,,,,,,,,,,,,507,18,Woman,Left,1,42,0.4,1,180,-,180,0.3667269999968994,['n'],0.5598409999984142,2.0,1196.6760528999985,,,,,507,18,Woman,Left,
,,,,,,,,,,,,,,,,,507,18,Woman,Left,1,13,0.4,2,0,180,180,1.0064308000000892,['y'],0.6557941999999457,2.0,1201.2766999999985,,,,,507,18,Woman,Left,
,,,,,,,,,,,,,,,,,507,18,Woman,Left,1,56,0.15,1,0,-,180,1.3010938000006718,['n'],1.0565251000007265,1.6,1206.826218299997,,,,,507,18,Woman,Left,
,,,,,,,,,,,,,,,,,507,18,Woman,Left,1,15,0.4,2,180,0,0,0.3721256999997422,['y'],0.39217009999993024,2.0,1210.226238799998,,,,,507,18,Woman,Left,
,,,,,,,,,,,,,,,,,507,18,Woman,Left,1,71,0.15,2,180,0,0,0.9227830999989237,['y'],0.6484668999983114,1.646,1214.3933739999993,,,,,507,18,Woman,Left,
,,,,,,,,,,,,,,,,,507,18,Woman,Left,1,67,0.15,2,180,0,0,1.1941259000013815,['n'],0.7363262999970175,1.69,1219.259532,,,,,507,18,Woman,Left,
,,,,,,,,,,,,,,,,,507,18,Woman,Left,1,12,0.4,1,0,-,0,0.9574227000011888,['n'],0.5203277000000526,1.776,1223.3263900999991,,,,,507,18,Woman,Left,
,,,,,,,,,,,,,,,,,507,18,Woman,Left,1,48,0.15,1,0,-,0,1.1353009999984351,['n'],2.352609500001563,1.312,1230.0260237000002,,,,,507,18,Woman,Left,
,,,,,,,,,,,,,,,,,507,18,Woman,Left,1,25,0.4,2,0,180,180,0.8277879000015673,['y'],0.6643062000002828,1.718,1234.6760872999985,,,,,507,18,Woman,Left,
,,,,,,,,,,,,,,,,,507,18,Woman,Left,1,40,0.4,1,0,-,180,2.1032235999991826,['n'],1.1121117999973649,1.254,1240.8259015000003,,,,,507,18,Woman,Left,
,,,,,,,,,,,,,,,,,507,18,Woman,Left,1,1,1,2,0,180,180,0.4193955000009737,['y'],0.5684505000026547,2.0,1245.2596570999995,,,,,507,18,Woman,Left,
,,,,,,,,,,,,,,,,,507,18,Woman,Left,1,38,0.4,1,180,-,180,0.38070499999957974,['n'],0.35241269999824,2.0,1249.742954199999,,,,,507,18,Woman,Left,
,,,,,,,,,,,,,,,,,507,18,Woman,Left,1,46,0.15,1,180,-,0,1.0712581999978283,['n'],1.8729222000001755,1.168,1255.3595131000002,,,,,507,18,Woman,Left,
,,,,,,,,,,,,,,,,,507,18,Woman,Left,1,32,0.4,1,0,-,0,0.5275187000006554,['n'],0.9680752999993274,2.0,1259.5597050999968,,,,,507,18,Woman,Left,
,,,,,,,,,,,,,,,,,507,18,Woman,Left,2,24,0.4,1,0,-,0,0.4260047999996459,['n'],1.736239599998953,1.8519999999999999,1276.0429377999972,83.75,82.5,77.5,,507,18,Woman,Left,
,,,,,,,,,,,,,,,,,507,18,Woman,Left,2,0,1,1,0,-,0,0.39681290000226,['n'],1.2403419000002032,2.0,1281.1755118999972,,,,,507,18,Woman,Left,
,,,,,,,,,,,,,,,,,507,18,Woman,Left,2,71,0.15,2,180,0,180,1.055745500001649,['n'],0.61671479999859,2.0,1285.3750631999974,,,,,507,18,Woman,Left,
,,,,,,,,,,,,,,,,,507,18,Woman,Left,2,13,0.4,2,0,180,180,0.6221579000011843,['y'],0.496459899997717,2.0,1289.042515899997,,,,,507,18,Woman,Left,
,,,,,,,,,,,,,,,,,507,18,Woman,Left,2,62,0.15,1,180,-,180,0.7385962999978801,['n'],0.3765267999988282,1.928,1292.6092047999991,,,,,507,18,Woman,Left,
,,,,,,,,,,,,,,,,,507,18,Woman,Left,2,41,0.4,2,0,180,180,0.5681112000020221,['y'],1.2884549999980663,1.762,1297.5751310999985,,,,,507,18,Woman,Left,
,,,,,,,,,,,,,,,,,507,18,Woman,Left,2,67,0.15,2,180,0,0,0.8228573000014876,['y'],0.2807190999992599,1.85,1301.4751013999994,,,,,507,18,Woman,Left,
,,,,,,,,,,,,,,,,,507,18,Woman,Left,2,76,0.15,1,0,-,180,0.9099413999974786,['n'],0.6566622999998799,1.714,1305.6256231999978,,,,,507,18,Woman,Left,
,,,,,,,,,,,,,,,,,507,18,Woman,Left,2,46,0.15,1,180,-,180,0.5594205000015791,['n'],0.8088255000002391,1.67,1309.6925684999987,,,,,507,18,Woman,Left,
,,,,,,,,,,,,,,,,,507,18,Woman,Left,2,9,0.4,2,0,180,180,0.8534944999992149,['y'],0.40056580000236863,1.792,1313.5923597999972,,,,,507,18,Woman,Left,
,,,,,,,,,,,,,,,,,507,18,Woman,Left,2,3,1,2,180,0,0,0.4725359000003664,['y'],0.6488963999981934,2.0,1317.3748132999972,,,,,507,18,Woman,Left,
,,,,,,,,,,,,,,,,,507,18,Woman,Left,2,28,0.4,1,0,-,0,1.678561600001558,['n'],0.3444019999988086,1.6440000000000001,1321.8586990999975,,,,,507,18,Woman,Left,
,,,,,,,,,,,,,,,,,507,18,Woman,Left,2,64,0.15,1,0,-,180,1.7452583000012964,['n'],1.12849709999864,1.6320000000000001,1327.5427472999982,,,,,507,18,Woman,Left,
,,,,,,,,,,,,,,,,,507,18,Woman,Left,2,16,0.4,1,0,-,0,0.628573799996957,['n'],0.2882214999990538,1.718,1331.1092398999972,,,,,507,18,Woman,Left,
,,,,,,,,,,,,,,,,,507,18,Woman,Left,2,26,0.4,1,180,-,180,1.2454873000024236,['n'],0.5362247000011848,1.944,1336.274613999998,,,,,507,18,Woman,Left,
,,,,,,,,,,,,,,,,,507,18,Woman,Left,2,44,0.15,1,0,-,0,1.0846420999987458,['n'],0.5366801999989548,1.58,1340.5749454999968,,,,,507,18,Woman,Left,
,,,,,,,,,,,,,,,,,507,18,Woman,Left,2,72,0.15,1,0,-,0,1.0565817999995488,['n'],0.4165973000017402,1.626,1344.608644099997,,,,,507,18,Woman,Left,
,,,,,,,,,,,,,,,,,507,18,Woman,Left,2,20,0.4,1,0,-,180,0.6110841999980039,['n'],0.7686955999997735,1.6179999999999999,1348.9424765000003,,,,,507,18,Woman,Left,
,,,,,,,,,,,,,,,,,507,18,Woman,Left,2,17,0.4,2,0,180,180,0.44619070000044303,['y'],0.5206346000013582,2.0,1352.557983499999,,,,,507,18,Woman,Left,
,,,,,,,,,,,,,,,,,507,18,Woman,Left,2,37,0.4,2,0,180,180,0.3326632999996946,['y'],0.6883821000010357,2.0,1356.4245003999968,,,,,507,18,Woman,Left,
,,,,,,,,,,,,,,,,,507,18,Woman,Left,2,52,0.15,1,0,-,180,0.7220981999998912,['n'],0.824601000000257,1.418,1361.275779599997,,,,,507,18,Woman,Left,
,,,,,,,,,,,,,,,,,507,18,Woman,Left,2,49,0.15,2,0,180,0,0.8079593000002205,['n'],3.680980400000408,1.72,1368.3747001999982,,,,,507,18,Woman,Left,
,,,,,,,,,,,,,,,,,507,18,Woman,Left,2,66,0.15,1,180,-,0,0.6616762000012386,['n'],1.6811428000000888,1.3639999999999999,1373.4418673,,,,,507,18,Woman,Left,
,,,,,,,,,,,,,,,,,507,18,Woman,Left,2,61,0.15,2,0,180,0,0.46612889999960316,['n'],1.204700700000103,1.8599999999999999,1377.9259007999972,,,,,507,18,Woman,Left,
,,,,,,,,,,,,,,,,,507,18,Woman,Left,2,27,0.4,2,180,0,0,0.540599399999337,['y'],1.4410058000030403,2.0,1382.4745057,,,,,507,18,Woman,Left,
,,,,,,,,,,,,,,,,,507,18,Woman,Left,2,53,0.15,2,0,180,180,0.6256258000030357,['n'],1.7126981000001251,1.302,1388.092315599999,,,,,507,18,Woman,Left,
,,,,,,,,,,,,,,,,,507,18,Woman,Left,2,43,0.4,2,180,0,0,0.9121500000001106,['y'],0.488754499998322,2.0,1391.9248021999992,,,,,507,18,Woman,Left,
,,,,,,,,,,,,,,,,,507,18,Woman,Left,2,70,0.15,1,180,-,180,1.064298900000722,['n'],6.825081100003445,1.33,1403.6409002999972,,,,,507,18,Woman,Left,
,,,,,,,,,,,,,,,,,507,18,Woman,Left,2,75,0.15,2,180,0,0,0.5423040999994555,['y'],1.3688363000001118,2.0,1407.907449299997,,,,,507,18,Woman,Left,
,,,,,,,,,,,,,,,,,507,18,Woman,Left,2,79,0.15,2,180,0,180,0.6022091999984696,['n'],2.5212513000005856,1.862,1413.675021799998,,,,,507,18,Woman,Left,
,,,,,,,,,,,,,,,,,507,18,Woman,Left,2,51,0.15,2,180,0,0,0.8072145000005548,['y'],0.41737300000022515,1.786,1417.741912399997,,,,,507,18,Woman,Left,
,,,,,,,,,,,,,,,,,507,18,Woman,Left,2,18,0.4,1,180,-,180,0.8239009999997506,['n'],0.20872529999905964,1.746,1421.8081110999992,,,,,507,18,Woman,Left,
,,,,,,,,,,,,,,,,,507,18,Woman,Left,2,11,0.4,2,180,0,0,0.4014177999997628,['y'],2.0091011000004073,2.0,1427.5408728999973,,,,,507,18,Woman,Left,
,,,,,,,,,,,,,,,,,507,18,Woman,Left,2,48,0.15,1,0,-,180,1.4727067999992869,['n'],0.3608077000026242,1.6360000000000001,1432.1412544999985,,,,,507,18,Woman,Left,
,,,,,,,,,,,,,,,,,507,18,Woman,Left,2,7,1,2,180,0,0,0.4389740000005986,['y'],0.6251067000011972,2.0,1435.6407368999971,,,,,507,18,Woman,Left,
,,,,,,,,,,,,,,,,,507,18,Woman,Left,2,78,0.15,1,180,-,180,1.4992502000022796,['n'],1.0169373999997333,1.55,1441.7245805999992,,,,,507,18,Woman,Left,
,,,,,,,,,,,,,,,,,507,18,Woman,Left,2,74,0.15,1,180,-,180,0.900892899997416,['n'],2.377292999997735,1.982,1447.8911794999985,,,,,507,18,Woman,Left,
,,,,,,,,,,,,,,,,,507,18,Woman,Left,2,4,1,1,0,-,0,0.34348420000242186,['n'],1.2328084000000672,2.0,1452.3583125999976,,,,,507,18,Woman,Left,
,,,,,,,,,,,,,,,,,507,18,Woman,Left,2,42,0.4,1,180,-,180,1.4228469999980007,['n'],0.3608494000000064,2.0,1456.8247883999975,,,,,507,18,Woman,Left,
,,,,,,,,,,,,,,,,,507,18,Woman,Left,2,60,0.15,1,0,-,0,0.7851536000016495,['n'],0.4413119999990158,1.696,1460.657629199999,,,,,507,18,Woman,Left,
,,,,,,,,,,,,,,,,,507,18,Woman,Left,2,55,0.15,2,180,0,0,0.4759326000021247,['n'],1.4091351000024588,1.696,1465.0743121999985,,,,,507,18,Woman,Left,
,,,,,,,,,,,,,,,,,507,18,Woman,Left,2,65,0.15,2,0,180,0,0.383457100000669,['n'],1.665069599999697,1.63,1469.8240262,,,,,507,18,Woman,Left,
,,,,,,,,,,,,,,,,,507,18,Woman,Left,2,1,1,2,0,180,180,0.6665785000004689,['y'],0.7453529999984312,2.0,1474.8076556999986,,,,,507,18,Woman,Left,
,,,,,,,,,,,,,,,,,507,18,Woman,Left,2,12,0.4,1,0,-,0,0.7581086999998661,['n'],0.22520430000076885,2.0,1478.4242559999984,,,,,507,18,Woman,Left,
,,,,,,,,,,,,,,,,,507,18,Woman,Left,2,5,1,2,0,180,180,0.42960650000168243,['y'],1.3295006999978796,2.0,1482.9082409000002,,,,,507,18,Woman,Left,
,,,,,,,,,,,,,,,,,507,18,Woman,Left,2,36,0.4,1,0,-,0,0.4561978000019735,['n'],1.161007000002428,2.0,1487.9737153999995,,,,,507,18,Woman,Left,
,,,,,,,,,,,,,,,,,507,18,Woman,Left,2,45,0.15,2,0,180,0,0.908622099999775,['n'],2.081114799999341,1.8439999999999999,1496.2740272999981,,,,,507,18,Woman,Left,
,,,,,,,,,,,,,,,,,507,18,Woman,Left,2,68,0.15,1,0,-,0,0.3708182999980636,['n'],0.9773504000004323,1.608,1501.3245371999983,,,,,507,18,Woman,Left,
,,,,,,,,,,,,,,,,,507,18,Woman,Left,2,10,0.4,1,180,-,180,1.967272399997455,['n'],5.096919799998432,1.84,1512.440730299997,,,,,507,18,Woman,Left,
,,,,,,,,,,,,,,,,,507,18,Woman,Left,2,54,0.15,1,180,-,180,0.28390349999972386,['n'],0.35314329999891925,1.976,1515.690801599998,,,,,507,18,Woman,Left,
,,,,,,,,,,,,,,,,,507,18,Woman,Left,2,40,0.4,1,0,-,0,0.7006036000020686,['n'],0.6655829000010272,2.0,1519.674037599998,,,,,507,18,Woman,Left,
,,,,,,,,,,,,,,,,,507,18,Woman,Left,2,14,0.4,1,180,-,180,0.20214760000089882,['n'],0.3775854999985313,2.0,1522.7915945999994,,,,,507,18,Woman,Left,
,,,,,,,,,,,,,,,,,507,18,Woman,Left,2,15,0.4,2,180,0,0,0.4460032000024512,['n'],0.8497540999997,1.0,1528.0920974,,,,,507,18,Woman,Left,
,,,,,,,,,,,,,,,,,507,18,Woman,Left,2,56,0.15,1,0,-,0,1.6730430999996315,['n'],0.2332644000016444,1.5979999999999999,1533.107208399997,,,,,507,18,Woman,Left,
,,,,,,,,,,,,,,,,,507,18,Woman,Left,2,35,0.4,2,180,0,0,0.8172498999992968,['y'],0.4893479999991541,1.672,1537.0238959999988,,,,,507,18,Woman,Left,
,,,,,,,,,,,,,,,,,507,18,Woman,Left,2,32,0.4,1,0,-,0,0.9952856999989308,['n'],0.3372934000035457,1.658,1540.8231285999973,,,,,507,18,Woman,Left,
,,,,,,,,,,,,,,,,,507,18,Woman,Left,2,50,0.15,1,180,-,0,0.7480361999987508,['n'],1.225812799999403,1.444,1546.1244377000003,,,,,507,18,Woman,Left,
,,,,,,,,,,,,,,,,,507,18,Woman,Left,2,8,0.4,1,0,-,0,0.24382839999816497,['n'],0.42545479999898816,1.762,1549.6076412000002,,,,,507,18,Woman,Left,
,,,,,,,,,,,,,,,,,507,18,Woman,Left,2,73,0.15,2,0,180,0,2.4787618999980623,['n'],0.4816955999995116,1.5859999999999999,1554.9731121999976,,,,,507,18,Woman,Left,
,,,,,,,,,,,,,,,,,507,18,Woman,Left,2,47,0.15,2,180,0,180,0.40229489999910584,['n'],0.697345900000073,1.692,1560.1236777999984,,,,,507,18,Woman,Left,
,,,,,,,,,,,,,,,,,507,18,Woman,Left,2,58,0.15,1,180,-,180,0.33767989999978454,['n'],0.5938483999998425,1.736,1563.7730972999998,,,,,507,18,Woman,Left,
,,,,,,,,,,,,,,,,,507,18,Woman,Left,2,25,0.4,2,0,180,180,0.5238973000014084,['y'],0.7377799000023515,2.0,1568.0908303999968,,,,,507,18,Woman,Left,
,,,,,,,,,,,,,,,,,507,18,Woman,Left,2,22,0.4,1,180,-,180,0.819377899999381,['n'],0.5856832999998005,2.0,1572.4565780999983,,,,,507,18,Woman,Left,
,,,,,,,,,,,,,,,,,507,18,Woman,Left,2,39,0.4,2,180,0,0,0.4508476000009978,['y'],0.47338220000165165,2.0,1576.5407503999995,,,,,507,18,Woman,Left,
,,,,,,,,,,,,,,,,,507,18,Woman,Left,2,63,0.15,2,180,0,0,0.8104286000016145,['y'],0.22578749999956926,2.0,1580.3066295999997,,,,,507,18,Woman,Left,
,,,,,,,,,,,,,,,,,507,18,Woman,Left,2,6,1,1,180,-,180,0.4880645999983244,['n'],0.3617555999990145,2.0,1584.006851099999,,,,,507,18,Woman,Left,
,,,,,,,,,,,,,,,,,507,18,Woman,Left,2,31,0.4,2,180,0,0,0.3507266999986314,['y'],1.385772800000268,2.0,1588.2065934999991,,,,,507,18,Woman,Left,
,,,,,,,,,,,,,,,,,507,18,Woman,Left,2,30,0.4,1,180,-,180,0.400628899998992,['n'],2.7212110000000393,2.0,1593.8566758999987,,,,,507,18,Woman,Left,
,,,,,,,,,,,,,,,,,507,18,Woman,Left,2,38,0.4,1,180,-,180,0.5878398999993806,['n'],0.905204099999537,2.0,1597.9572692999973,,,,,507,18,Woman,Left,
,,,,,,,,,,,,,,,,,507,18,Woman,Left,2,21,0.4,2,0,180,180,0.43035279999821796,['y'],1.9855048999997962,2.0,1603.1566798999993,,,,,507,18,Woman,Left,
,,,,,,,,,,,,,,,,,507,18,Woman,Left,2,19,0.4,2,180,0,0,0.5985127999992983,['y'],0.3222630000018398,2.0,1606.7410918999994,,,,,507,18,Woman,Left,
,,,,,,,,,,,,,,,,,507,18,Woman,Left,2,59,0.15,2,180,0,180,1.8484705000009853,['y'],0.417190500000288,2.0,1613.640193299998,,,,,507,18,Woman,Left,
,,,,,,,,,,,,,,,,,507,18,Woman,Left,2,57,0.15,2,0,180,180,1.682978799999546,['y'],1.0137230999971507,2.0,1619.2399835999968,,,,,507,18,Woman,Left,
,,,,,,,,,,,,,,,,,507,18,Woman,Left,2,23,0.4,2,180,0,0,0.37456879999808734,['y'],1.6495090999997046,2.0,1625.1064950999971,,,,,507,18,Woman,Left,
,,,,,,,,,,,,,,,,,507,18,Woman,Left,2,2,1,1,180,-,180,0.5814114000022528,['n'],0.3054249000015261,2.0,1628.8570191,,,,,507,18,Woman,Left,
,,,,,,,,,,,,,,,,,507,18,Woman,Left,2,69,0.15,2,0,180,180,1.7733646999986377,['y'],1.2974275999986276,1.688,1635.0399214999998,,,,,507,18,Woman,Left,
,,,,,,,,,,,,,,,,,507,18,Woman,Left,2,29,0.4,2,0,180,180,0.7655728999998246,['y'],0.7616329000011319,2.0,1639.0894079999998,,,,,507,18,Woman,Left,
,,,,,,,,,,,,,,,,,507,18,Woman,Left,2,34,0.4,1,180,-,180,1.0433454000012716,['n'],1.8257955999979458,1.824,1644.5559719999983,,,,,507,18,Woman,Left,
,,,,,,,,,,,,,,,,,507,18,Woman,Left,2,33,0.4,2,0,180,180,1.366954799999803,['y'],0.25749980000182404,1.786,1649.0563250999985,,,,,507,18,Woman,Left,
,,,,,,,,,,,,,,,,,507,18,Woman,Left,2,77,0.15,2,0,180,180,0.9148497999995016,['y'],2.513646000003064,1.728,1655.3727397000002,,,,,507,18,Woman,Left,
,,,,,,,,,,,,,,,,,507,18,Woman,Left,3,76,0.15,1,0,-,0,1.250153400000272,['n'],2.025726299998496,1.698,1666.2233971999995,80.0,100.0,72.5,,507,18,Woman,Left,
,,,,,,,,,,,,,,,,,507,18,Woman,Left,3,77,0.15,2,0,180,0,0.43127520000052755,['n'],1.2016144000008353,1.412,1670.9402911999969,,,,,507,18,Woman,Left,
,,,,,,,,,,,,,,,,,507,18,Woman,Left,3,31,0.4,2,180,0,0,0.857694199999969,['y'],0.4097168000007514,1.748,1675.2561747,,,,,507,18,Woman,Left,
,,,,,,,,,,,,,,,,,507,18,Woman,Left,3,24,0.4,1,0,-,0,0.6168208999988565,['n'],0.24530260000028647,1.83,1678.7235671999988,,,,,507,18,Woman,Left,
,,,,,,,,,,,,,,,,,507,18,Woman,Left,3,37,0.4,2,0,180,180,1.5376398999978846,['y'],0.4098086999983934,1.9020000000000001,1683.2894725999977,,,,,507,18,Woman,Left,
,,,,,,,,,,,,,,,,,507,18,Woman,Left,3,41,0.4,2,0,180,180,1.0763972999993712,['y'],0.3457854000007501,1.806,1687.6066500999987,,,,,507,18,Woman,Left,
,,,,,,,,,,,,,,,,,507,18,Woman,Left,3,0,1,1,0,-,0,0.5904421999985061,['n'],0.4175628000011784,2.0,1691.222504399997,,,,,507,18,Woman,Left,
,,,,,,,,,,,,,,,,,507,18,Woman,Left,3,26,0.4,1,180,-,180,0.704099500002485,['n'],0.21810330000153044,1.87,1694.939762599999,,,,,507,18,Woman,Left,
,,,,,,,,,,,,,,,,,507,18,Woman,Left,3,63,0.15,2,180,0,180,2.656290799997805,['n'],1.6181107999982487,1.2,1702.1229647999971,,,,,507,18,Woman,Left,
,,,,,,,,,,,,,,,,,507,18,Woman,Left,3,56,0.15,1,0,-,180,1.3094872000001487,['n'],0.28221099999791477,1.432,1706.5554849999971,,,,,507,18,Woman,Left,
,,,,,,,,,,,,,,,,,507,18,Woman,Left,3,74,0.15,1,180,-,180,1.5388525999987905,['n'],0.21010730000125477,1.73,1710.7391465,,,,,507,18,Woman,Left,
,,,,,,,,,,,,,,,,,507,18,Woman,Left,3,69,0.15,2,0,180,0,1.3474681000006967,['n'],0.865899399999762,1.3980000000000001,1716.440142899999,,,,,507,18,Woman,Left,
,,,,,,,,,,,,,,,,,507,18,Woman,Left,3,70,0.15,1,180,-,180,0.8984869999985676,['n'],3.2579025000013644,1.33,1724.0232313999986,,,,,507,18,Woman,Left,
,,,,,,,,,,,,,,,,,507,18,Woman,Left,3,79,0.15,2,180,0,180,1.2669232000007469,['n'],0.19419120000020484,1.6640000000000001,1728.706280399998,,,,,507,18,Woman,Left,
,,,,,,,,,,,,,,,,,507,18,Woman,Left,3,10,0.4,1,180,-,180,1.0623685999998997,['n'],0.6258495000001858,1.78,1732.8228647999968,,,,,507,18,Woman,Left,
,,,,,,,,,,,,,,,,,507,18,Woman,Left,3,6,1,1,180,-,180,0.7429756999990786,['n'],0.44160589999955846,1.754,1736.5896434999995,,,,,507,18,Woman,Left,
,,,,,,,,,,,,,,,,,507,18,Woman,Left,3,16,0.4,1,0,-,0,0.46140229999946314,['n'],2.2101273000007495,1.81,1741.8050778999968,,,,,507,18,Woman,Left,
,,,,,,,,,,,,,,,,,507,18,Woman,Left,3,67,0.15,2,180,0,0,1.1302962999980082,['y'],0.7297910999986925,1.756,1747.8895096999986,,,,,507,18,Woman,Left,
,,,,,,,,,,,,,,,,,507,18,Woman,Left,3,33,0.4,2,0,180,180,1.2356800000015937,['y'],0.47372620000169263,1.778,1752.9723924999998,,,,,507,18,Woman,Left,
,,,,,,,,,,,,,,,,,507,18,Woman,Left,3,25,0.4,2,0,180,180,0.8825667000019166,['y'],0.7460040999976627,1.8,1758.1220227999984,,,,,507,18,Woman,Left,
,,,,,,,,,,,,,,,,,507,18,Woman,Left,3,19,0.4,2,180,0,0,0.5986904000019422,['y'],1.9704800999970757,1.77,1764.139435699999,,,,,507,18,Woman,Left,
,,,,,,,,,,,,,,,,,507,18,Woman,Left,3,66,0.15,1,180,-,0,0.6209504999969795,['n'],5.178320200000599,1.772,1772.7058383000003,,,,,507,18,Woman,Left,
,,,,,,,,,,,,,,,,,507,18,Woman,Left,3,18,0.4,1,180,-,180,0.34659860000101617,['n'],2.546315899999172,1.836,1778.1727825999988,,,,,507,18,Woman,Left,
,,,,,,,,,,,,,,,,,507,18,Woman,Left,3,72,0.15,1,0,-,180,1.1049394000001485,['n'],0.2340968000025896,1.432,1782.338076699998,,,,,507,18,Woman,Left,
,,,,,,,,,,,,,,,,,507,18,Woman,Left,3,73,0.15,2,0,180,180,0.9866107999987435,['y'],0.5622412999982771,1.78,1786.6389447999973,,,,,507,18,Woman,Left,
,,,,,,,,,,,,,,,,,507,18,Woman,Left,3,7,1,2,180,0,0,0.551473999999871,['y'],0.4343632999989495,1.78,1790.0054821999984,,,,,507,18,Woman,Left,
,,,,,,,,,,,,,,,,,507,18,Woman,Left,3,49,0.15,2,0,180,180,0.7985756000016409,['y'],0.40995630000179517,1.724,1793.6217370999984,,,,,507,18,Woman,Left,
,,,,,,,,,,,,,,,,,507,18,Woman,Left,3,75,0.15,2,180,0,0,0.7827762000015355,['n'],0.48987120000310824,1.262,1798.654959899999,,,,,507,18,Woman,Left,
,,,,,,,,,,,,,,,,,507,18,Woman,Left,3,9,0.4,2,0,180,180,1.2835307999994257,['y'],0.25786370000059833,2.0,1802.9554207999972,,,,,507,18,Woman,Left,
,,,,,,,,,,,,,,,,,507,18,Woman,Left,3,65,0.15,2,0,180,180,2.1241554000007454,['n'],0.4981096000010439,1.376,1808.1224612999977,,,,,507,18,Woman,Left,
,,,,,,,,,,,,,,,,,507,18,Woman,Left,3,45,0.15,2,0,180,180,0.9077577000025485,['n'],0.9066305000014836,1.624,1812.7718485999976,,,,,507,18,Woman,Left,
,,,,,,,,,,,,,,,,,507,18,Woman,Left,3,15,0.4,2,180,0,0,1.0254624000008334,['y'],0.28999969999858877,1.692,1817.4055496,,,,,507,18,Woman,Left,
,,,,,,,,,,,,,,,,,507,18,Woman,Left,3,52,0.15,1,0,-,180,1.6480894000014814,['n'],0.4345324999994773,1.698,1821.9218337999991,,,,,507,18,Woman,Left,
,,,,,,,,,,,,,,,,,507,18,Woman,Left,3,13,0.4,2,0,180,180,0.9962281000007351,['y'],1.0665404999999737,1.988,1826.9389010999985,,,,,507,18,Woman,Left,
,,,,,,,,,,,,,,,,,507,18,Woman,Left,3,57,0.15,2,0,180,180,0.6949022000007972,['y'],0.4101807999977609,2.0,1831.1218735000002,,,,,507,18,Woman,Left,
,,,,,,,,,,,,,,,,,507,18,Woman,Left,3,14,0.4,1,180,-,180,0.2952794000011636,['y'],1.9786343999985547,2.0,1836.1725751999984,,,,,507,18,Woman,Left,
,,,,,,,,,,,,,,,,,507,18,Woman,Left,3,4,1,1,0,-,0,0.9727755999992951,['n'],0.3382942999996885,1.96,1840.755471299999,,,,,507,18,Woman,Left,
,,,,,,,,,,,,,,,,,507,18,Woman,Left,3,32,0.4,1,0,-,0,0.4761306999971566,['n'],0.3062839999984135,2.0,1843.955564699998,,,,,507,18,Woman,Left,
,,,,,,,,,,,,,,,,,507,18,Woman,Left,3,48,0.15,1,0,-,180,0.6660441999993054,['n'],2.341709299998911,2.0,1849.588749999999,,,,,507,18,Woman,Left,
,,,,,,,,,,,,,,,,,507,18,Woman,Left,3,42,0.4,1,180,-,180,0.1995318999979645,['n'],2.8823092999991786,2.0,1855.3220974999967,,,,,507,18,Woman,Left,
,,,,,,,,,,,,,,,,,507,18,Woman,Left,3,54,0.15,1,180,-,180,2.9163712000008672,['n'],0.5137434000025678,1.3780000000000001,1861.4053681999976,,,,,507,18,Woman,Left,
,,,,,,,,,,,,,,,,,507,18,Woman,Left,3,5,1,2,0,180,180,0.593150799999421,['y'],0.5062685000011697,1.734,1866.8710342999984,,,,,507,18,Woman,Left,
,,,,,,,,,,,,,,,,,507,18,Woman,Left,3,58,0.15,1,180,-,0,1.0757664999982808,['n'],3.4270758999991813,1.73,1875.7380541999992,,,,,507,18,Woman,Left,
,,,,,,,,,,,,,,,,,507,18,Woman,Left,3,22,0.4,1,180,-,180,0.3366870999998355,['n'],0.3867720999987796,1.822,1879.0220692000003,,,,,507,18,Woman,Left,
,,,,,,,,,,,,,,,,,507,18,Woman,Left,3,3,1,2,180,0,0,0.36594530000002123,['y'],0.3627108999971824,1.966,1882.7717911,,,,,507,18,Woman,Left,
,,,,,,,,,,,,,,,,,507,18,Woman,Left,3,35,0.4,2,180,0,0,0.6056209999987914,['y'],0.7865323000005446,2.0,1886.7881041999972,,,,,507,18,Woman,Left,
,,,,,,,,,,,,,,,,,507,18,Woman,Left,3,21,0.4,2,0,180,180,0.4028565000007802,['y'],0.8263066999970761,2.0,1890.5379553999992,,,,,507,18,Woman,Left,
,,,,,,,,,,,,,,,,,507,18,Woman,Left,3,68,0.15,1,0,-,0,0.4748089999993681,['n'],0.31434359999911976,2.0,1894.1714931999995,,,,,507,18,Woman,Left,
,,,,,,,,,,,,,,,,,507,18,Woman,Left,3,51,0.15,2,180,0,180,0.45929469999828143,['n'],0.5862955000011425,2.0,1897.6873898999984,,,,,507,18,Woman,Left,
,,,,,,,,,,,,,,,,,507,18,Woman,Left,3,47,0.15,2,180,0,180,1.0469398999994155,['n'],0.32241029999931925,2.0,1901.438409399998,,,,,507,18,Woman,Left,
,,,,,,,,,,,,,,,,,507,18,Woman,Left,3,34,0.4,1,180,-,180,0.5280290999980934,['n'],0.5062902999998187,2.0,1905.0372433999983,,,,,507,18,Woman,Left,
,,,,,,,,,,,,,,,,,507,18,Woman,Left,3,12,0.4,1,0,-,0,0.30836730000009993,['n'],0.5624996000005922,2.0,1908.7217208000002,,,,,507,18,Woman,Left,
,,,,,,,,,,,,,,,,,507,18,Woman,Left,3,8,0.4,1,0,-,0,0.2567479999997886,['n'],1.0665568000003987,2.0,1913.5883747999978,,,,,507,18,Woman,Left,
,,,,,,,,,,,,,,,,,507,18,Woman,Left,3,36,0.4,1,0,-,0,0.7130094000021927,['n'],0.3229425999998057,2.0,1917.0046903000002,,,,,507,18,Woman,Left,
,,,,,,,,,,,,,,,,,507,18,Woman,Left,3,55,0.15,2,180,0,180,0.9837971000015386,['n'],1.0907727999983763,1.284,1921.6373194999978,,,,,507,18,Woman,Left,
,,,,,,,,,,,,,,,,,507,18,Woman,Left,3,1,1,2,0,180,180,0.6076566000010644,['y'],0.7146438999989186,2.0,1925.5548313,,,,,507,18,Woman,Left,
,,,,,,,,,,,,,,,,,507,18,Woman,Left,3,2,1,1,180,-,180,0.37403880000056233,['n'],0.33862800000133575,2.0,1929.455093499997,,,,,507,18,Woman,Left,
,,,,,,,,,,,,,,,,,507,18,Woman,Left,3,28,0.4,1,0,-,0,0.30325210000228253,['n'],0.3786623000014515,2.0,1932.9383224999983,,,,,507,18,Woman,Left,
,,,,,,,,,,,,,,,,,507,18,Woman,Left,3,20,0.4,1,0,-,0,0.22244700000010198,['n'],0.47458649999680347,2.0,1936.737803699998,,,,,507,18,Woman,Left,
,,,,,,,,,,,,,,,,,507,18,Woman,Left,3,60,0.15,1,0,-,180,0.5894458000002487,['n'],1.1626652000013564,1.328,1940.8538617999984,,,,,507,18,Woman,Left,
,,,,,,,,,,,,,,,,,507,18,Woman,Left,3,44,0.15,1,0,-,0,0.47016419999999925,['n'],0.8108931000024313,1.866,1944.654271899999,,,,,507,18,Woman,Left,
,,,,,,,,,,,,,,,,,507,18,Woman,Left,3,39,0.4,2,180,0,0,0.750964800001384,['y'],0.28253919999770005,2.0,1948.2877389999994,,,,,507,18,Woman,Left,
,,,,,,,,,,,,,,,,,507,18,Woman,Left,3,27,0.4,2,180,0,0,0.5661819999986619,['y'],2.2187272000010125,2.0,1953.4871244999995,,,,,507,18,Woman,Left,
,,,,,,,,,,,,,,,,,507,18,Woman,Left,3,30,0.4,1,180,-,180,0.43956859999889275,['n'],0.25867980000111856,2.0,1956.771232799998,,,,,507,18,Woman,Left,
,,,,,,,,,,,,,,,,,507,18,Woman,Left,3,40,0.4,1,0,-,0,0.6502681999991182,['n'],0.4347190000007686,2.0,1960.7368356999978,,,,,507,18,Woman,Left,
,,,,,,,,,,,,,,,,,507,18,Woman,Left,3,71,0.15,2,180,0,0,1.3880984999996144,['y'],0.33835850000104983,1.726,1964.8705730000001,,,,,507,18,Woman,Left,
,,,,,,,,,,,,,,,,,507,18,Woman,Left,3,17,0.4,2,0,180,180,0.5993164999999863,['y'],1.76173209999979,2.0,1969.6706172999984,,,,,507,18,Woman,Left,
,,,,,,,,,,,,,,,,,507,18,Woman,Left,3,29,0.4,2,0,180,180,0.41606709999905434,['y'],0.6586409000010462,2.0,1973.104019399998,,,,,507,18,Woman,Left,
,,,,,,,,,,,,,,,,,507,18,Woman,Left,3,62,0.15,1,180,-,180,0.27842690000034054,['n'],0.3148710999994364,1.5819999999999999,1977.0876575999973,,,,,507,18,Woman,Left,
,,,,,,,,,,,,,,,,,507,18,Woman,Left,3,78,0.15,1,180,-,180,0.829309299999295,['n'],0.5066317000018898,1.646,1981.0375763999982,,,,,507,18,Woman,Left,
,,,,,,,,,,,,,,,,,507,18,Woman,Left,3,59,0.15,2,180,0,0,1.5593216999986907,['y'],0.3384490000025835,1.798,1986.6040111999973,,,,,507,18,Woman,Left,
,,,,,,,,,,,,,,,,,507,18,Woman,Left,3,46,0.15,1,180,-,180,2.663672899998346,['y'],0.2989328999974532,1.57,1992.4224484999977,,,,,507,18,Woman,Left,
,,,,,,,,,,,,,,,,,507,18,Woman,Left,3,23,0.4,2,180,0,0,0.6620340999979817,['y'],0.3072950999994646,2.0,1996.6539061000003,,,,,507,18,Woman,Left,
,,,,,,,,,,,,,,,,,507,18,Woman,Left,3,53,0.15,2,0,180,180,1.2060385000004317,['y'],0.7146705999984988,2.0,2001.3545102999997,,,,,507,18,Woman,Left,
,,,,,,,,,,,,,,,,,507,18,Woman,Left,3,11,0.4,2,180,0,0,1.436145799998485,['y'],0.38730349999968894,2.0,2005.6868351999983,,,,,507,18,Woman,Left,
,,,,,,,,,,,,,,,,,507,18,Woman,Left,3,50,0.15,1,180,-,180,0.6766513000002305,['n'],0.29883589999735705,2.0,2009.2208081999997,,,,,507,18,Woman,Left,
,,,,,,,,,,,,,,,,,507,18,Woman,Left,3,38,0.4,1,180,-,180,0.417097499997908,['n'],1.8668680000009772,2.0,2014.770416899999,,,,,507,18,Woman,Left,
,,,,,,,,,,,,,,,,,507,18,Woman,Left,3,61,0.15,2,0,180,180,2.1062063999997918,['y'],0.5151390000028186,2.0,2019.8704789999974,,,,,507,18,Woman,Left,
,,,,,,,,,,,,,,,,,507,18,Woman,Left,3,43,0.4,2,180,0,0,1.3523384000000078,['y'],1.3308634999993956,2.0,2025.1378104999967,,,,,507,18,Woman,Left,
,,,,,,,,,,,,,,,,,507,18,Woman,Left,3,64,0.15,1,0,-,0,1.185595099999773,['y'],0.3869486000003235,2.0,2029.8037141999994,,,,,507,18,Woman,Left,
,,,,,,,,,,,,,,,,,507,18,Woman,Left,4,69,0.15,2,0,180,180,1.0005942000025243,['y'],0.25451849999808474,1.82,2041.2041512999967,82.5,92.5,75.0,,507,18,Woman,Left,
,,,,,,,,,,,,,,,,,507,18,Woman,Left,4,25,0.4,2,0,180,180,0.5535296999987622,['y'],0.26697469999999157,1.766,2044.7036717999981,,,,,507,18,Woman,Left,
,,,,,,,,,,,,,,,,,507,18,Woman,Left,4,13,0.4,2,0,180,180,1.0234445999994932,['y'],0.9230449999995471,2.0,2049.153153299998,,,,,507,18,Woman,Left,
,,,,,,,,,,,,,,,,,507,18,Woman,Left,4,68,0.15,1,0,-,0,0.8482361999995192,['n'],1.0108739999996033,1.6680000000000001,2053.4039338000002,,,,,507,18,Woman,Left,
,,,,,,,,,,,,,,,,,507,18,Woman,Left,4,60,0.15,1,0,-,0,1.1935933000022487,['n'],0.25094959999842104,1.99,2057.4041808999973,,,,,507,18,Woman,Left,
,,,,,,,,,,,,,,,,,507,18,Woman,Left,4,24,0.4,1,0,-,0,0.42483160000119824,['n'],0.2752574000005552,2.0,2061.0042047999996,,,,,507,18,Woman,Left,
,,,,,,,,,,,,,,,,,507,18,Woman,Left,4,28,0.4,1,0,-,0,0.4649725999988732,['n'],0.40256310000040685,2.0,2064.420415999997,,,,,507,18,Woman,Left,
,,,,,,,,,,,,,,,,,507,18,Woman,Left,4,54,0.15,1,180,-,0,0.8432399000012083,['n'],0.3155043000006117,2.0,2068.2699157999996,,,,,507,18,Woman,Left,
,,,,,,,,,,,,,,,,,507,18,Woman,Left,4,62,0.15,1,180,-,0,0.8384974000000511,['n'],1.1469286999999895,1.71,2073.8039145000002,,,,,507,18,Woman,Left,
,,,,,,,,,,,,,,,,,507,18,Woman,Left,4,16,0.4,1,0,-,0,0.6547587000022759,['n'],0.2914500000006228,1.79,2077.504444799997,,,,,507,18,Woman,Left,
,,,,,,,,,,,,,,,,,507,18,Woman,Left,4,38,0.4,1,180,-,180,1.3323492999988957,['n'],0.25885070000003907,2.0,2082.1704207000002,,,,,507,18,Woman,Left,
,,,,,,,,,,,,,,,,,507,18,Woman,Left,4,30,0.4,1,180,-,180,4.265935100000206,['n'],1.0956613999987894,1.724,2090.485881999997,,,,,507,18,Woman,Left,
,,,,,,,,,,,,,,,,,507,18,Woman,Left,4,57,0.15,2,0,180,180,0.5182190000014089,['n'],1.6027987000015855,1.712,2095.536589799998,,,,,507,18,Woman,Left,
,,,,,,,,,,,,,,,,,507,18,Woman,Left,4,76,0.15,1,0,-,180,2.2830979999998817,['n'],0.8272017000017513,1.23,2101.587142199998,,,,,507,18,Woman,Left,
,,,,,,,,,,,,,,,,,507,18,Woman,Left,4,42,0.4,1,180,-,180,0.6092970999998215,['y'],0.43521169999803533,1.232,2105.8191076999974,,,,,507,18,Woman,Left,
,,,,,,,,,,,,,,,,,507,18,Woman,Left,4,10,0.4,1,180,-,180,0.28992529999959515,['n'],1.6990372000000207,2.0,2110.8199881,,,,,507,18,Woman,Left,
,,,,,,,,,,,,,,,,,507,18,Woman,Left,4,14,0.4,1,180,-,180,1.2502720000011323,['n'],0.43498380000164616,2.0,2115.4704442999973,,,,,507,18,Woman,Left,
,,,,,,,,,,,,,,,,,507,18,Woman,Left,4,58,0.15,1,180,-,180,0.3084923999995226,['n'],0.5392276000020502,2.0,2118.870112299999,,,,,507,18,Woman,Left,
,,,,,,,,,,,,,,,,,507,18,Woman,Left,4,50,0.15,1,180,-,180,1.1527306999996654,['n'],0.41127160000178264,2.0,2122.9693273999983,,,,,507,18,Woman,Left,
,,,,,,,,,,,,,,,,,507,18,Woman,Left,4,26,0.4,1,180,-,180,1.645281299999624,['n'],0.24313619999884395,2.0,2127.5034855999984,,,,,507,18,Woman,Left,
,,,,,,,,,,,,,,,,,507,18,Woman,Left,4,46,0.15,1,180,-,180,1.5479086000013922,['n'],0.8754092999988643,2.0,2132.4859393999977,,,,,507,18,Woman,Left,
,,,,,,,,,,,,,,,,,507,18,Woman,Left,4,35,0.4,2,180,0,0,1.003324999997858,['y'],0.3552060000001802,2.0,2136.620540599997,,,,,507,18,Woman,Left,
,,,,,,,,,,,,,,,,,507,18,Woman,Left,4,40,0.4,1,0,-,0,2.074538399996527,['y'],0.28370100000029197,1.798,2142.719817099998,,,,,507,18,Woman,Left,
,,,,,,,,,,,,,,,,,507,18,Woman,Left,4,65,0.15,2,0,180,0,1.718509800000902,['n'],0.7956789000018034,1.248,2148.3535432999997,,,,,507,18,Woman,Left,
,,,,,,,,,,,,,,,,,507,18,Woman,Left,4,11,0.4,2,180,0,0,0.597529200000281,['y'],0.4194908999998006,2.0,2151.870066399999,,,,,507,18,Woman,Left,
,,,,,,,,,,,,,,,,,507,18,Woman,Left,4,67,0.15,2,180,0,0,0.8796103999993647,['y'],0.38741420000224025,2.0,2155.7524582999977,,,,,507,18,Woman,Left,
,,,,,,,,,,,,,,,,,507,18,Woman,Left,4,52,0.15,1,0,-,0,1.0210244999980205,['n'],2.3635129000031156,1.232,2162.269373199997,,,,,507,18,Woman,Left,
,,,,,,,,,,,,,,,,,507,18,Woman,Left,4,34,0.4,1,180,-,180,1.5949064000014914,['n'],2.6995887000011862,1.58,2169.7353791999994,,,,,507,18,Woman,Left,
,,,,,,,,,,,,,,,,,507,18,Woman,Left,4,45,0.15,2,0,180,0,0.580686199999036,['n'],1.739866300002177,1.412,2174.8696010999993,,,,,507,18,Woman,Left,
,,,,,,,,,,,,,,,,,507,18,Woman,Left,4,5,1,2,0,180,180,0.9537811000009242,['y'],0.667439299999387,2.0,2179.5533123999994,,,,,507,18,Woman,Left,
,,,,,,,,,,,,,,,,,507,18,Woman,Left,4,18,0.4,1,180,-,180,0.7584495000010065,['n'],0.37134169999990263,2.0,2183.7367317999997,,,,,507,18,Woman,Left,
,,,,,,,,,,,,,,,,,507,18,Woman,Left,4,48,0.15,1,0,-,0,0.5567369000018516,['n'],2.3551819999993313,1.842,2189.4530049999994,,,,,507,18,Woman,Left,
,,,,,,,,,,,,,,,,,507,18,Woman,Left,4,9,0.4,2,0,180,180,0.48162539999975706,['y'],2.955498700001044,2.0,2196.0693532999976,,,,,507,18,Woman,Left,
,,,,,,,,,,,,,,,,,507,18,Woman,Left,4,66,0.15,1,180,-,180,0.3300727999994706,['n'],1.971433699996851,1.858,2201.2519915999983,,,,,507,18,Woman,Left,
,,,,,,,,,,,,,,,,,507,18,Woman,Left,4,61,0.15,2,0,180,0,0.6352063000013004,['n'],0.2756663000000117,1.44,2205.169036799998,,,,,507,18,Woman,Left,
,,,,,,,,,,,,,,,,,507,18,Woman,Left,4,44,0.15,1,0,-,0,0.5559733000009146,['n'],0.7312315999988641,1.4100000000000001,2209.8030446999983,,,,,507,18,Woman,Left,
,,,,,,,,,,,,,,,,,507,18,Woman,Left,4,12,0.4,1,0,-,0,0.36609800000223913,['n'],1.9315300000016578,2.0,2214.7191945999984,,,,,507,18,Woman,Left,
,,,,,,,,,,,,,,,,,507,18,Woman,Left,4,3,1,2,180,0,0,0.5925972999975784,['y'],1.7317388000010396,2.0,2219.5354310999974,,,,,507,18,Woman,Left,
,,,,,,,,,,,,,,,,,507,18,Woman,Left,4,32,0.4,1,0,-,0,0.9034070000016072,['n'],0.2275783999975829,2.0,2223.1852839999992,,,,,507,18,Woman,Left,
,,,,,,,,,,,,,,,,,507,18,Woman,Left,4,77,0.15,2,0,180,180,1.3453110000009474,['y'],0.2912118999993254,2.0,2227.535575099999,,,,,507,18,Woman,Left,
,,,,,,,,,,,,,,,,,507,18,Woman,Left,4,37,0.4,2,0,180,180,0.4379214000000502,['y'],1.2196788999972341,2.0,2232.8525416999983,,,,,507,18,Woman,Left,
,,,,,,,,,,,,,,,,,507,18,Woman,Left,4,2,1,1,180,-,180,0.6625559000021894,['n'],5.115879799999675,2.0,2241.685616499999,,,,,507,18,Woman,Left,
,,,,,,,,,,,,,,,,,507,18,Woman,Left,4,15,0.4,2,180,0,0,0.7744420999988506,['y'],3.1074828000018897,2.0,2248.8691317999983,,,,,507,18,Woman,Left,
,,,,,,,,,,,,,,,,,507,18,Woman,Left,4,49,0.15,2,0,180,180,0.977833400000236,['y'],0.9476384000008693,2.0,2253.3349873999978,,,,,507,18,Woman,Left,
,,,,,,,,,,,,,,,,,507,18,Woman,Left,4,1,1,2,0,180,180,0.40777759999764385,['y'],1.1796912999998312,2.0,2257.3022633,,,,,507,18,Woman,Left,
,,,,,,,,,,,,,,,,,507,18,Woman,Left,4,39,0.4,2,180,0,0,0.70423479999954,['y'],0.2837223999995331,2.0,2260.968314599999,,,,,507,18,Woman,Left,
,,,,,,,,,,,,,,,,,507,18,Woman,Left,4,22,0.4,1,180,-,180,0.5489729999972042,['n'],0.3478398000006564,2.0,2264.3023022999987,,,,,507,18,Woman,Left,
,,,,,,,,,,,,,,,,,507,18,Woman,Left,4,78,0.15,1,180,-,180,0.6828200999989349,['n'],3.0514218999996956,1.58,2270.918138699999,,,,,507,18,Woman,Left,
,,,,,,,,,,,,,,,,,507,18,Woman,Left,4,27,0.4,2,180,0,0,0.5191314000003331,['y'],0.4358199999987846,2.0,2274.435127499997,,,,,507,18,Woman,Left,
,,,,,,,,,,,,,,,,,507,18,Woman,Left,4,20,0.4,1,0,-,0,0.4508642999971926,['n'],0.7636735000014596,2.0,2278.3186986,,,,,507,18,Woman,Left,
,,,,,,,,,,,,,,,,,507,18,Woman,Left,4,63,0.15,2,180,0,0,1.0668885000013688,['n'],1.992728499997611,1.154,2284.252134899998,,,,,507,18,Woman,Left,
,,,,,,,,,,,,,,,,,507,18,Woman,Left,4,31,0.4,2,180,0,0,0.7370876999993925,['y'],0.2916052000000491,2.0,2287.785190499999,,,,,507,18,Woman,Left,
,,,,,,,,,,,,,,,,,507,18,Woman,Left,4,75,0.15,2,180,0,0,2.542896999999357,['y'],0.323427499999525,1.238,2294.2686638999985,,,,,507,18,Woman,Left,
,,,,,,,,,,,,,,,,,507,18,Woman,Left,4,4,1,1,0,-,0,0.6964263000008941,['n'],0.26837049999812734,2.0,2297.984875799997,,,,,507,18,Woman,Left,
,,,,,,,,,,,,,,,,,507,18,Woman,Left,4,23,0.4,2,180,0,0,0.7509677000016381,['y'],0.25225319999663043,2.0,2301.901384499997,,,,,507,18,Woman,Left,
,,,,,,,,,,,,,,,,,507,18,Woman,Left,4,55,0.15,2,180,0,0,2.1211800999990373,['y'],0.2521688000015274,1.16,2307.1186103,,,,,507,18,Woman,Left,
,,,,,,,,,,,,,,,,,507,18,Woman,Left,4,70,0.15,1,180,-,0,0.981748800000787,['y'],1.5235461999982363,1.556,2314.4848700000002,,,,,507,18,Woman,Left,
,,,,,,,,,,,,,,,,,507,18,Woman,Left,4,74,0.15,1,180,-,0,0.9454125999982352,['n'],0.30001329999868176,1.17,2318.235107299999,,,,,507,18,Woman,Left,
,,,,,,,,,,,,,,,,,507,18,Woman,Left,4,53,0.15,2,0,180,180,1.6167581000008795,['n'],0.8519406000013987,1.13,2323.6520934,,,,,507,18,Woman,Left,
,,,,,,,,,,,,,,,,,507,18,Woman,Left,4,72,0.15,1,0,-,180,0.8256123999999545,['n'],0.36373570000068867,1.162,2327.8022304999977,,,,,507,18,Woman,Left,
,,,,,,,,,,,,,,,,,507,18,Woman,Left,4,64,0.15,1,0,-,180,0.5716804000003322,['n'],0.3797983000004024,1.1520000000000001,2331.7348469999997,,,,,507,18,Woman,Left,
,,,,,,,,,,,,,,,,,507,18,Woman,Left,4,56,0.15,1,0,-,180,2.189285700002074,['n'],1.6519295999969472,1.1440000000000001,2339.118639299999,,,,,507,18,Woman,Left,
,,,,,,,,,,,,,,,,,507,18,Woman,Left,4,8,0.4,1,0,-,0,0.7389655000006314,['n'],0.23599190000095405,2.0,2342.584853299999,,,,,507,18,Woman,Left,
,,,,,,,,,,,,,,,,,507,18,Woman,Left,4,47,0.15,2,180,0,0,1.3882626999984495,['y'],0.21207119999962742,1.604,2346.7347592999977,,,,,507,18,Woman,Left,
,,,,,,,,,,,,,,,,,507,18,Woman,Left,4,51,0.15,2,180,0,0,0.6691649000022153,['y'],1.7485225000018545,1.75,2351.968000099998,,,,,507,18,Woman,Left,
,,,,,,,,,,,,,,,,,507,18,Woman,Left,4,71,0.15,2,180,0,0,1.2675225000020873,['y'],3.1477892999973847,1.236,2359.317383999998,,,,,507,18,Woman,Left,
,,,,,,,,,,,,,,,,,507,18,Woman,Left,4,33,0.4,2,0,180,180,0.5628646000004665,['y'],2.268417800001771,1.84,2364.9514444999986,,,,,507,18,Woman,Left,
,,,,,,,,,,,,,,,,,507,18,Woman,Left,4,21,0.4,2,0,180,180,0.5658904000010807,['y'],1.4438511000007566,1.948,2369.751974499999,,,,,507,18,Woman,Left,
,,,,,,,,,,,,,,,,,507,18,Woman,Left,4,0,1,1,0,-,0,0.7898166000013589,['n'],0.8760007999990194,2.0,2374.367812499997,,,,,507,18,Woman,Left,
,,,,,,,,,,,,,,,,,507,18,Woman,Left,4,7,1,2,180,0,0,0.6559868999975151,['y'],0.3080111000017496,2.0,2377.934416099997,,,,,507,18,Woman,Left,
,,,,,,,,,,,,,,,,,507,18,Woman,Left,4,17,0.4,2,0,180,180,0.7651645999976608,['y'],0.2763446999997541,2.0,2381.684815999997,,,,,507,18,Woman,Left,
,,,,,,,,,,,,,,,,,507,18,Woman,Left,4,19,0.4,2,180,0,0,0.40151460000197403,['y'],0.43649849999928847,1.94,2385.0184450999986,,,,,507,18,Woman,Left,
,,,,,,,,,,,,,,,,,507,18,Woman,Left,4,41,0.4,2,0,180,180,1.8891346999989764,['y'],0.5641856000002008,2.0,2390.0344523999993,,,,,507,18,Woman,Left,
,,,,,,,,,,,,,,,,,507,18,Woman,Left,4,36,0.4,1,0,-,0,0.8759027999985847,['n'],0.25244000000020606,1.6400000000000001,2393.8682278999986,,,,,507,18,Woman,Left,
,,,,,,,,,,,,,,,,,507,18,Woman,Left,4,79,0.15,2,180,0,180,1.0254583999994793,['n'],0.6920742000002065,1.194,2398.418340799999,,,,,507,18,Woman,Left,
,,,,,,,,,,,,,,,,,507,18,Woman,Left,4,29,0.4,2,0,180,180,0.6652601999994658,['y'],0.27611980000074254,1.83,2402.117622499998,,,,,507,18,Woman,Left,
,,,,,,,,,,,,,,,,,507,18,Woman,Left,4,6,1,1,180,-,180,0.3514400000021851,['n'],0.3481876000005286,2.0,2405.617853599997,,,,,507,18,Woman,Left,
,,,,,,,,,,,,,,,,,507,18,Woman,Left,4,43,0.4,2,180,0,0,0.6505456999984744,['y'],2.7162172999996983,1.996,2411.5841330999974,,,,,507,18,Woman,Left,
,,,,,,,,,,,,,,,,,507,18,Woman,Left,4,59,0.15,2,180,0,180,0.7768878000024415,['n'],0.2039422999987437,1.808,2415.450970499998,,,,,507,18,Woman,Left,
,,,,,,,,,,,,,,,,,507,18,Woman,Left,4,73,0.15,2,0,180,0,1.025304300001153,['n'],1.0282284000022628,1.178,2420.3508378999977,,,,,507,18,Woman,Left,
,,,,,,,,,,,,,,,,,507,18,Woman,Left,5,62,0.15,1,180,-,0,2.103637799998978,['n'],4.804272299999866,1.188,2438.7179423999987,82.5,92.5,77.5,,507,18,Woman,Left,
,,,,,,,,,,,,,,,,,507,18,Woman,Left,5,12,0.4,1,0,-,0,0.3857084000010218,['n'],0.2602928000014799,1.766,2441.918623999998,,,,,507,18,Woman,Left,
,,,,,,,,,,,,,,,,,507,18,Woman,Left,5,28,0.4,1,0,-,0,0.1862065999994229,['n'],0.35636799999701907,1.828,2445.250334199998,,,,,507,18,Woman,Left,
,,,,,,,,,,,,,,,,,507,18,Woman,Left,5,38,0.4,1,180,-,180,0.4142046000015398,['n'],0.6605458000012732,1.688,2449.0835646999985,,,,,507,18,Woman,Left,
,,,,,,,,,,,,,,,,,507,18,Woman,Left,5,31,0.4,2,180,0,0,0.657594300002529,['y'],0.30051000000094064,2.0,2452.701355699999,,,,,507,18,Woman,Left,
,,,,,,,,,,,,,,,,,507,18,Woman,Left,5,45,0.15,2,0,180,180,0.8262720000020636,['y'],0.3165179999996326,1.646,2456.366933999998,,,,,507,18,Woman,Left,
,,,,,,,,,,,,,,,,,507,18,Woman,Left,5,8,0.4,1,0,-,0,0.2219307999985176,['n'],2.1489433999995526,1.754,2461.3003154,,,,,507,18,Woman,Left,
,,,,,,,,,,,,,,,,,507,18,Woman,Left,5,35,0.4,2,180,0,0,0.5658438999998907,['y'],0.24439689999780967,2.0,2464.7843436999974,,,,,507,18,Woman,Left,
,,,,,,,,,,,,,,,,,507,18,Woman,Left,5,23,0.4,2,180,0,0,0.47198980000030133,['y'],0.34827949999817065,2.0,2468.1504233999985,,,,,507,18,Woman,Left,
,,,,,,,,,,,,,,,,,507,18,Woman,Left,5,79,0.15,2,180,0,0,0.661978200001613,['y'],0.78816359999837,1.826,2472.317381099998,,,,,507,18,Woman,Left,
,,,,,,,,,,,,,,,,,507,18,Woman,Left,5,53,0.15,2,0,180,0,1.2660224999999627,['y'],0.5882827999994333,1.3780000000000001,2476.8840679999994,,,,,507,18,Woman,Left,
,,,,,,,,,,,,,,,,,507,18,Woman,Left,5,19,0.4,2,180,0,0,0.5321149000010337,['y'],0.43659910000133095,2.0,2480.2341901,,,,,507,18,Woman,Left,
,,,,,,,,,,,,,,,,,507,18,Woman,Left,5,42,0.4,1,180,-,180,1.7563485999999102,['n'],0.35674370000197086,2.0,2484.8679744,,,,,507,18,Woman,Left,
,,,,,,,,,,,,,,,,,507,18,Woman,Left,5,5,1,2,0,180,180,0.7171965999987151,['y'],0.23682299999927636,1.718,2488.334111799999,,,,,507,18,Woman,Left,
,,,,,,,,,,,,,,,,,507,18,Woman,Left,5,36,0.4,1,0,-,0,1.1276563000028546,['n'],1.956812299999001,2.0,2494.2343623999986,,,,,507,18,Woman,Left,
,,,,,,,,,,,,,,,,,507,18,Woman,Left,5,58,0.15,1,180,-,180,0.5309312999997928,['n'],0.2682920000006561,2.0,2497.5000370999987,,,,,507,18,Woman,Left,
,,,,,,,,,,,,,,,,,507,18,Woman,Left,5,72,0.15,1,0,-,180,1.0271285000017087,['n'],0.7807800000009593,1.0,2502.050682099998,,,,,507,18,Woman,Left,
,,,,,,,,,,,,,,,,,507,18,Woman,Left,5,10,0.4,1,180,-,180,0.5898902999979327,['n'],0.29284779999943567,1.98,2505.816997599999,,,,,507,18,Woman,Left,
,,,,,,,,,,,,,,,,,507,18,Woman,Left,5,60,0.15,1,0,-,0,0.8764613999992434,['n'],1.0690023999995901,1.0,2511.3165397999983,,,,,507,18,Woman,Left,
,,,,,,,,,,,,,,,,,507,18,Woman,Left,5,68,0.15,1,0,-,0,1.78447320000123,['y'],2.6369861000021046,1.0,2519.0997245,,,,,507,18,Woman,Left,
,,,,,,,,,,,,,,,,,507,18,Woman,Left,5,26,0.4,1,180,-,180,0.3337246999981289,['n'],0.42845719999968424,2.0,2523.1662528999987,,,,,507,18,Woman,Left,
,,,,,,,,,,,,,,,,,507,18,Woman,Left,5,41,0.4,2,0,180,180,0.9596306999992521,['y'],1.6124941000016406,2.0,2528.083859999999,,,,,507,18,Woman,Left,
,,,,,,,,,,,,,,,,,507,18,Woman,Left,5,55,0.15,2,180,0,180,0.3468934000011359,['n'],0.2445095000002766,2.0,2531.5001814999996,,,,,507,18,Woman,Left,
,,,,,,,,,,,,,,,,,507,18,Woman,Left,5,1,1,2,0,180,180,0.6590996000013547,['y'],0.4205134000003454,2.0,2535.0344293999988,,,,,507,18,Woman,Left,
,,,,,,,,,,,,,,,,,507,18,Woman,Left,5,25,0.4,2,0,180,180,0.3482174999990093,['y'],0.3487115000025369,2.0,2538.116666799997,,,,,507,18,Woman,Left,
,,,,,,,,,,,,,,,,,507,18,Woman,Left,5,11,0.4,2,180,0,0,1.0599485999991884,['y'],0.33307799999965937,2.0,2541.967438599997,,,,,507,18,Woman,Left,
,,,,,,,,,,,,,,,,,507,18,Woman,Left,5,67,0.15,2,180,0,0,1.1517579999999725,['y'],1.5325236000026052,1.6219999999999999,2546.999952299997,,,,,507,18,Woman,Left,
,,,,,,,,,,,,,,,,,507,18,Woman,Left,5,14,0.4,1,180,-,180,0.44582140000056825,['n'],0.7651772999997775,2.0,2550.783796399999,,,,,507,18,Woman,Left,
,,,,,,,,,,,,,,,,,507,18,Woman,Left,5,64,0.15,1,0,-,180,1.3127802000017255,['n'],1.1966779000031238,1.0,2555.9838402999994,,,,,507,18,Woman,Left,
,,,,,,,,,,,,,,,,,507,18,Woman,Left,5,52,0.15,1,0,-,0,0.6309275000021444,['n'],0.2686682000021392,1.326,2559.316169599999,,,,,507,18,Woman,Left,
,,,,,,,,,,,,,,,,,507,18,Woman,Left,5,51,0.15,2,180,0,0,1.8337213000013435,['y'],0.7008743999977014,1.0,2564.467060199997,,,,,507,18,Woman,Left,
,,,,,,,,,,,,,,,,,507,18,Woman,Left,5,44,0.15,1,0,-,0,0.9283404000016162,['n'],2.4449581999979273,1.192,2571.4830785999984,,,,,507,18,Woman,Left,
,,,,,,,,,,,,,,,,,507,18,Woman,Left,5,70,0.15,1,180,-,0,0.5453536000022723,['n'],1.8686548000005132,1.6139999999999999,2578.950085799999,,,,,507,18,Woman,Left,
,,,,,,,,,,,,,,,,,507,18,Woman,Left,5,43,0.4,2,180,0,0,0.7602638999996998,['y'],0.2851178999990225,2.0,2582.615840299997,,,,,507,18,Woman,Left,
,,,,,,,,,,,,,,,,,507,18,Woman,Left,5,61,0.15,2,0,180,180,0.9520384999996168,['n'],0.5887894000006781,1.6400000000000001,2586.6324497999994,,,,,507,18,Woman,Left,
,,,,,,,,,,,,,,,,,507,18,Woman,Left,5,49,0.15,2,0,180,180,0.6701654999997118,['y'],0.3327030000000377,1.608,2590.2502281999987,,,,,507,18,Woman,Left,
,,,,,,,,,,,,,,,,,507,18,Woman,Left,5,0,1,1,0,-,0,0.3653773000005458,['n'],0.2687426999982563,2.0,2593.265849899999,,,,,507,18,Woman,Left,
,,,,,,,,,,,,,,,,,507,18,Woman,Left,5,32,0.4,1,0,-,0,0.2382285999992746,['n'],0.8285485999986122,2.0,2596.749665299998,,,,,507,18,Woman,Left,
,,,,,,,,,,,,,,,,,507,18,Woman,Left,5,21,0.4,2,0,180,180,0.45707340000080876,['n'],0.27729440000257455,1.0,2601.166502799999,,,,,507,18,Woman,Left,
,,,,,,,,,,,,,,,,,507,18,Woman,Left,5,78,0.15,1,180,-,180,0.6831746000025305,['n'],0.3085757000008016,1.188,2606.365763799997,,,,,507,18,Woman,Left,
,,,,,,,,,,,,,,,,,507,18,Woman,Left,5,65,0.15,2,0,180,180,1.8667510999985097,['y'],0.2607108000011067,1.224,2611.1499702,,,,,507,18,Woman,Left,
,,,,,,,,,,,,,,,,,507,18,Woman,Left,5,50,0.15,1,180,-,0,1.5608943000006548,['n'],2.4373889999988023,1.3,2618.5488643999997,,,,,507,18,Woman,Left,
,,,,,,,,,,,,,,,,,507,18,Woman,Left,5,46,0.15,1,180,-,0,0.5601710999981151,['n'],0.9090977999985626,1.3679999999999999,2624.2834410999967,,,,,507,18,Woman,Left,
,,,,,,,,,,,,,,,,,507,18,Woman,Left,5,30,0.4,1,180,-,180,0.6661834000005911,['n'],0.8290058999991743,2.0,2629.133185699997,,,,,507,18,Woman,Left,
,,,,,,,,,,,,,,,,,507,18,Woman,Left,5,40,0.4,1,0,-,0,0.27409560000160127,['y'],1.661165700003039,1.0,2634.5503505999986,,,,,507,18,Woman,Left,
,,,,,,,,,,,,,,,,,507,18,Woman,Left,5,33,0.4,2,0,180,180,1.1620156999997562,['y'],0.3087027000001399,2.0,2639.016546699997,,,,,507,18,Woman,Left,
,,,,,,,,,,,,,,,,,507,18,Woman,Left,5,34,0.4,1,180,-,180,0.4890043000013975,['n'],0.3092198999984248,2.0,2642.4328056999984,,,,,507,18,Woman,Left,
,,,,,,,,,,,,,,,,,507,18,Woman,Left,5,77,0.15,2,0,180,180,1.1038017999999283,['y'],0.5007729999997537,2.0,2646.5659098999968,,,,,507,18,Woman,Left,
,,,,,,,,,,,,,,,,,507,18,Woman,Left,5,24,0.4,1,0,-,0,1.3079949999992095,['n'],1.1328044999972917,1.708,2651.6998201999995,,,,,507,18,Woman,Left,
,,,,,,,,,,,,,,,,,507,18,Woman,Left,5,63,0.15,2,180,0,0,1.7701010000018869,['n'],0.46073120000073686,1.6,2657.1660381999973,,,,,507,18,Woman,Left,
,,,,,,,,,,,,,,,,,507,18,Woman,Left,5,48,0.15,1,0,-,0,0.5206439000030514,['n'],0.38956920000055106,1.324,2660.5827082999967,,,,,507,18,Woman,Left,
,,,,,,,,,,,,,,,,,507,18,Woman,Left,5,69,0.15,2,0,180,180,1.9212254000012763,['n'],2.1168648999992,1.274,2667.382603899998,,,,,507,18,Woman,Left,
,,,,,,,,,,,,,,,,,507,18,Woman,Left,5,56,0.15,1,0,-,0,0.3071380000001227,['y'],3.8852735000000393,1.388,2674.3996819999993,,,,,507,18,Woman,Left,
,,,,,,,,,,,,,,,,,507,18,Woman,Left,5,9,0.4,2,0,180,180,0.6648182999997516,['y'],0.5728783000013209,2.0,2678.215986299998,,,,,507,18,Woman,Left,
,,,,,,,,,,,,,,,,,507,18,Woman,Left,5,22,0.4,1,180,-,180,0.3924342999998771,['y'],0.31740440000066883,2.0,2681.2828066,,,,,507,18,Woman,Left,
,,,,,,,,,,,,,,,,,507,18,Woman,Left,5,17,0.4,2,0,180,180,0.4300217000018165,['y'],1.7333607000000484,2.0,2685.8824330999996,,,,,507,18,Woman,Left,
,,,,,,,,,,,,,,,,,507,18,Woman,Left,5,29,0.4,2,0,180,180,0.6602636999996321,['y'],0.6128834000010102,2.0,2689.649243,,,,,507,18,Woman,Left,
,,,,,,,,,,,,,,,,,507,18,Woman,Left,5,73,0.15,2,0,180,180,1.13706639999873,['y'],0.4288675999996485,2.0,2693.6322564999973,,,,,507,18,Woman,Left,
,,,,,,,,,,,,,,,,,507,18,Woman,Left,5,2,1,1,180,-,180,0.9681646999997611,['n'],0.701067799996963,2.0,2698.332768799999,,,,,507,18,Woman,Left,
,,,,,,,,,,,,,,,,,507,18,Woman,Left,5,47,0.15,2,180,0,0,0.8909686000006332,['y'],0.2289533000002848,2.0,2701.982850499997,,,,,507,18,Woman,Left,
,,,,,,,,,,,,,,,,,507,18,Woman,Left,5,54,0.15,1,180,-,180,0.4331359000025259,['n'],0.2768541000004916,1.706,2705.4149005,,,,,507,18,Woman,Left,
,,,,,,,,,,,,,,,,,507,18,Woman,Left,5,66,0.15,1,180,-,180,0.620823899997049,['n'],1.061475499998778,1.828,2710.0324089999995,,,,,507,18,Woman,Left,
,,,,,,,,,,,,,,,,,507,18,Woman,Left,5,3,1,2,180,0,0,0.7898183999968751,['y'],0.565071999997599,2.0,2714.1151532999975,,,,,507,18,Woman,Left,
,,,,,,,,,,,,,,,,,507,18,Woman,Left,5,20,0.4,1,0,-,0,0.49263499999869964,['n'],0.23758269999962067,2.0,2717.232240999998,,,,,507,18,Woman,Left,
,,,,,,,,,,,,,,,,,507,18,Woman,Left,5,39,0.4,2,180,0,0,0.48587359999874025,['y'],0.4617078999981459,2.0,2720.732151199998,,,,,507,18,Woman,Left,
,,,,,,,,,,,,,,,,,507,18,Woman,Left,5,37,0.4,2,0,180,180,0.4759955000008631,['y'],1.1969199999984994,2.0,2724.9992835999983,,,,,507,18,Woman,Left,
,,,,,,,,,,,,,,,,,507,18,Woman,Left,5,27,0.4,2,180,0,0,0.6639993999997387,['y'],0.8216279999978724,2.0,2728.915109399997,,,,,507,18,Woman,Left,
,,,,,,,,,,,,,,,,,507,18,Woman,Left,5,15,0.4,2,180,0,0,0.6290039000014076,['y'],1.4932642000021588,2.0,2733.5151799999985,,,,,507,18,Woman,Left,
,,,,,,,,,,,,,,,,,507,18,Woman,Left,5,76,0.15,1,0,-,0,1.0841332000018156,['n'],0.8293467000003147,1.558,2737.8658383,,,,,507,18,Woman,Left,
,,,,,,,,,,,,,,,,,507,18,Woman,Left,5,57,0.15,2,0,180,0,0.6266200000027311,['n'],2.5178558000006888,1.354,2744.5153697999995,,,,,507,18,Woman,Left,
,,,,,,,,,,,,,,,,,507,18,Woman,Left,5,71,0.15,2,180,0,0,0.6150070000003325,['n'],1.19736550000016,1.018,2749.5981426,,,,,507,18,Woman,Left,
,,,,,,,,,,,,,,,,,507,18,Woman,Left,5,4,1,1,0,-,0,1.0370967000017117,['n'],0.26951529999860213,2.0,2753.6982267999992,,,,,507,18,Woman,Left,
,,,,,,,,,,,,,,,,,507,18,Woman,Left,5,16,0.4,1,0,-,0,0.17282340000019758,['n'],0.366036700001132,2.0,2756.7316396999995,,,,,507,18,Woman,Left,
,,,,,,,,,,,,,,,,,507,18,Woman,Left,5,59,0.15,2,180,0,0,0.6683907000006002,['n'],0.28563819999908446,1.55,2760.1649236999983,,,,,507,18,Woman,Left,
,,,,,,,,,,,,,,,,,507,18,Woman,Left,5,6,1,1,180,-,180,0.26614859999972396,['n'],0.3657430999992357,2.0,2763.382205599999,,,,,507,18,Woman,Left,
,,,,,,,,,,,,,,,,,507,18,Woman,Left,5,18,0.4,1,180,-,180,0.3136329000008118,['n'],1.293584800001554,2.0,2767.8150714999974,,,,,507,18,Woman,Left,
,,,,,,,,,,,,,,,,,507,18,Woman,Left,5,7,1,2,180,0,0,0.696310799998173,['y'],0.26162119999935385,2.0,2771.3651634999987,,,,,507,18,Woman,Left,
,,,,,,,,,,,,,,,,,507,18,Woman,Left,5,74,0.15,1,180,-,180,0.6345125999978336,['n'],0.42143420000138576,1.276,2775.4483507999976,,,,,507,18,Woman,Left,
,,,,,,,,,,,,,,,,,507,18,Woman,Left,5,75,0.15,2,180,0,0,1.112433599999349,['y'],0.2857652999991842,1.7,2779.3317867999976,,,,,507,18,Woman,Left,
,,,,,,,,,,,,,,,,,507,18,Woman,Left,5,13,0.4,2,0,180,180,0.4836679000000004,['y'],1.4051151999992726,2.0,2783.814735,,,,,507,18,Woman,Left,
,,,,,,,,,,,,,,,,,,,,,,,,,,,,,,,,,88.75,90.0,80.0,2470.3602850999996,,,,,
