p_block,p_section,p_coherence,p_direction1,p_direction2,p_direction_response,p_direction_RT,p_change_response,p_change_RT,p_confidence,p_full_correct,p_without5_correct,p_full_total,p_without5_total,p_full_avg,p_witout5_avg,p_total_time,sub,age,sex,handedness,loop,trial randomization,coherence,condition,direction1,direction2,direction_response,direction_RT,change_response,change_RT,change_confidence,change_confidence_RT,block_direction_avg,block_stable_avg,block_change_avg,total_time,sub,age,sex,handedness,
1,1,1.0,0,-,0,2.357647799999995,-,-,-,,,,,,,,557,18,Woman,Right,,,,,,,,,,,,,,,,,557,18,Woman,Right,
1,1,1.0,180,-,180,0.01671049999981733,-,-,-,,,,,,,,557,18,Woman,Right,,,,,,,,,,,,,,,,,557,18,Woman,Right,
1,1,1.0,180,-,180,0.3947382999999718,-,-,-,,,,,,,,557,18,Woman,Right,,,,,,,,,,,,,,,,,557,18,Woman,Right,
1,1,1.0,0,-,0,0.016665700000203287,-,-,-,,,,,,,,557,18,Woman,Right,,,,,,,,,,,,,,,,,557,18,Woman,Right,
1,1,1.0,0,-,0,0.016738500000201384,-,-,-,,,,,,,,557,18,Woman,Right,,,,,,,,,,,,,,,,,557,18,Woman,Right,
1,1,1.0,0,-,0,0.2401107000000593,-,-,-,,,,,,,,557,18,Woman,Right,,,,,,,,,,,,,,,,,557,18,Woman,Right,
1,1,1.0,180,-,180,0.01672000000007756,-,-,-,,,,,,,,557,18,Woman,Right,,,,,,,,,,,,,,,,,557,18,Woman,Right,
1,1,1.0,0,-,0,0.016750199999933102,-,-,-,,,,,,,,557,18,Woman,Right,,,,,,,,,,,,,,,,,557,18,Woman,Right,
1,1,1.0,0,-,0,0.2519053000000895,-,-,-,,,,,,,,557,18,Woman,Right,,,,,,,,,,,,,,,,,557,18,Woman,Right,
1,1,1.0,0,-,0,0.09190920000014557,-,-,-,10,10,10,10,1.0,1.0,,557,18,Woman,Right,,,,,,,,,,,,,,,,,557,18,Woman,Right,
2,1,0.4,0,-,0,1.1283664999998564,-,-,-,,,,,,,,557,18,Woman,Right,,,,,,,,,,,,,,,,,557,18,Woman,Right,
2,1,0.15,0,-,180,1.1331066000000192,-,-,-,,,,,,,,557,18,Woman,Right,,,,,,,,,,,,,,,,,557,18,Woman,Right,
2,1,0.4,180,-,180,0.32972090000021126,-,-,-,,,,,,,,557,18,Woman,Right,,,,,,,,,,,,,,,,,557,18,Woman,Right,
2,1,0.15,0,-,0,0.5910702999999558,-,-,-,,,,,,,,557,18,Woman,Right,,,,,,,,,,,,,,,,,557,18,Woman,Right,
2,1,0.15,180,-,180,0.3778027999999267,-,-,-,,,,,,,,557,18,Woman,Right,,,,,,,,,,,,,,,,,557,18,Woman,Right,
2,1,0.4,180,-,180,0.38093739999999343,-,-,-,,,,,,,,557,18,Woman,Right,,,,,,,,,,,,,,,,,557,18,Woman,Right,
2,1,0.15,180,-,0,0.4403929000000062,-,-,-,,,,,,,,557,18,Woman,Right,,,,,,,,,,,,,,,,,557,18,Woman,Right,
2,1,0.4,0,-,0,1.528813899999932,-,-,-,,,,,,,,557,18,Woman,Right,,,,,,,,,,,,,,,,,557,18,Woman,Right,
2,1,0.15,0,-,0,0.67837180000015,-,-,-,,,,,,,,557,18,Woman,Right,,,,,,,,,,,,,,,,,557,18,Woman,Right,
2,1,0.4,0,-,0,0.800164900000027,-,-,-,8,5,10,5,0.8,1.0,,557,18,Woman,Right,,,,,,,,,,,,,,,,,557,18,Woman,Right,
3,2,1.0,0,180,180,5.547010499999942,['y'],5.44652229999997,2,,,,,,,,557,18,Woman,Right,,,,,,,,,,,,,,,,,557,18,Woman,Right,
3,2,1.0,180,0,0,1.9355275999998867,['y'],1.7383603000000676,1.984,,,,,,,,557,18,Woman,Right,,,,,,,,,,,,,,,,,557,18,Woman,Right,
3,2,1.0,0,180,180,1.4625012000001334,['y'],1.2296212999999625,1.994,,,,,,,,557,18,Woman,Right,,,,,,,,,,,,,,,,,557,18,Woman,Right,
3,2,1.0,0,180,180,1.9120272000000114,['y'],2.262530599999991,1.992,,,,,,,,557,18,Woman,Right,,,,,,,,,,,,,,,,,557,18,Woman,Right,
3,2,1.0,180,0,0,0.8203519000001052,['y'],0.86818930000004,1.99,,,,,,,,557,18,Woman,Right,,,,,,,,,,,,,,,,,557,18,Woman,Right,
3,2,1.0,0,180,180,1.0840620999999828,['y'],1.0095725999999559,2.0,,,,,,,,557,18,Woman,Right,,,,,,,,,,,,,,,,,557,18,Woman,Right,
3,2,1.0,0,180,180,0.8077181999999539,['y'],0.45643250000011903,1.986,,,,,,,,557,18,Woman,Right,,,,,,,,,,,,,,,,,557,18,Woman,Right,
3,2,1.0,180,0,0,0.6357860000000528,['y'],0.963341200000059,1.986,,,,,,,,557,18,Woman,Right,,,,,,,,,,,,,,,,,557,18,Woman,Right,
3,2,1.0,180,0,0,0.36903849999998783,['y'],1.4837326000001667,2.0,,,,,,,,557,18,Woman,Right,,,,,,,,,,,,,,,,,557,18,Woman,Right,
3,2,1.0,180,0,0,0.3232817000000523,['y'],0.7354663000000983,1.99,10,10,10,10,1.0,1.0,,557,18,Woman,Right,,,,,,,,,,,,,,,,,557,18,Woman,Right,
4,2,0.15,180,0,0,2.1056765999999243,['n'],1.542258800000127,1.0,,,,,,,,557,18,Woman,Right,,,,,,,,,,,,,,,,,557,18,Woman,Right,
4,2,0.4,0,180,180,2.2411431999998968,['y'],1.3449004999999943,1.804,,,,,,,,557,18,Woman,Right,,,,,,,,,,,,,,,,,557,18,Woman,Right,
4,2,0.15,0,180,180,1.7336480999999822,['y'],0.761821399999917,1.87,,,,,,,,557,18,Woman,Right,,,,,,,,,,,,,,,,,557,18,Woman,Right,
4,2,0.4,0,180,180,1.5637845999999627,['y'],1.3422255000000405,1.8719999999999999,,,,,,,,557,18,Woman,Right,,,,,,,,,,,,,,,,,557,18,Woman,Right,
4,2,0.15,0,180,180,0.8046225999999024,['y'],0.30976719999989655,1.8719999999999999,,,,,,,,557,18,Woman,Right,,,,,,,,,,,,,,,,,557,18,Woman,Right,
4,2,0.4,180,0,0,0.4259428999998818,['y'],0.33965009999997164,1.8719999999999999,,,,,,,,557,18,Woman,Right,,,,,,,,,,,,,,,,,557,18,Woman,Right,
4,2,0.4,180,0,0,0.3117322000000513,['y'],0.5972328999998808,1.8719999999999999,,,,,,,,557,18,Woman,Right,,,,,,,,,,,,,,,,,557,18,Woman,Right,
4,2,0.4,180,0,0,0.3245987000000241,['y'],0.45770329999982096,1.8719999999999999,,,,,,,,557,18,Woman,Right,,,,,,,,,,,,,,,,,557,18,Woman,Right,
4,2,0.4,0,180,180,0.3786348999999518,['y'],0.8935736999999335,1.8719999999999999,,,,,,,,557,18,Woman,Right,,,,,,,,,,,,,,,,,557,18,Woman,Right,
4,2,0.4,0,180,180,0.28968239999994694,['y'],0.3906741000000693,1.8719999999999999,10,7,10,7,1.0,1.0,,557,18,Woman,Right,,,,,,,,,,,,,,,,,557,18,Woman,Right,
5,3,0.15,180,0,180,2.2187842999999248,['y'],0.6988714999999956,1.012,,,,,,,,557,18,Woman,Right,,,,,,,,,,,,,,,,,557,18,Woman,Right,
5,3,1.0,180,-,180,1.488042600000199,['n'],1.140846300000021,1.91,,,,,,,,557,18,Woman,Right,,,,,,,,,,,,,,,,,557,18,Woman,Right,
5,3,0.4,0,-,0,0.8049777000001086,['n'],0.678263300000026,1.9,,,,,,,,557,18,Woman,Right,,,,,,,,,,,,,,,,,557,18,Woman,Right,
5,3,0.15,180,-,180,0.8834589999999025,['n'],0.7624599999999191,1.9,,,,,,,,557,18,Woman,Right,,,,,,,,,,,,,,,,,557,18,Woman,Right,
5,3,0.15,0,180,180,0.58670189999998,['n'],0.3973469000000023,1.048,,,,,,,,557,18,Woman,Right,,,,,,,,,,,,,,,,,557,18,Woman,Right,
5,3,0.4,180,0,0,0.6334794999997939,['y'],0.832415200000014,1.95,,,,,,,,557,18,Woman,Right,,,,,,,,,,,,,,,,,557,18,Woman,Right,
5,3,0.15,0,180,180,0.7607124999999542,['y'],0.7723092999999608,1.97,,,,,,,,557,18,Woman,Right,,,,,,,,,,,,,,,,,557,18,Woman,Right,
5,3,0.15,180,-,0,0.6094904999999926,['n'],3.090748500000018,1.688,,,,,,,,557,18,Woman,Right,,,,,,,,,,,,,,,,,557,18,Woman,Right,
5,3,0.4,0,180,180,0.40466089999995347,['y'],1.2463508999999249,1.908,,,,,,,,557,18,Woman,Right,,,,,,,,,,,,,,,,,557,18,Woman,Right,
5,3,0.15,180,-,0,1.3268556000000444,['n'],0.8593441000000439,1.446,7,4,10,4,0.7,1.0,,557,18,Woman,Right,,,,,,,,,,,,,,,,,557,18,Woman,Right,
,,,,,,,,,,,,,,,,6.600000006073969e-06,557,18,Woman,Right,,,,,,,,,,,,,,,,,557,18,Woman,Right,
,,,,,,,,,,,,,,,,,557,18,Woman,Right,0,2,1,1,180,-,180,0.6817960000000767,['n'],3.8948710999998184,1.978,315.45224010000015,,,,,557,18,Woman,Right,
,,,,,,,,,,,,,,,,,557,18,Woman,Right,0,35,0.4,2,180,0,0,0.7051206999999522,['y'],1.5346139999999195,1.914,320.6191722000001,,,,,557,18,Woman,Right,
,,,,,,,,,,,,,,,,,557,18,Woman,Right,0,37,0.4,2,0,180,180,2.124798900000087,['y'],1.4706081000001632,1.728,329.1189731000002,,,,,557,18,Woman,Right,
,,,,,,,,,,,,,,,,,557,18,Woman,Right,0,10,0.4,1,180,-,180,3.1839820000000145,['n'],1.1664100999998936,1.73,336.28569990000005,,,,,557,18,Woman,Right,
,,,,,,,,,,,,,,,,,557,18,Woman,Right,0,73,0.15,2,0,180,0,1.7027852999999595,['n'],1.0709102000000712,1.73,341.9193534000001,,,,,557,18,Woman,Right,
,,,,,,,,,,,,,,,,,557,18,Woman,Right,0,47,0.15,2,180,0,0,0.9611280999999963,['y'],1.335006900000053,1.73,347.1523851000002,,,,,557,18,Woman,Right,
,,,,,,,,,,,,,,,,,557,18,Woman,Right,0,67,0.15,2,180,0,0,1.3498845999999958,['n'],1.1823065999999471,1.272,352.81902860000014,,,,,557,18,Woman,Right,
,,,,,,,,,,,,,,,,,557,18,Woman,Right,0,26,0.4,1,180,-,180,1.5050093999998353,['n'],1.366738400000031,1.286,359.6191172000001,,,,,557,18,Woman,Right,
,,,,,,,,,,,,,,,,,557,18,Woman,Right,0,62,0.15,1,180,-,180,0.9634829999999965,['n'],1.3589640999998664,1.3820000000000001,364.9525436000001,,,,,557,18,Woman,Right,
,,,,,,,,,,,,,,,,,557,18,Woman,Right,0,18,0.4,1,180,-,180,0.5493598000000475,['n'],1.2947891999999683,1.706,369.6358602,,,,,557,18,Woman,Right,
,,,,,,,,,,,,,,,,,557,18,Woman,Right,0,48,0.15,1,0,-,0,0.3819490999999289,['n'],0.9509255000000394,1.672,373.51939200000015,,,,,557,18,Woman,Right,
,,,,,,,,,,,,,,,,,557,18,Woman,Right,0,16,0.4,1,0,-,0,0.5198844000001372,['n'],0.9672686999999769,1.682,377.5527923000002,,,,,557,18,Woman,Right,
,,,,,,,,,,,,,,,,,557,18,Woman,Right,0,12,0.4,1,0,-,0,0.6566640999999436,['n'],1.0630524000000605,1.682,381.78617570000006,,,,,557,18,Woman,Right,
,,,,,,,,,,,,,,,,,557,18,Woman,Right,0,24,0.4,1,0,-,0,1.2738641000000825,['n'],1.199281300000166,1.682,386.6859694000002,,,,,557,18,Woman,Right,
,,,,,,,,,,,,,,,,,557,18,Woman,Right,0,66,0.15,1,180,-,180,3.911830499999951,['n'],2.590872700000091,1.1059999999999999,396.76940620000005,,,,,557,18,Woman,Right,
,,,,,,,,,,,,,,,,,557,18,Woman,Right,0,75,0.15,2,180,0,180,0.9306845999999496,['n'],1.102775999999949,1.194,402.21939410000005,,,,,557,18,Woman,Right,
,,,,,,,,,,,,,,,,,557,18,Woman,Right,0,56,0.15,1,0,-,180,1.1338796000000002,['n'],1.7348789000000124,1.28,408.0527809,,,,,557,18,Woman,Right,
,,,,,,,,,,,,,,,,,557,18,Woman,Right,0,11,0.4,2,180,0,0,0.8303455000000213,['y'],1.278602200000023,1.6640000000000001,413.1027917000001,,,,,557,18,Woman,Right,
,,,,,,,,,,,,,,,,,557,18,Woman,Right,0,41,0.4,2,0,180,180,0.5586339000001317,['y'],1.2391258999998627,1.298,417.8193824,,,,,557,18,Woman,Right,
,,,,,,,,,,,,,,,,,557,18,Woman,Right,0,31,0.4,2,180,0,0,0.40492669999980535,['y'],1.0946230000001833,1.654,422.4362520000002,,,,,557,18,Woman,Right,
,,,,,,,,,,,,,,,,,557,18,Woman,Right,0,13,0.4,2,0,180,180,0.3151209000000108,['y'],1.287185000000136,1.686,427.00280540000017,,,,,557,18,Woman,Right,
,,,,,,,,,,,,,,,,,557,18,Woman,Right,0,65,0.15,2,0,180,0,1.4449867999999242,['n'],1.1107210999998642,1.6360000000000001,432.23692700000015,,,,,557,18,Woman,Right,
,,,,,,,,,,,,,,,,,557,18,Woman,Right,0,57,0.15,2,0,180,0,1.8489184000000023,['n'],1.031286899999941,1.6360000000000001,437.6530415000002,,,,,557,18,Woman,Right,
,,,,,,,,,,,,,,,,,557,18,Woman,Right,0,60,0.15,1,0,-,180,0.5155412000001434,['n'],1.0552156000001105,1.698,442.2865598000001,,,,,557,18,Woman,Right,
,,,,,,,,,,,,,,,,,557,18,Woman,Right,0,59,0.15,2,180,0,0,0.6044773000000987,['n'],0.9429490999998507,1.672,446.8198851000002,,,,,557,18,Woman,Right,
,,,,,,,,,,,,,,,,,557,18,Woman,Right,0,36,0.4,1,0,-,0,0.47412280000003193,['n'],1.5509766000000127,1.672,451.76987210000016,,,,,557,18,Woman,Right,
,,,,,,,,,,,,,,,,,557,18,Woman,Right,0,14,0.4,1,180,-,180,0.3535856999999396,['n'],0.942935400000124,1.69,455.8215523000001,,,,,557,18,Woman,Right,
,,,,,,,,,,,,,,,,,557,18,Woman,Right,0,69,0.15,2,0,180,0,1.7409975000000486,['n'],0.9992708999998285,1.8639999999999999,461.0531149000001,,,,,557,18,Woman,Right,
,,,,,,,,,,,,,,,,,557,18,Woman,Right,0,28,0.4,1,0,-,180,0.9782436000000416,['n'],1.126871299999948,1.1219999999999999,465.9366162000001,,,,,557,18,Woman,Right,
,,,,,,,,,,,,,,,,,557,18,Woman,Right,0,1,1,2,0,180,180,0.8500360000000455,['y'],1.4876010999998925,1.8439999999999999,471.3531531000001,,,,,557,18,Woman,Right,
,,,,,,,,,,,,,,,,,557,18,Woman,Right,0,20,0.4,1,0,-,0,0.7163775999999871,['n'],1.4948263999999654,1.8639999999999999,476.11975860000007,,,,,557,18,Woman,Right,
,,,,,,,,,,,,,,,,,557,18,Woman,Right,0,29,0.4,2,0,180,180,0.5256819000001087,['n'],1.1109146000001147,1.8599999999999999,480.65317070000015,,,,,557,18,Woman,Right,
,,,,,,,,,,,,,,,,,557,18,Woman,Right,0,53,0.15,2,0,180,180,0.9995051000000785,['n'],0.9750023999999939,1.654,485.8198654,,,,,557,18,Woman,Right,
,,,,,,,,,,,,,,,,,557,18,Woman,Right,0,38,0.4,1,180,-,180,0.3476765999998861,['n'],0.9267710000001443,1.9020000000000001,490.4532273,,,,,557,18,Woman,Right,
,,,,,,,,,,,,,,,,,557,18,Woman,Right,0,27,0.4,2,180,0,0,0.52427160000002,['n'],1.7827007999999296,1.938,495.77032710000003,,,,,557,18,Woman,Right,
,,,,,,,,,,,,,,,,,557,18,Woman,Right,0,76,0.15,1,0,-,0,0.645222399999966,['n'],1.0390110999999251,1.938,500.66994880000016,,,,,557,18,Woman,Right,
,,,,,,,,,,,,,,,,,557,18,Woman,Right,0,25,0.4,2,0,180,180,0.3789214000000811,['n'],1.2708681000001434,1.916,504.9368177000001,,,,,557,18,Woman,Right,
,,,,,,,,,,,,,,,,,557,18,Woman,Right,0,40,0.4,1,0,-,0,0.5955524000000878,['n'],1.0149315000001025,1.914,508.8702270000001,,,,,557,18,Woman,Right,
,,,,,,,,,,,,,,,,,557,18,Woman,Right,0,7,1,2,180,0,0,0.5736211999999341,['y'],1.1028923999999733,1.912,513.1534643,,,,,557,18,Woman,Right,
,,,,,,,,,,,,,,,,,557,18,Woman,Right,0,77,0.15,2,0,180,0,0.9210253999999622,['n'],1.2868122999998377,1.888,517.7536823,,,,,557,18,Woman,Right,
,,,,,,,,,,,,,,,,,557,18,Woman,Right,0,64,0.15,1,0,-,180,1.3435170000000198,['n'],1.0628061999998408,1.322,522.8868606000001,,,,,557,18,Woman,Right,
,,,,,,,,,,,,,,,,,557,18,Woman,Right,0,49,0.15,2,0,180,180,0.853268000000071,['n'],0.9508527999998933,1.3980000000000001,527.5867430000001,,,,,557,18,Woman,Right,
,,,,,,,,,,,,,,,,,557,18,Woman,Right,0,61,0.15,2,0,180,180,2.083460500000001,['n'],1.1217088000000786,1.1280000000000001,535.1703628,,,,,557,18,Woman,Right,
,,,,,,,,,,,,,,,,,557,18,Woman,Right,0,51,0.15,2,180,0,180,1.7954517000000578,['n'],3.9905175000001236,1.182,543.8035829,,,,,557,18,Woman,Right,
,,,,,,,,,,,,,,,,,557,18,Woman,Right,0,39,0.4,2,180,0,0,0.788945700000113,['y'],1.5027651000000333,1.93,549.0538971000001,,,,,557,18,Woman,Right,
,,,,,,,,,,,,,,,,,557,18,Woman,Right,0,58,0.15,1,180,-,180,0.5949071999998523,['n'],1.102867500000002,1.814,553.3369134000002,,,,,557,18,Woman,Right,
,,,,,,,,,,,,,,,,,557,18,Woman,Right,0,3,1,2,180,0,0,0.49874019999992925,['y'],1.0467247999999927,1.778,557.1868715,,,,,557,18,Woman,Right,
,,,,,,,,,,,,,,,,,557,18,Woman,Right,0,55,0.15,2,180,0,0,1.0794015999999829,['n'],1.3106480000001284,1.896,562.0369337000002,,,,,557,18,Woman,Right,
,,,,,,,,,,,,,,,,,557,18,Woman,Right,0,33,0.4,2,0,180,180,0.4509037999998782,['y'],0.9824264000001222,1.948,566.9704974000001,,,,,557,18,Woman,Right,
,,,,,,,,,,,,,,,,,557,18,Woman,Right,0,8,0.4,1,0,-,0,0.5659828000000289,['n'],1.1187236999999186,1.95,571.8703491000001,,,,,557,18,Woman,Right,
,,,,,,,,,,,,,,,,,557,18,Woman,Right,0,9,0.4,2,0,180,180,1.013971900000115,['y'],0.9267578999999841,1.926,576.1704673000002,,,,,557,18,Woman,Right,
,,,,,,,,,,,,,,,,,557,18,Woman,Right,0,74,0.15,1,180,-,180,0.9040919000001395,['n'],1.126504999999952,1.91,580.6387393,,,,,557,18,Woman,Right,
,,,,,,,,,,,,,,,,,557,18,Woman,Right,0,32,0.4,1,0,-,0,0.47179370000003473,['n'],1.0068648000001303,1.946,584.5704298,,,,,557,18,Woman,Right,
,,,,,,,,,,,,,,,,,557,18,Woman,Right,0,23,0.4,2,180,0,0,0.7502064999998765,['n'],1.0664271000000554,1.282,591.7038086,,,,,557,18,Woman,Right,
,,,,,,,,,,,,,,,,,557,18,Woman,Right,0,0,1,1,0,-,0,0.5509784999999283,['n'],1.590948299999809,1.936,596.7205792000002,,,,,557,18,Woman,Right,
,,,,,,,,,,,,,,,,,557,18,Woman,Right,0,5,1,2,0,180,180,0.690336299999899,['y'],3.039020100000016,1.84,603.3206011000002,,,,,557,18,Woman,Right,
,,,,,,,,,,,,,,,,,557,18,Woman,Right,0,42,0.4,1,180,-,180,0.6555200000000241,['n'],1.0390348000000813,1.854,607.5372076000001,,,,,557,18,Woman,Right,
,,,,,,,,,,,,,,,,,557,18,Woman,Right,0,21,0.4,2,0,180,180,1.5938496999999643,['y'],1.4948793000000933,1.8860000000000001,613.0539788000001,,,,,557,18,Woman,Right,
,,,,,,,,,,,,,,,,,557,18,Woman,Right,0,44,0.15,1,0,-,0,1.2775844000000234,['y'],1.3829616000000442,1.8479999999999999,618.3544026000002,,,,,557,18,Woman,Right,
,,,,,,,,,,,,,,,,,557,18,Woman,Right,0,78,0.15,1,180,-,180,1.2582844999999452,['n'],1.9350198999998156,1.426,626.4541981,,,,,557,18,Woman,Right,
,,,,,,,,,,,,,,,,,557,18,Woman,Right,0,19,0.4,2,180,0,0,2.171586599999955,['y'],1.5988634000000275,1.674,633.7207338000001,,,,,557,18,Woman,Right,
,,,,,,,,,,,,,,,,,557,18,Woman,Right,0,15,0.4,2,180,0,0,0.8731596000000081,['y'],1.0384010000000217,1.858,638.9541124,,,,,557,18,Woman,Right,
,,,,,,,,,,,,,,,,,557,18,Woman,Right,0,22,0.4,1,180,-,180,0.5847764000000097,['n'],1.1346810000000005,1.838,643.1708544,,,,,557,18,Woman,Right,
,,,,,,,,,,,,,,,,,557,18,Woman,Right,0,54,0.15,1,180,-,180,0.5520216999998411,['n'],0.9908817999998973,1.838,647.2045161000001,,,,,557,18,Woman,Right,
,,,,,,,,,,,,,,,,,557,18,Woman,Right,0,34,0.4,1,180,-,180,0.4337442999999439,['n'],1.0046093999999357,1.838,650.970818,,,,,557,18,Woman,Right,
,,,,,,,,,,,,,,,,,557,18,Woman,Right,0,46,0.15,1,180,-,180,0.8307615999999598,['n'],0.9347665000000234,1.798,655.6208898,,,,,557,18,Woman,Right,
,,,,,,,,,,,,,,,,,557,18,Woman,Right,0,72,0.15,1,0,-,0,0.4145121999999901,['n'],1.1190297999999075,1.798,659.4709138000001,,,,,557,18,Woman,Right,
,,,,,,,,,,,,,,,,,557,18,Woman,Right,0,17,0.4,2,0,180,180,0.7281289000000015,['y'],0.8707081000000017,1.796,663.5045168000001,,,,,557,18,Woman,Right,
,,,,,,,,,,,,,,,,,557,18,Woman,Right,0,6,1,1,180,-,180,0.3538152999999511,['n'],0.9830505999998422,1.796,667.3044003,,,,,557,18,Woman,Right,
,,,,,,,,,,,,,,,,,557,18,Woman,Right,0,50,0.15,1,180,-,180,2.3365139,['n'],0.9429288999999699,1.03,674.5544810000001,,,,,557,18,Woman,Right,
,,,,,,,,,,,,,,,,,557,18,Woman,Right,0,4,1,1,0,-,0,0.803343699999914,['n'],0.9428193999999621,1.998,679.954289,,,,,557,18,Woman,Right,
,,,,,,,,,,,,,,,,,557,18,Woman,Right,0,43,0.4,2,180,0,0,1.2012771999998222,['y'],0.9428022000001874,1.9060000000000001,684.5548891000001,,,,,557,18,Woman,Right,
,,,,,,,,,,,,,,,,,557,18,Woman,Right,0,30,0.4,1,180,-,180,0.6058912999997119,['n'],1.1587075000002187,1.816,688.9379634,,,,,557,18,Woman,Right,
,,,,,,,,,,,,,,,,,557,18,Woman,Right,0,68,0.15,1,0,-,0,0.7611193999996431,['n'],1.366936099999748,1.816,693.8211064,,,,,557,18,Woman,Right,
,,,,,,,,,,,,,,,,,557,18,Woman,Right,0,71,0.15,2,180,0,0,1.6282716000000619,['n'],1.174997799999801,1.126,699.3544638999999,,,,,557,18,Woman,Right,
,,,,,,,,,,,,,,,,,557,18,Woman,Right,0,70,0.15,1,180,-,180,0.5398321999996369,['n'],0.8222320999998374,1.164,703.5211373,,,,,557,18,Woman,Right,
,,,,,,,,,,,,,,,,,557,18,Woman,Right,0,63,0.15,2,180,0,180,2.36690150000004,['n'],1.1237779999996746,1.138,709.8044882000002,,,,,557,18,Woman,Right,
,,,,,,,,,,,,,,,,,557,18,Woman,Right,0,79,0.15,2,180,0,0,2.143174899999849,['y'],1.0627921999998762,1.734,715.8545317999999,,,,,557,18,Woman,Right,
,,,,,,,,,,,,,,,,,557,18,Woman,Right,0,52,0.15,1,0,-,0,1.9481900000000678,['y'],1.0467545999999857,1.694,721.6211837000003,,,,,557,18,Woman,Right,
,,,,,,,,,,,,,,,,,557,18,Woman,Right,0,45,0.15,2,0,180,0,1.8684978999999657,['y'],1.6949996000003011,1.69,727.6712853000001,,,,,557,18,Woman,Right,
,,,,,,,,,,,,,,,,,557,18,Woman,Right,1,31,0.4,2,180,0,0,2.254559800000152,['y'],2.286441299999751,1.75,771.2715165000002,83.75,95.0,52.5,,557,18,Woman,Right,
,,,,,,,,,,,,,,,,,557,18,Woman,Right,1,77,0.15,2,0,180,0,1.2889405999999326,['y'],1.3108259000000544,1.774,776.3714962000001,,,,,557,18,Woman,Right,
,,,,,,,,,,,,,,,,,557,18,Woman,Right,1,41,0.4,2,0,180,180,0.7980721000003541,['y'],2.0229739999999765,1.774,781.7382625000002,,,,,557,18,Woman,Right,
,,,,,,,,,,,,,,,,,557,18,Woman,Right,1,76,0.15,1,0,-,0,0.45855100000017046,['n'],1.1590507000000798,1.774,786.1384962,,,,,557,18,Woman,Right,
,,,,,,,,,,,,,,,,,557,18,Woman,Right,1,57,0.15,2,0,180,180,0.8267980999999054,['y'],0.887151299999914,1.774,790.1896239,,,,,557,18,Woman,Right,
,,,,,,,,,,,,,,,,,557,18,Woman,Right,1,18,0.4,1,180,-,180,0.4799858999999742,['n'],0.9909662000000026,1.774,794.0722578000002,,,,,557,18,Woman,Right,
,,,,,,,,,,,,,,,,,557,18,Woman,Right,1,36,0.4,1,0,-,0,0.3811037000000397,['n'],1.0229444999999942,1.774,797.8050209999999,,,,,557,18,Woman,Right,
,,,,,,,,,,,,,,,,,557,18,Woman,Right,1,71,0.15,2,180,0,180,1.0216569999997773,['n'],0.8865491000001384,1.774,802.2053016000002,,,,,557,18,Woman,Right,
,,,,,,,,,,,,,,,,,557,18,Woman,Right,1,27,0.4,2,180,0,0,0.5272782000001826,['y'],1.8143912999998975,1.774,806.9882973000001,,,,,557,18,Woman,Right,
,,,,,,,,,,,,,,,,,557,18,Woman,Right,1,29,0.4,2,0,180,180,0.5030400999999074,['y'],1.0308901999997033,1.774,811.1550475000001,,,,,557,18,Woman,Right,
,,,,,,,,,,,,,,,,,557,18,Woman,Right,1,15,0.4,2,180,0,0,0.34380670000018654,['y'],0.9429703999999219,1.772,814.8717701000003,,,,,557,18,Woman,Right,
,,,,,,,,,,,,,,,,,557,18,Woman,Right,1,13,0.4,2,0,180,180,0.5416915000000699,['y'],0.7108158999999432,1.77,818.5383795,,,,,557,18,Woman,Right,
,,,,,,,,,,,,,,,,,557,18,Woman,Right,1,5,1,2,0,180,180,0.6730659999998352,['y'],0.6868961000000127,1.768,822.3386160000002,,,,,557,18,Woman,Right,
,,,,,,,,,,,,,,,,,557,18,Woman,Right,1,20,0.4,1,0,-,0,0.4442276999998285,['n'],1.278371899999911,1.9020000000000001,828.1384825000002,,,,,557,18,Woman,Right,
,,,,,,,,,,,,,,,,,557,18,Woman,Right,1,74,0.15,1,180,-,0,1.6258333000000675,['n'],1.3428126999997403,1.3,834.2888258,,,,,557,18,Woman,Right,
,,,,,,,,,,,,,,,,,557,18,Woman,Right,1,0,1,1,0,-,0,0.39189299999998184,['n'],1.399300200000198,1.9020000000000001,839.1552076999999,,,,,557,18,Woman,Right,
,,,,,,,,,,,,,,,,,557,18,Woman,Right,1,50,0.15,1,180,-,0,1.162306400000034,['n'],1.7910052000001997,1.828,845.2718399000003,,,,,557,18,Woman,Right,
,,,,,,,,,,,,,,,,,557,18,Woman,Right,1,51,0.15,2,180,0,180,0.48972279999998136,['n'],1.4631014999999934,1.828,850.0553267000003,,,,,557,18,Woman,Right,
,,,,,,,,,,,,,,,,,557,18,Woman,Right,1,40,0.4,1,0,-,0,0.5977004999999735,['n'],1.1270737999998346,1.83,854.5219994000001,,,,,557,18,Woman,Right,
,,,,,,,,,,,,,,,,,557,18,Woman,Right,1,67,0.15,2,180,0,180,2.979923399999734,['n'],1.0385787999998684,1.828,861.6055637000002,,,,,557,18,Woman,Right,
,,,,,,,,,,,,,,,,,557,18,Woman,Right,1,53,0.15,2,0,180,0,0.788914400000067,['n'],3.5509243000001334,1.828,868.5220429000003,,,,,557,18,Woman,Right,
,,,,,,,,,,,,,,,,,557,18,Woman,Right,1,43,0.4,2,180,0,0,0.8429458999999042,['y'],0.5907730000003539,1.828,872.7887651000003,,,,,557,18,Woman,Right,
,,,,,,,,,,,,,,,,,557,18,Woman,Right,1,25,0.4,2,0,180,180,1.0049942000000556,['y'],0.8549183000000085,1.828,877.1053981000002,,,,,557,18,Woman,Right,
,,,,,,,,,,,,,,,,,557,18,Woman,Right,1,11,0.4,2,180,0,0,0.40196500000001834,['y'],0.7265511000000515,1.828,880.8721694000003,,,,,557,18,Woman,Right,
,,,,,,,,,,,,,,,,,557,18,Woman,Right,1,2,1,1,180,-,180,0.635760499999833,['n'],1.1265997999998945,1.828,885.3054528,,,,,557,18,Woman,Right,
,,,,,,,,,,,,,,,,,557,18,Woman,Right,1,59,0.15,2,180,0,180,3.8334098999998787,['n'],1.3524571000002652,1.828,893.0388654999999,,,,,557,18,Woman,Right,
,,,,,,,,,,,,,,,,,557,18,Woman,Right,1,1,1,2,0,180,180,1.1402488999997331,['y'],1.3508778000000348,1.828,898.2055507000002,,,,,557,18,Woman,Right,
,,,,,,,,,,,,,,,,,557,18,Woman,Right,1,45,0.15,2,0,180,0,2.246067900000071,['y'],1.0868581999998241,1.208,904.8889443,,,,,557,18,Woman,Right,
,,,,,,,,,,,,,,,,,557,18,Woman,Right,1,70,0.15,1,180,-,0,0.905551899999864,['n'],3.350795199999993,1.6400000000000001,911.9555606000001,,,,,557,18,Woman,Right,
,,,,,,,,,,,,,,,,,557,18,Woman,Right,1,8,0.4,1,0,-,0,0.5741754999999102,['n'],1.134962799999812,1.6640000000000001,916.7389676999999,,,,,557,18,Woman,Right,
,,,,,,,,,,,,,,,,,557,18,Woman,Right,1,48,0.15,1,0,-,0,0.8010486999996829,['n'],1.198644399999921,1.658,921.1892424,,,,,557,18,Woman,Right,
,,,,,,,,,,,,,,,,,557,18,Woman,Right,1,33,0.4,2,0,180,180,0.9665827999997418,['y'],1.0623258999999052,1.772,926.8226138000002,,,,,557,18,Woman,Right,
,,,,,,,,,,,,,,,,,557,18,Woman,Right,1,37,0.4,2,0,180,180,0.7650029000001268,['y'],1.3905109000002085,1.724,931.7556861999999,,,,,557,18,Woman,Right,
,,,,,,,,,,,,,,,,,557,18,Woman,Right,1,47,0.15,2,180,0,0,0.6645908999998937,['y'],0.7031467000001612,1.726,935.7561897000003,,,,,557,18,Woman,Right,
,,,,,,,,,,,,,,,,,557,18,Woman,Right,1,38,0.4,1,180,-,180,0.6135977999997522,['n'],1.3587720000000445,1.768,940.6060462000003,,,,,557,18,Woman,Right,
,,,,,,,,,,,,,,,,,557,18,Woman,Right,1,3,1,2,180,0,0,0.7280730000002222,['y'],1.3508861999998771,1.768,945.2558480999999,,,,,557,18,Woman,Right,
,,,,,,,,,,,,,,,,,557,18,Woman,Right,1,64,0.15,1,0,-,0,0.8839321000000382,['n'],1.0949420000001737,1.876,949.7225783000001,,,,,557,18,Woman,Right,
,,,,,,,,,,,,,,,,,557,18,Woman,Right,1,19,0.4,2,180,0,0,0.6806627999999364,['y'],0.7027366000002075,1.88,953.689263,,,,,557,18,Woman,Right,
,,,,,,,,,,,,,,,,,557,18,Woman,Right,1,68,0.15,1,0,-,0,0.3895033999997395,['n'],1.078581000000213,1.8639999999999999,957.6562091000003,,,,,557,18,Woman,Right,
,,,,,,,,,,,,,,,,,557,18,Woman,Right,1,75,0.15,2,180,0,0,1.2045376000000942,['y'],0.7748109999997723,1.862,962.5559326,,,,,557,18,Woman,Right,
,,,,,,,,,,,,,,,,,557,18,Woman,Right,1,56,0.15,1,0,-,180,0.6748804999997446,['n'],1.0552605000002586,1.396,967.1071140000001,,,,,557,18,Woman,Right,
,,,,,,,,,,,,,,,,,557,18,Woman,Right,1,23,0.4,2,180,0,0,0.5906184000000394,['y'],0.5346859000001132,1.88,971.0726680999999,,,,,557,18,Woman,Right,
,,,,,,,,,,,,,,,,,557,18,Woman,Right,1,24,0.4,1,0,-,0,0.38801599999987957,['n'],0.9991439000000355,1.838,975.0393184000002,,,,,557,18,Woman,Right,
,,,,,,,,,,,,,,,,,557,18,Woman,Right,1,52,0.15,1,0,-,0,0.6451703999996425,['n'],0.8546429000002718,1.83,979.2229267,,,,,557,18,Woman,Right,
,,,,,,,,,,,,,,,,,557,18,Woman,Right,1,79,0.15,2,180,0,0,2.8132611999999426,['y'],1.23091149999982,1.744,987.7563184000003,,,,,557,18,Woman,Right,
,,,,,,,,,,,,,,,,,557,18,Woman,Right,1,17,0.4,2,0,180,180,0.8955480999998144,['y'],1.3191415000001143,1.78,993.2896673000002,,,,,557,18,Woman,Right,
,,,,,,,,,,,,,,,,,557,18,Woman,Right,1,61,0.15,2,0,180,180,1.2118131000001995,['y'],0.9186863999998423,1.818,998.6736492000002,,,,,557,18,Woman,Right,
,,,,,,,,,,,,,,,,,557,18,Woman,Right,1,42,0.4,1,180,-,0,0.676626099999794,['n'],1.0464304999995875,1.818,1003.0561839,,,,,557,18,Woman,Right,
,,,,,,,,,,,,,,,,,557,18,Woman,Right,1,39,0.4,2,180,0,0,0.7971228999999767,['y'],1.0553067999999257,1.812,1007.3394644000002,,,,,557,18,Woman,Right,
,,,,,,,,,,,,,,,,,557,18,Woman,Right,1,46,0.15,1,180,-,180,0.9170613999999659,['n'],0.9795249999997395,1.794,1011.9394636,,,,,557,18,Woman,Right,
,,,,,,,,,,,,,,,,,557,18,Woman,Right,1,4,1,1,0,-,0,0.6312173999999686,['n'],2.9026357000002463,1.946,1018.8395714999999,,,,,557,18,Woman,Right,
,,,,,,,,,,,,,,,,,557,18,Woman,Right,1,14,0.4,1,180,-,180,0.47616040000002613,['n'],1.4629589999999553,1.8860000000000001,1023.5562918000003,,,,,557,18,Woman,Right,
,,,,,,,,,,,,,,,,,557,18,Woman,Right,1,44,0.15,1,0,-,0,0.9163548000001356,['n'],2.7268834999999854,1.678,1030.7563311000001,,,,,557,18,Woman,Right,
,,,,,,,,,,,,,,,,,557,18,Woman,Right,1,35,0.4,2,180,0,0,0.6677549000000909,['y'],1.0627558000001045,1.81,1035.2238446,,,,,557,18,Woman,Right,
,,,,,,,,,,,,,,,,,557,18,Woman,Right,1,12,0.4,1,0,-,0,0.4690006999999241,['n'],1.054468899999847,1.834,1039.3563698,,,,,557,18,Woman,Right,
,,,,,,,,,,,,,,,,,557,18,Woman,Right,1,49,0.15,2,0,180,0,0.8216041999999106,['n'],1.7666871999999785,1.834,1044.8902756,,,,,557,18,Woman,Right,
,,,,,,,,,,,,,,,,,557,18,Woman,Right,1,65,0.15,2,0,180,0,3.89148460000024,['y'],1.1591911000000437,1.834,1052.4400240000002,,,,,557,18,Woman,Right,
,,,,,,,,,,,,,,,,,557,18,Woman,Right,1,7,1,2,180,0,0,3.2579720000003363,['n'],6.462941799999953,1.3860000000000001,1065.7898366000002,,,,,557,18,Woman,Right,
,,,,,,,,,,,,,,,,,557,18,Woman,Right,1,66,0.15,1,180,-,180,4.366899500000272,['n'],1.6139106000000538,1.4020000000000001,1075.1240886000003,,,,,557,18,Woman,Right,
,,,,,,,,,,,,,,,,,557,18,Woman,Right,1,63,0.15,2,180,0,0,1.6733859999999368,['y'],1.47885210000004,1.698,1082.0232392,,,,,557,18,Woman,Right,
,,,,,,,,,,,,,,,,,557,18,Woman,Right,1,78,0.15,1,180,-,0,0.7937654999996084,['y'],1.5908553000003849,1.708,1086.9733401,,,,,557,18,Woman,Right,
,,,,,,,,,,,,,,,,,557,18,Woman,Right,1,73,0.15,2,0,180,0,0.7291758999999729,['n'],1.6708948999998938,1.708,1093.0233175,,,,,557,18,Woman,Right,
,,,,,,,,,,,,,,,,,557,18,Woman,Right,1,22,0.4,1,180,-,180,0.5964665999999852,['n'],1.0628920999997717,1.946,1097.9069031000001,,,,,557,18,Woman,Right,
,,,,,,,,,,,,,,,,,557,18,Woman,Right,1,26,0.4,1,180,-,180,0.7113419000002068,['n'],1.0626553000001877,1.9,1102.5399694,,,,,557,18,Woman,Right,
,,,,,,,,,,,,,,,,,557,18,Woman,Right,1,60,0.15,1,0,-,0,4.514667400000235,['n'],1.5027350999998816,1.6440000000000001,1112.3236692000003,,,,,557,18,Woman,Right,
,,,,,,,,,,,,,,,,,557,18,Woman,Right,1,16,0.4,1,0,-,0,0.48238119999996343,['n'],1.5913085999995928,1.768,1117.1068023,,,,,557,18,Woman,Right,
,,,,,,,,,,,,,,,,,557,18,Woman,Right,1,69,0.15,2,0,180,0,0.6770368000002236,['n'],0.7989465999999084,1.766,1121.2068854000001,,,,,557,18,Woman,Right,
,,,,,,,,,,,,,,,,,557,18,Woman,Right,1,72,0.15,1,0,-,180,0.4224210000002131,['n'],1.4463392000002386,1.766,1125.7234449,,,,,557,18,Woman,Right,
,,,,,,,,,,,,,,,,,557,18,Woman,Right,1,34,0.4,1,180,-,180,0.32747380000000703,['n'],1.7509778999997252,1.774,1130.4235208000002,,,,,557,18,Woman,Right,
,,,,,,,,,,,,,,,,,557,18,Woman,Right,1,30,0.4,1,180,-,180,0.30847769999991215,['n'],0.9666971999999987,1.772,1134.9402369000002,,,,,557,18,Woman,Right,
,,,,,,,,,,,,,,,,,557,18,Woman,Right,1,6,1,1,180,-,180,0.3889850000000479,['n'],1.6551586999999017,1.8599999999999999,1139.4905832000002,,,,,557,18,Woman,Right,
,,,,,,,,,,,,,,,,,557,18,Woman,Right,1,62,0.15,1,180,-,180,1.1424768000001677,['n'],1.215065699999741,1.862,1144.2737728,,,,,557,18,Woman,Right,
,,,,,,,,,,,,,,,,,557,18,Woman,Right,1,9,0.4,2,0,180,0,0.09753860000000714,['n'],1.1269959999999628,1.8559999999999999,1147.940304,,,,,557,18,Woman,Right,
,,,,,,,,,,,,,,,,,557,18,Woman,Right,1,55,0.15,2,180,0,180,0.5113398000003144,['n'],0.8064424999997755,1.8519999999999999,1152.2403667,,,,,557,18,Woman,Right,
,,,,,,,,,,,,,,,,,557,18,Woman,Right,1,10,0.4,1,180,-,180,0.4520035000000462,['n'],1.3666285000003882,1.816,1156.9739185,,,,,557,18,Woman,Right,
,,,,,,,,,,,,,,,,,557,18,Woman,Right,1,32,0.4,1,0,-,0,0.8037710000003244,['n'],1.1506364000001668,1.8559999999999999,1161.6237603000002,,,,,557,18,Woman,Right,
,,,,,,,,,,,,,,,,,557,18,Woman,Right,1,54,0.15,1,180,-,180,0.6828682000000299,['n'],1.1509304999999586,1.85,1166.1738106999999,,,,,557,18,Woman,Right,
,,,,,,,,,,,,,,,,,557,18,Woman,Right,1,28,0.4,1,0,-,0,0.41670720000001893,['n'],1.4389602999999624,1.8679999999999999,1170.6237916000002,,,,,557,18,Woman,Right,
,,,,,,,,,,,,,,,,,557,18,Woman,Right,1,21,0.4,2,0,180,0,0.6955140999998548,['y'],3.7429019000001063,1.612,1178.7905137999999,,,,,557,18,Woman,Right,
,,,,,,,,,,,,,,,,,557,18,Woman,Right,1,58,0.15,1,180,-,180,0.5936930000002576,['n'],1.1590731000001142,1.772,1183.3574097000003,,,,,557,18,Woman,Right,
,,,,,,,,,,,,,,,,,557,18,Woman,Right,2,79,0.15,2,180,0,180,1.5688052999998945,['n'],1.5108219999997345,1.682,1213.9249780000002,73.75,97.5,72.5,,557,18,Woman,Right,
,,,,,,,,,,,,,,,,,557,18,Woman,Right,2,56,0.15,1,0,-,0,0.4921121000002131,['n'],0.8388263000001643,1.702,1218.0750469000002,,,,,557,18,Woman,Right,
,,,,,,,,,,,,,,,,,557,18,Woman,Right,2,33,0.4,2,0,180,180,1.6114035000000513,['y'],0.9506575000000339,1.716,1223.1743004000002,,,,,557,18,Woman,Right,
,,,,,,,,,,,,,,,,,557,18,Woman,Right,2,65,0.15,2,0,180,0,1.4906893000002128,['n'],0.9589542000003348,1.716,1228.2075112,,,,,557,18,Woman,Right,
,,,,,,,,,,,,,,,,,557,18,Woman,Right,2,68,0.15,1,0,-,0,0.7833503000001656,['n'],0.8627502999997887,1.714,1232.8073728000002,,,,,557,18,Woman,Right,
,,,,,,,,,,,,,,,,,557,18,Woman,Right,2,20,0.4,1,0,-,0,0.4643977000000632,['n'],1.142981299999974,1.764,1237.3074799000003,,,,,557,18,Woman,Right,
,,,,,,,,,,,,,,,,,557,18,Woman,Right,2,54,0.15,1,180,-,180,0.39243839999971897,['n'],1.0066438000003473,1.896,1241.6408578000003,,,,,557,18,Woman,Right,
,,,,,,,,,,,,,,,,,557,18,Woman,Right,2,69,0.15,2,0,180,180,3.3838199000001623,['y'],1.4390693000000283,1.838,1249.1075385000001,,,,,557,18,Woman,Right,
,,,,,,,,,,,,,,,,,557,18,Woman,Right,2,57,0.15,2,0,180,180,1.6635134999996808,['y'],1.4066019000001688,1.812,1254.9742316,,,,,557,18,Woman,Right,
,,,,,,,,,,,,,,,,,557,18,Woman,Right,2,9,0.4,2,0,180,180,1.9971138999999312,['y'],0.7827563000000737,1.812,1260.3409520000002,,,,,557,18,Woman,Right,
,,,,,,,,,,,,,,,,,557,18,Woman,Right,2,32,0.4,1,0,-,180,0.982412899999872,['y'],0.9828079999997499,1.812,1264.990901,,,,,557,18,Woman,Right,
,,,,,,,,,,,,,,,,,557,18,Woman,Right,2,30,0.4,1,180,-,180,0.31834429999980784,['n'],0.8710807000002205,1.812,1269.1410223,,,,,557,18,Woman,Right,
,,,,,,,,,,,,,,,,,557,18,Woman,Right,2,25,0.4,2,0,180,180,1.014069599999857,['y'],0.9665933999999652,1.812,1273.5587632,,,,,557,18,Woman,Right,
,,,,,,,,,,,,,,,,,557,18,Woman,Right,2,34,0.4,1,180,-,180,0.5816919000003509,['n'],1.214955700000246,1.812,1278.574355,,,,,557,18,Woman,Right,
,,,,,,,,,,,,,,,,,557,18,Woman,Right,2,36,0.4,1,0,-,0,0.5022605999997722,['n'],1.8390785999999935,1.812,1283.6746022,,,,,557,18,Woman,Right,
,,,,,,,,,,,,,,,,,557,18,Woman,Right,2,78,0.15,1,180,-,180,0.5448615000000245,['n'],0.7749590000003082,1.812,1287.541128,,,,,557,18,Woman,Right,
,,,,,,,,,,,,,,,,,557,18,Woman,Right,2,73,0.15,2,0,180,0,0.5576922000000195,['n'],0.7512002999997094,1.81,1291.7243947,,,,,557,18,Woman,Right,
,,,,,,,,,,,,,,,,,557,18,Woman,Right,2,71,0.15,2,180,0,0,0.59824239999989,['n'],1.590797400000156,1.81,1296.4911239,,,,,557,18,Woman,Right,
,,,,,,,,,,,,,,,,,557,18,Woman,Right,2,52,0.15,1,0,-,0,0.5145856999997704,['n'],0.9664152000000286,1.81,1301.0245195,,,,,557,18,Woman,Right,
,,,,,,,,,,,,,,,,,557,18,Woman,Right,2,18,0.4,1,180,-,180,0.5027540000000954,['n'],0.8792647000000215,1.81,1305.0912179,,,,,557,18,Woman,Right,
,,,,,,,,,,,,,,,,,557,18,Woman,Right,2,58,0.15,1,180,-,180,0.8661487000003945,['n'],0.927153200000248,1.81,1309.6246608,,,,,557,18,Woman,Right,
,,,,,,,,,,,,,,,,,557,18,Woman,Right,2,19,0.4,2,180,0,0,0.7197878000001765,['y'],1.4225948000002973,1.8,1314.5579136,,,,,557,18,Woman,Right,
,,,,,,,,,,,,,,,,,557,18,Woman,Right,2,72,0.15,1,0,-,180,0.9444685000003119,['n'],0.9027012999999897,1.798,1319.0748806,,,,,557,18,Woman,Right,
,,,,,,,,,,,,,,,,,557,18,Woman,Right,2,59,0.15,2,180,0,180,0.45404350000035265,['n'],1.0309575000001132,1.8,1323.1913627000001,,,,,557,18,Woman,Right,
,,,,,,,,,,,,,,,,,557,18,Woman,Right,2,50,0.15,1,180,-,180,0.48824569999987943,['n'],0.9269789999998466,1.802,1327.2080677000001,,,,,557,18,Woman,Right,
,,,,,,,,,,,,,,,,,557,18,Woman,Right,2,14,0.4,1,180,-,180,0.808040599999913,['n'],0.7429406000001109,1.802,1331.9082448000001,,,,,557,18,Woman,Right,
,,,,,,,,,,,,,,,,,557,18,Woman,Right,2,11,0.4,2,180,0,0,1.220748100000037,['y'],1.1190341000001354,1.802,1336.791399,,,,,557,18,Woman,Right,
,,,,,,,,,,,,,,,,,557,18,Woman,Right,2,4,1,1,0,-,0,0.33179310000014084,['n'],0.9511786000002758,1.802,1340.7080151000002,,,,,557,18,Woman,Right,
,,,,,,,,,,,,,,,,,557,18,Woman,Right,2,62,0.15,1,180,-,180,1.0844382000000223,['n'],0.8870003000001816,1.802,1345.2251244000001,,,,,557,18,Woman,Right,
,,,,,,,,,,,,,,,,,557,18,Woman,Right,2,63,0.15,2,180,0,0,0.4337407999996685,['n'],0.88694200000009,1.804,1349.0581730000001,,,,,557,18,Woman,Right,
,,,,,,,,,,,,,,,,,557,18,Woman,Right,2,23,0.4,2,180,0,0,0.8959497000000738,['y'],1.0228555000003325,1.804,1353.4248923000002,,,,,557,18,Woman,Right,
,,,,,,,,,,,,,,,,,557,18,Woman,Right,2,44,0.15,1,0,-,180,0.6659905000001345,['n'],0.8793621999998322,1.804,1357.5583049,,,,,557,18,Woman,Right,
,,,,,,,,,,,,,,,,,557,18,Woman,Right,2,51,0.15,2,180,0,180,1.2040446000000884,['n'],1.8709712999998374,1.3900000000000001,1363.5081914,,,,,557,18,Woman,Right,
,,,,,,,,,,,,,,,,,557,18,Woman,Right,2,5,1,2,0,180,180,1.209023200000047,['y'],1.4227658999998312,1.834,1369.6082999000002,,,,,557,18,Woman,Right,
,,,,,,,,,,,,,,,,,557,18,Woman,Right,2,21,0.4,2,0,180,0,2.494831399999839,['n'],1.022517400000197,1.842,1376.1582961000001,,,,,557,18,Woman,Right,
,,,,,,,,,,,,,,,,,557,18,Woman,Right,2,60,0.15,1,0,-,180,0.6317312000001039,['n'],0.8792542000001049,1.842,1380.4585445,,,,,557,18,Woman,Right,
,,,,,,,,,,,,,,,,,557,18,Woman,Right,2,61,0.15,2,0,180,0,1.912378500000159,['n'],0.9109170000001541,1.8479999999999999,1385.8916936000003,,,,,557,18,Woman,Right,
,,,,,,,,,,,,,,,,,557,18,Woman,Right,2,1,1,2,0,180,180,2.8155690000003233,['y'],0.9350606999996671,1.8479999999999999,1392.0250016000002,,,,,557,18,Woman,Right,
,,,,,,,,,,,,,,,,,557,18,Woman,Right,2,28,0.4,1,0,-,0,0.4842699000000721,['n'],0.814896299999873,1.85,1395.8583823000001,,,,,557,18,Woman,Right,
,,,,,,,,,,,,,,,,,557,18,Woman,Right,2,16,0.4,1,0,-,0,0.393587000000025,['n'],0.7988686999997299,1.85,1399.5584310000002,,,,,557,18,Woman,Right,
,,,,,,,,,,,,,,,,,557,18,Woman,Right,2,39,0.4,2,180,0,0,2.372437600000012,['y'],0.6868733999999677,1.712,1405.7917856000001,,,,,557,18,Woman,Right,
,,,,,,,,,,,,,,,,,557,18,Woman,Right,2,8,0.4,1,0,-,0,0.30889469999965513,['n'],2.25532370000019,1.81,1410.7751463000002,,,,,557,18,Woman,Right,
,,,,,,,,,,,,,,,,,557,18,Woman,Right,2,66,0.15,1,180,-,0,0.563720000000103,['n'],0.8946958999999879,1.808,1414.7256628000002,,,,,557,18,Woman,Right,
,,,,,,,,,,,,,,,,,557,18,Woman,Right,2,15,0.4,2,180,0,0,1.57759440000018,['y'],0.8386451000001216,1.804,1419.4754199000001,,,,,557,18,Woman,Right,
,,,,,,,,,,,,,,,,,557,18,Woman,Right,2,47,0.15,2,180,0,180,0.8876366999998027,['y'],1.3427976000002673,1.316,1428.4760776,,,,,557,18,Woman,Right,
,,,,,,,,,,,,,,,,,557,18,Woman,Right,2,26,0.4,1,180,-,180,0.3825710999999501,['n'],0.9826827000001686,1.78,1432.775265,,,,,557,18,Woman,Right,
,,,,,,,,,,,,,,,,,557,18,Woman,Right,2,35,0.4,2,180,0,0,2.3883261999999377,['y'],1.1829700000002958,1.804,1439.0753464000002,,,,,557,18,Woman,Right,
,,,,,,,,,,,,,,,,,557,18,Woman,Right,2,45,0.15,2,0,180,0,1.1917496000000938,['n'],1.1028086999999687,1.808,1444.1090620000002,,,,,557,18,Woman,Right,
,,,,,,,,,,,,,,,,,557,18,Woman,Right,2,77,0.15,2,0,180,0,0.8880856999999196,['n'],0.9270218999999997,1.262,1448.5587050000001,,,,,557,18,Woman,Right,
,,,,,,,,,,,,,,,,,557,18,Woman,Right,2,12,0.4,1,0,-,0,0.39006689999996524,['n'],0.9827810000001591,1.746,1452.6420476,,,,,557,18,Woman,Right,
,,,,,,,,,,,,,,,,,557,18,Woman,Right,2,6,1,1,180,-,180,0.6724709999998595,['n'],1.3024043000000347,1.726,1457.3757555,,,,,557,18,Woman,Right,
,,,,,,,,,,,,,,,,,557,18,Woman,Right,2,70,0.15,1,180,-,0,0.5223917999996956,['n'],0.8786447999996199,1.736,1461.2256290000003,,,,,557,18,Woman,Right,
,,,,,,,,,,,,,,,,,557,18,Woman,Right,2,49,0.15,2,0,180,0,0.4579189999999471,['n'],0.7273192999996354,1.734,1464.9590079000002,,,,,557,18,Woman,Right,
,,,,,,,,,,,,,,,,,557,18,Woman,Right,2,7,1,2,180,0,0,1.3247000999999727,['y'],1.0953091000001223,1.908,1471.1257664000002,,,,,557,18,Woman,Right,
,,,,,,,,,,,,,,,,,557,18,Woman,Right,2,55,0.15,2,180,0,0,1.1313680999996905,['n'],1.4070541999999477,1.4,1476.4090444,,,,,557,18,Woman,Right,
,,,,,,,,,,,,,,,,,557,18,Woman,Right,2,17,0.4,2,0,180,180,2.541534699999829,['y'],1.1986769999998614,1.5739999999999998,1483.5422145,,,,,557,18,Woman,Right,
,,,,,,,,,,,,,,,,,557,18,Woman,Right,2,67,0.15,2,180,0,0,0.6121880999999121,['n'],5.286653999999999,1.732,1491.8591986,,,,,557,18,Woman,Right,
,,,,,,,,,,,,,,,,,557,18,Woman,Right,2,10,0.4,1,180,-,180,1.2487366000000293,['n'],0.9031300000001465,1.734,1496.9424766,,,,,557,18,Woman,Right,
,,,,,,,,,,,,,,,,,557,18,Woman,Right,2,13,0.4,2,0,180,180,1.3985800000000381,['y'],1.0867739000000256,1.732,1502.0423113,,,,,557,18,Woman,Right,
,,,,,,,,,,,,,,,,,557,18,Woman,Right,2,64,0.15,1,0,-,0,0.3991547000000537,['n'],2.0310592999999244,1.734,1507.0090128,,,,,557,18,Woman,Right,
,,,,,,,,,,,,,,,,,557,18,Woman,Right,2,42,0.4,1,180,-,180,0.6051284000000123,['n'],0.8068444000000454,1.736,1510.8591047000002,,,,,557,18,Woman,Right,
,,,,,,,,,,,,,,,,,557,18,Woman,Right,2,3,1,2,180,0,0,1.2330667000001085,['y'],0.9269682999997713,1.736,1516.2591093000003,,,,,557,18,Woman,Right,
,,,,,,,,,,,,,,,,,557,18,Woman,Right,2,40,0.4,1,0,-,0,0.2715541000002304,['n'],0.8308946000001924,1.732,1519.9090319,,,,,557,18,Woman,Right,
,,,,,,,,,,,,,,,,,557,18,Woman,Right,2,48,0.15,1,0,-,0,0.64903460000005,['n'],0.9270760000003975,1.732,1523.7924987,,,,,557,18,Woman,Right,
,,,,,,,,,,,,,,,,,557,18,Woman,Right,2,22,0.4,1,180,-,180,0.46841119999999137,['n'],1.1831272999997964,1.732,1527.8427788000001,,,,,557,18,Woman,Right,
,,,,,,,,,,,,,,,,,557,18,Woman,Right,2,76,0.15,1,0,-,180,2.664905799999815,['n'],1.2389729999999872,1.732,1534.0425303,,,,,557,18,Woman,Right,
,,,,,,,,,,,,,,,,,557,18,Woman,Right,2,74,0.15,1,180,-,180,0.15897620000032475,['n'],0.7269366000000446,1.732,1537.7758639,,,,,557,18,Woman,Right,
,,,,,,,,,,,,,,,,,557,18,Woman,Right,2,41,0.4,2,0,180,180,1.7621884999998656,['y'],0.9591261000000486,1.732,1542.9258594,,,,,557,18,Woman,Right,
,,,,,,,,,,,,,,,,,557,18,Woman,Right,2,46,0.15,1,180,-,180,0.40557059999991907,['n'],1.3911998000003223,1.834,1547.5260060000003,,,,,557,18,Woman,Right,
,,,,,,,,,,,,,,,,,557,18,Woman,Right,2,31,0.4,2,180,0,0,1.0973309000000881,['n'],1.0705692999999883,1.778,1552.1759229000002,,,,,557,18,Woman,Right,
,,,,,,,,,,,,,,,,,557,18,Woman,Right,2,37,0.4,2,0,180,180,1.1961976999996295,['y'],2.686924700000418,1.756,1558.5093364000002,,,,,557,18,Woman,Right,
,,,,,,,,,,,,,,,,,557,18,Woman,Right,2,27,0.4,2,180,0,0,0.8242717999996785,['y'],1.0310899999999492,1.812,1563.3092725,,,,,557,18,Woman,Right,
,,,,,,,,,,,,,,,,,557,18,Woman,Right,2,43,0.4,2,180,0,0,0.5287067000003844,['y'],0.879349600000296,1.804,1567.2926751000002,,,,,557,18,Woman,Right,
,,,,,,,,,,,,,,,,,557,18,Woman,Right,2,24,0.4,1,0,-,0,0.5440954000000602,['n'],1.062381799999912,1.802,1571.5096269000003,,,,,557,18,Woman,Right,
,,,,,,,,,,,,,,,,,557,18,Woman,Right,2,0,1,1,0,-,0,0.3960907999999108,['n'],0.7190089999999145,1.804,1575.1094403,,,,,557,18,Woman,Right,
,,,,,,,,,,,,,,,,,557,18,Woman,Right,2,2,1,1,180,-,180,0.25944890000027954,['n'],0.8471626999998989,1.806,1578.6596781,,,,,557,18,Woman,Right,
,,,,,,,,,,,,,,,,,557,18,Woman,Right,2,29,0.4,2,0,180,0,0.8950260999999955,['n'],1.3188538999997945,1.8780000000000001,1584.0603879000003,,,,,557,18,Woman,Right,
,,,,,,,,,,,,,,,,,557,18,Woman,Right,2,53,0.15,2,0,180,180,0.671019900000374,['n'],0.974611300000106,1.866,1588.1927610999999,,,,,557,18,Woman,Right,
,,,,,,,,,,,,,,,,,557,18,Woman,Right,2,38,0.4,1,180,-,180,0.4134392000000844,['n'],0.7822675000002164,1.866,1591.9097139000003,,,,,557,18,Woman,Right,
,,,,,,,,,,,,,,,,,557,18,Woman,Right,2,75,0.15,2,180,0,180,1.3656243999998878,['n'],0.5987809000002926,1.8679999999999999,1596.2760954000003,,,,,557,18,Woman,Right,
,,,,,,,,,,,,,,,,,557,18,Woman,Right,3,65,0.15,2,0,180,0,1.0618310000004385,['n'],1.7826242000001002,1.8599999999999999,1610.4929958,75.0,97.5,55.0,,557,18,Woman,Right,
,,,,,,,,,,,,,,,,,557,18,Woman,Right,3,66,0.15,1,180,-,180,1.7925128000001678,['n'],2.119056300000011,1.8639999999999999,1616.7763424000002,,,,,557,18,Woman,Right,
,,,,,,,,,,,,,,,,,557,18,Woman,Right,3,71,0.15,2,180,0,180,0.7786618999998609,['n'],0.7908366999999998,1.8639999999999999,1620.8430012000001,,,,,557,18,Woman,Right,
,,,,,,,,,,,,,,,,,557,18,Woman,Right,3,32,0.4,1,0,-,0,0.42533800000001065,['n'],1.1668429000001197,1.8639999999999999,1624.9766273000002,,,,,557,18,Woman,Right,
,,,,,,,,,,,,,,,,,557,18,Woman,Right,3,63,0.15,2,180,0,180,1.755257100000108,['n'],0.7589789000003293,1.884,1629.9273178,,,,,557,18,Woman,Right,
,,,,,,,,,,,,,,,,,557,18,Woman,Right,3,57,0.15,2,0,180,180,2.210731399999986,['y'],1.0387218000000757,1.874,1635.6264343,,,,,557,18,Woman,Right,
,,,,,,,,,,,,,,,,,557,18,Woman,Right,3,36,0.4,1,0,-,0,0.1963845999998739,['n'],1.3266560000001846,1.804,1639.6598519000001,,,,,557,18,Woman,Right,
,,,,,,,,,,,,,,,,,557,18,Woman,Right,3,3,1,2,180,0,0,1.25604310000017,['y'],2.126572500000293,1.79,1645.6098737,,,,,557,18,Woman,Right,
,,,,,,,,,,,,,,,,,557,18,Woman,Right,3,60,0.15,1,0,-,0,1.4569394000000102,['n'],1.023272200000065,1.782,1650.4598242,,,,,557,18,Woman,Right,
,,,,,,,,,,,,,,,,,557,18,Woman,Right,3,54,0.15,1,180,-,180,0.6188685000001897,['n'],0.6867721999997229,1.782,1654.3434354000003,,,,,557,18,Woman,Right,
,,,,,,,,,,,,,,,,,557,18,Woman,Right,3,21,0.4,2,0,180,180,1.1732113999996727,['y'],0.8146743000002061,1.81,1658.993404,,,,,557,18,Woman,Right,
,,,,,,,,,,,,,,,,,557,18,Woman,Right,3,9,0.4,2,0,180,180,0.9637687000004007,['y'],0.8307761999999457,1.806,1663.3432653000002,,,,,557,18,Woman,Right,
,,,,,,,,,,,,,,,,,557,18,Woman,Right,3,24,0.4,1,0,-,0,0.44439490000013393,['n'],0.8230377999998382,1.812,1667.659938,,,,,557,18,Woman,Right,
,,,,,,,,,,,,,,,,,557,18,Woman,Right,3,64,0.15,1,0,-,180,0.958410400000048,['n'],0.7987938000001122,1.808,1671.8766005,,,,,557,18,Woman,Right,
,,,,,,,,,,,,,,,,,557,18,Woman,Right,3,53,0.15,2,0,180,0,0.766784600000392,['n'],0.8065716000000975,1.802,1675.9266664,,,,,557,18,Woman,Right,
,,,,,,,,,,,,,,,,,557,18,Woman,Right,3,6,1,1,180,-,180,0.7767754999999852,['n'],0.7834155000000464,1.806,1679.9768620000002,,,,,557,18,Woman,Right,
,,,,,,,,,,,,,,,,,557,18,Woman,Right,3,68,0.15,1,0,-,180,0.55767539999988,['n'],0.7268722999997408,1.796,1683.5935946000002,,,,,557,18,Woman,Right,
,,,,,,,,,,,,,,,,,557,18,Woman,Right,3,4,1,1,0,-,0,0.3145168000000922,['n'],0.7027936999998019,1.814,1687.2600785000002,,,,,557,18,Woman,Right,
,,,,,,,,,,,,,,,,,557,18,Woman,Right,3,56,0.15,1,0,-,0,0.5847051000000647,['n'],0.7431937999999718,1.812,1690.9603743,,,,,557,18,Woman,Right,
,,,,,,,,,,,,,,,,,557,18,Woman,Right,3,37,0.4,2,0,180,180,0.835548000000017,['y'],0.9111063000000286,1.816,1695.0601229000001,,,,,557,18,Woman,Right,
,,,,,,,,,,,,,,,,,557,18,Woman,Right,3,42,0.4,1,180,-,180,0.3618870000000243,['n'],0.8865169999999125,1.8,1699.1434552000003,,,,,557,18,Woman,Right,
,,,,,,,,,,,,,,,,,557,18,Woman,Right,3,76,0.15,1,0,-,180,0.41020560000015394,['n'],0.7586811000001035,1.796,1702.643495,,,,,557,18,Woman,Right,
,,,,,,,,,,,,,,,,,557,18,Woman,Right,3,43,0.4,2,180,0,0,0.6966606999999385,['y'],1.0069470999997066,1.83,1707.4435474,,,,,557,18,Woman,Right,
,,,,,,,,,,,,,,,,,557,18,Woman,Right,3,59,0.15,2,180,0,180,0.9272611000001234,['n'],1.1189133000002585,1.6139999999999999,1713.1270843,,,,,557,18,Woman,Right,
,,,,,,,,,,,,,,,,,557,18,Woman,Right,3,34,0.4,1,180,-,180,0.3959936999999627,['n'],0.7514079000002312,1.68,1717.0436649,,,,,557,18,Woman,Right,
,,,,,,,,,,,,,,,,,557,18,Woman,Right,3,5,1,2,0,180,180,1.177221500000087,['y'],0.7270052000003489,1.716,1721.4103138000003,,,,,557,18,Woman,Right,
,,,,,,,,,,,,,,,,,557,18,Woman,Right,3,40,0.4,1,0,-,0,0.3552008999999998,['n'],0.8625892000000022,1.762,1725.2436525,,,,,557,18,Woman,Right,
,,,,,,,,,,,,,,,,,557,18,Woman,Right,3,14,0.4,1,180,-,180,0.32203359999994063,['n'],0.8148298000000977,1.758,1728.893628,,,,,557,18,Woman,Right,
,,,,,,,,,,,,,,,,,557,18,Woman,Right,3,46,0.15,1,180,-,180,2.250427800000125,['n'],1.2266507999997884,1.6480000000000001,1735.8603277,,,,,557,18,Woman,Right,
,,,,,,,,,,,,,,,,,557,18,Woman,Right,3,38,0.4,1,180,-,0,0.28593280000040977,['n'],0.8150777000000744,1.772,1739.4436799000002,,,,,557,18,Woman,Right,
,,,,,,,,,,,,,,,,,557,18,Woman,Right,3,1,1,2,0,180,180,0.6887739999997393,['y'],1.1348542000000634,1.76,1743.510383,,,,,557,18,Woman,Right,
,,,,,,,,,,,,,,,,,557,18,Woman,Right,3,28,0.4,1,0,-,0,0.32977489999984755,['n'],0.7912016999998741,1.76,1747.3771543999999,,,,,557,18,Woman,Right,
,,,,,,,,,,,,,,,,,557,18,Woman,Right,3,13,0.4,2,0,180,180,7.70938840000008,['n'],0.9908464000000095,1.76,1758.4604697000002,,,,,557,18,Woman,Right,
,,,,,,,,,,,,,,,,,557,18,Woman,Right,3,55,0.15,2,180,0,180,1.6970102000000225,['n'],1.4790244000000712,1.76,1764.4605368,,,,,557,18,Woman,Right,
,,,,,,,,,,,,,,,,,557,18,Woman,Right,3,75,0.15,2,180,0,0,0.5991481999999451,['n'],1.0629759000003105,1.76,1769.1271959000003,,,,,557,18,Woman,Right,
,,,,,,,,,,,,,,,,,557,18,Woman,Right,3,44,0.15,1,0,-,0,0.4957662000001619,['n'],0.6308908999999403,1.76,1772.877284,,,,,557,18,Woman,Right,
,,,,,,,,,,,,,,,,,557,18,Woman,Right,3,61,0.15,2,0,180,180,1.053740899999866,['n'],1.358928300000116,1.76,1777.8115233,,,,,557,18,Woman,Right,
,,,,,,,,,,,,,,,,,557,18,Woman,Right,3,19,0.4,2,180,0,0,1.126988099999835,['y'],0.45494760000019596,1.76,1782.1939191,,,,,557,18,Woman,Right,
,,,,,,,,,,,,,,,,,557,18,Woman,Right,3,70,0.15,1,180,-,180,0.9370727999998962,['n'],0.8469792999999299,1.76,1786.494289,,,,,557,18,Woman,Right,
,,,,,,,,,,,,,,,,,557,18,Woman,Right,3,2,1,1,180,-,180,0.31706209999993007,['n'],0.6515328000000409,1.76,1790.0108128,,,,,557,18,Woman,Right,
,,,,,,,,,,,,,,,,,557,18,Woman,Right,3,78,0.15,1,180,-,0,1.0502563999998529,['n'],0.5012575000000652,1.76,1794.1606927,,,,,557,18,Woman,Right,
,,,,,,,,,,,,,,,,,557,18,Woman,Right,3,51,0.15,2,180,0,180,0.7909216000002743,['n'],0.7673837000002095,1.1480000000000001,1799.0773947999999,,,,,557,18,Woman,Right,
,,,,,,,,,,,,,,,,,557,18,Woman,Right,3,73,0.15,2,0,180,0,0.6657287999996697,['n'],0.8150508000003356,1.192,1804.0783275000001,,,,,557,18,Woman,Right,
,,,,,,,,,,,,,,,,,557,18,Woman,Right,3,23,0.4,2,180,0,0,1.0839219999998022,['y'],0.7106919000002563,1.77,1808.9277239,,,,,557,18,Woman,Right,
,,,,,,,,,,,,,,,,,557,18,Woman,Right,3,62,0.15,1,180,-,180,1.3804539000002478,['n'],0.9910682999998244,1.6400000000000001,1814.6441762000002,,,,,557,18,Woman,Right,
,,,,,,,,,,,,,,,,,557,18,Woman,Right,3,11,0.4,2,180,0,0,0.6866144000000531,['y'],1.3106852999999319,1.746,1819.4607528,,,,,557,18,Woman,Right,
,,,,,,,,,,,,,,,,,557,18,Woman,Right,3,7,1,2,180,0,0,1.2561573999996654,['y'],0.8550545000002785,1.792,1824.2607714000003,,,,,557,18,Woman,Right,
,,,,,,,,,,,,,,,,,557,18,Woman,Right,3,67,0.15,2,180,0,180,1.7261279999997896,['n'],1.5260997999998835,1.698,1830.2278813,,,,,557,18,Woman,Right,
,,,,,,,,,,,,,,,,,557,18,Woman,Right,3,10,0.4,1,180,-,180,0.5827934000003552,['n'],0.5354505999998764,1.736,1833.9608786000001,,,,,557,18,Woman,Right,
,,,,,,,,,,,,,,,,,557,18,Woman,Right,3,27,0.4,2,180,0,0,0.49932440000020506,['n'],0.7111162000001059,1.738,1837.7609267,,,,,557,18,Woman,Right,
,,,,,,,,,,,,,,,,,557,18,Woman,Right,3,17,0.4,2,0,180,180,0.6047676000002866,['y'],0.8631755000001249,1.734,1841.5943583,,,,,557,18,Woman,Right,
,,,,,,,,,,,,,,,,,557,18,Woman,Right,3,31,0.4,2,180,0,0,0.43199360000016895,['y'],0.5511062000000493,1.728,1845.3442975,,,,,557,18,Woman,Right,
,,,,,,,,,,,,,,,,,557,18,Woman,Right,3,72,0.15,1,0,-,0,0.379342700000052,['n'],0.7031139000000621,1.732,1849.0778407999999,,,,,557,18,Woman,Right,
,,,,,,,,,,,,,,,,,557,18,Woman,Right,3,16,0.4,1,0,-,0,0.29525469999998677,['n'],0.4790768000002572,1.73,1852.2443397,,,,,557,18,Woman,Right,
,,,,,,,,,,,,,,,,,557,18,Woman,Right,3,77,0.15,2,0,180,0,0.9091851999996834,['n'],1.1909426000001986,1.73,1857.6114842,,,,,557,18,Woman,Right,
,,,,,,,,,,,,,,,,,557,18,Woman,Right,3,20,0.4,1,0,-,180,3.374583100000109,['n'],1.1669820000001891,1.37,1865.5779323,,,,,557,18,Woman,Right,
,,,,,,,,,,,,,,,,,557,18,Woman,Right,3,30,0.4,1,180,-,180,0.2160969000001387,['n'],1.0954248000002735,1.8719999999999999,1870.2610670000001,,,,,557,18,Woman,Right,
,,,,,,,,,,,,,,,,,557,18,Woman,Right,3,47,0.15,2,180,0,180,0.9396047000000181,['n'],0.8785256000001027,1.3559999999999999,1875.0111921,,,,,557,18,Woman,Right,
,,,,,,,,,,,,,,,,,557,18,Woman,Right,3,22,0.4,1,180,-,180,0.35931510000000344,['n'],0.8951111999999739,1.922,1879.0612091,,,,,557,18,Woman,Right,
,,,,,,,,,,,,,,,,,557,18,Woman,Right,3,74,0.15,1,180,-,180,0.8436123000001317,['n'],0.5748545999999806,1.58,1884.2778693000002,,,,,557,18,Woman,Right,
,,,,,,,,,,,,,,,,,557,18,Woman,Right,3,45,0.15,2,0,180,180,0.2926175000002331,['n'],0.886903600000096,1.804,1888.0121428,,,,,557,18,Woman,Right,
,,,,,,,,,,,,,,,,,557,18,Woman,Right,3,35,0.4,2,180,0,0,0.9024663999998666,['y'],0.671192599999813,1.792,1892.2448751,,,,,557,18,Woman,Right,
,,,,,,,,,,,,,,,,,557,18,Woman,Right,3,69,0.15,2,0,180,0,0.30455469999969864,['n'],0.6383184000001165,1.8,1895.7281859000002,,,,,557,18,Woman,Right,
,,,,,,,,,,,,,,,,,557,18,Woman,Right,3,79,0.15,2,180,0,180,1.3242784999997639,['n'],0.9105549999999312,1.8,1900.7612683,,,,,557,18,Woman,Right,
,,,,,,,,,,,,,,,,,557,18,Woman,Right,3,18,0.4,1,180,-,0,1.5784048999998959,['n'],0.4709074999996119,1.8,1905.3113378,,,,,557,18,Woman,Right,
,,,,,,,,,,,,,,,,,557,18,Woman,Right,3,49,0.15,2,0,180,0,0.5275855999998385,['n'],0.5024109000000863,1.8,1908.8116144000003,,,,,557,18,Woman,Right,
,,,,,,,,,,,,,,,,,557,18,Woman,Right,3,15,0.4,2,180,0,0,0.3197951000001922,['n'],0.47091639999962354,1.812,1912.1947928000002,,,,,557,18,Woman,Right,
,,,,,,,,,,,,,,,,,557,18,Woman,Right,3,33,0.4,2,0,180,0,0.6949048000001312,['n'],0.9184732999997323,1.806,1916.3289332000002,,,,,557,18,Woman,Right,
,,,,,,,,,,,,,,,,,557,18,Woman,Right,3,50,0.15,1,180,-,180,0.721971499999654,['n'],0.991037199999937,1.802,1920.895644,,,,,557,18,Woman,Right,
,,,,,,,,,,,,,,,,,557,18,Woman,Right,3,39,0.4,2,180,0,0,0.7396966000001157,['y'],0.5513206999999056,1.798,1924.9614253000002,,,,,557,18,Woman,Right,
,,,,,,,,,,,,,,,,,557,18,Woman,Right,3,0,1,1,0,-,0,0.3687683000002835,['n'],0.6625874999999724,1.798,1928.4115448,,,,,557,18,Woman,Right,
,,,,,,,,,,,,,,,,,557,18,Woman,Right,3,12,0.4,1,0,-,0,0.28722530000004554,['n'],0.5828896000002715,1.798,1931.8781381000001,,,,,557,18,Woman,Right,
,,,,,,,,,,,,,,,,,557,18,Woman,Right,3,8,0.4,1,0,-,0,0.22918200000003708,['n'],0.44654540000010456,1.798,1934.911519,,,,,557,18,Woman,Right,
,,,,,,,,,,,,,,,,,557,18,Woman,Right,3,41,0.4,2,0,180,180,1.0514561999998477,['y'],0.37477239999998346,1.8,1938.6785919000001,,,,,557,18,Woman,Right,
,,,,,,,,,,,,,,,,,557,18,Woman,Right,3,52,0.15,1,0,-,0,0.3232864999999947,['n'],0.398892899999737,1.8,1941.7448922,,,,,557,18,Woman,Right,
,,,,,,,,,,,,,,,,,557,18,Woman,Right,3,25,0.4,2,0,180,0,1.0228389000003517,['n'],0.47087729999975636,1.8,1945.6949747,,,,,557,18,Woman,Right,
,,,,,,,,,,,,,,,,,557,18,Woman,Right,3,48,0.15,1,0,-,0,0.6895812000002479,['n'],0.49521439999989525,1.8,1949.311511,,,,,557,18,Woman,Right,
,,,,,,,,,,,,,,,,,557,18,Woman,Right,3,29,0.4,2,0,180,0,0.6435114000000794,['n'],0.4469420000000355,1.8,1952.8615538000001,,,,,557,18,Woman,Right,
,,,,,,,,,,,,,,,,,557,18,Woman,Right,3,26,0.4,1,180,-,180,0.2707190000000992,['n'],1.223066099999869,1.8,1956.9949465000002,,,,,557,18,Woman,Right,
,,,,,,,,,,,,,,,,,557,18,Woman,Right,3,58,0.15,1,180,-,0,0.3998125000002801,['n'],0.5029307999998309,1.798,1960.2282824000001,,,,,557,18,Woman,Right,
,,,,,,,,,,,,,,,,,557,18,Woman,Right,4,74,0.15,1,180,-,0,2.640271400000074,['n'],1.1988690000002862,1.5939999999999999,1988.6786732000003,68.75,100.0,42.5,,557,18,Woman,Right,
,,,,,,,,,,,,,,,,,557,18,Woman,Right,4,42,0.4,1,180,-,0,0.673624000000018,['n'],0.7908521999997902,1.6640000000000001,1992.92851,,,,,557,18,Woman,Right,
,,,,,,,,,,,,,,,,,557,18,Woman,Right,4,11,0.4,2,180,0,0,0.7220397999999477,['y'],0.8311940999997205,1.6640000000000001,1996.9618697000003,,,,,557,18,Woman,Right,
,,,,,,,,,,,,,,,,,557,18,Woman,Right,4,1,1,2,0,180,180,0.9208530999999311,['y'],0.638973999999962,1.766,2001.511991,,,,,557,18,Woman,Right,
,,,,,,,,,,,,,,,,,557,18,Woman,Right,4,12,0.4,1,0,-,0,0.2622116000002279,['n'],1.7990232000001924,1.73,2008.0288520000001,,,,,557,18,Woman,Right,
,,,,,,,,,,,,,,,,,557,18,Woman,Right,4,29,0.4,2,0,180,0,1.2932200000000194,['n'],0.918410099999619,1.784,2013.3619608000001,,,,,557,18,Woman,Right,
,,,,,,,,,,,,,,,,,557,18,Woman,Right,4,21,0.4,2,0,180,180,1.9780750999998418,['y'],0.7028095000000576,1.746,2019.3455712000002,,,,,557,18,Woman,Right,
,,,,,,,,,,,,,,,,,557,18,Woman,Right,4,44,0.15,1,0,-,0,0.6348275999998805,['n'],0.39860010000029433,1.734,2023.1787037000001,,,,,557,18,Woman,Right,
,,,,,,,,,,,,,,,,,557,18,Woman,Right,4,77,0.15,2,0,180,0,0.6653883999997561,['n'],0.6386987999999292,1.728,2027.995604,,,,,557,18,Woman,Right,
,,,,,,,,,,,,,,,,,557,18,Woman,Right,4,58,0.15,1,180,-,0,0.591112599999633,['n'],0.6470687000000908,1.74,2031.7122483,,,,,557,18,Woman,Right,
,,,,,,,,,,,,,,,,,557,18,Woman,Right,4,3,1,2,180,0,0,1.5132834999999432,['y'],0.48696869999957926,1.738,2036.1790265000002,,,,,557,18,Woman,Right,
,,,,,,,,,,,,,,,,,557,18,Woman,Right,4,14,0.4,1,180,-,180,0.5441885000000184,['n'],0.8866797000000588,1.738,2040.5621116,,,,,557,18,Woman,Right,
,,,,,,,,,,,,,,,,,557,18,Woman,Right,4,47,0.15,2,180,0,180,1.9907984999999826,['n'],0.6148834999999053,1.738,2045.5623465,,,,,557,18,Woman,Right,
,,,,,,,,,,,,,,,,,557,18,Woman,Right,4,0,1,1,0,-,0,0.3769865000003847,['n'],0.4308802000000469,1.738,2048.6788361999998,,,,,557,18,Woman,Right,
,,,,,,,,,,,,,,,,,557,18,Woman,Right,4,35,0.4,2,180,0,0,1.0676164000001336,['y'],0.5032793000000311,1.738,2052.7628113,,,,,557,18,Woman,Right,
,,,,,,,,,,,,,,,,,557,18,Woman,Right,4,46,0.15,1,180,-,180,0.30775820000008025,['n'],0.5028843999998571,1.738,2055.7795953000004,,,,,557,18,Woman,Right,
,,,,,,,,,,,,,,,,,557,18,Woman,Right,4,40,0.4,1,0,-,0,0.32770090000030905,['n'],0.40695990000040183,1.736,2059.2122209999998,,,,,557,18,Woman,Right,
,,,,,,,,,,,,,,,,,557,18,Woman,Right,4,43,0.4,2,180,0,0,0.9842276999997921,['y'],1.0229915999998411,1.736,2063.5291294999997,,,,,557,18,Woman,Right,
,,,,,,,,,,,,,,,,,557,18,Woman,Right,4,30,0.4,1,180,-,180,0.3137477999998737,['n'],0.5669425000000956,1.736,2066.8965626,,,,,557,18,Woman,Right,
,,,,,,,,,,,,,,,,,557,18,Woman,Right,4,59,0.15,2,180,0,180,0.49149439999973765,['n'],0.42292489999999816,1.736,2070.3292028000005,,,,,557,18,Woman,Right,
,,,,,,,,,,,,,,,,,557,18,Woman,Right,4,39,0.4,2,180,0,180,0.6649078000000372,['n'],0.8950282999999217,1.736,2074.1956626,,,,,557,18,Woman,Right,
,,,,,,,,,,,,,,,,,557,18,Woman,Right,4,54,0.15,1,180,-,180,0.5998187000000144,['n'],0.6308964999998352,1.736,2077.8122952000003,,,,,557,18,Woman,Right,
,,,,,,,,,,,,,,,,,557,18,Woman,Right,4,26,0.4,1,180,-,180,0.19883990000016638,['n'],0.38312519999999495,1.736,2081.3794385,,,,,557,18,Woman,Right,
,,,,,,,,,,,,,,,,,557,18,Woman,Right,4,70,0.15,1,180,-,180,1.4634895999997752,['n'],0.5101438000001508,1.756,2085.9461312000003,,,,,557,18,Woman,Right,
,,,,,,,,,,,,,,,,,557,18,Woman,Right,4,53,0.15,2,0,180,0,0.44045219999998153,['n'],0.3668766000000687,1.746,2089.6460749,,,,,557,18,Woman,Right,
,,,,,,,,,,,,,,,,,557,18,Woman,Right,4,7,1,2,180,0,0,0.8284438999999111,['y'],0.6945980999998937,1.75,2093.6290409000003,,,,,557,18,Woman,Right,
,,,,,,,,,,,,,,,,,557,18,Woman,Right,4,24,0.4,1,0,-,0,0.24013899999999921,['n'],0.5347639999999956,1.75,2096.762673,,,,,557,18,Woman,Right,
,,,,,,,,,,,,,,,,,557,18,Woman,Right,4,19,0.4,2,180,0,0,2.0722955999999613,['y'],0.4872577999999521,1.75,2101.5958702999997,,,,,557,18,Woman,Right,
,,,,,,,,,,,,,,,,,557,18,Woman,Right,4,37,0.4,2,0,180,180,0.9198904999998376,['y'],1.1184319000003597,1.752,2105.9791729,,,,,557,18,Woman,Right,
,,,,,,,,,,,,,,,,,557,18,Woman,Right,4,10,0.4,1,180,-,180,0.2486756999996942,['n'],0.6309941999998046,1.752,2109.1469146,,,,,557,18,Woman,Right,
,,,,,,,,,,,,,,,,,557,18,Woman,Right,4,51,0.15,2,180,0,180,2.5529271000000335,['n'],1.726811600000019,1.16,2116.3300361,,,,,557,18,Woman,Right,
,,,,,,,,,,,,,,,,,557,18,Woman,Right,4,57,0.15,2,0,180,0,0.3284521999999015,['n'],0.4627423000001727,1.838,2119.5959337000004,,,,,557,18,Woman,Right,
,,,,,,,,,,,,,,,,,557,18,Woman,Right,4,2,1,1,180,-,180,0.3441600000001017,['n'],0.519162999999935,1.838,2122.7461272,,,,,557,18,Woman,Right,
,,,,,,,,,,,,,,,,,557,18,Woman,Right,4,17,0.4,2,0,180,180,1.4805639999999585,['y'],0.567395999999917,1.838,2127.0959261,,,,,557,18,Woman,Right,
,,,,,,,,,,,,,,,,,557,18,Woman,Right,4,76,0.15,1,0,-,0,0.5377536000000873,['n'],0.5824231000001419,1.662,2131.5295858,,,,,557,18,Woman,Right,
,,,,,,,,,,,,,,,,,557,18,Woman,Right,4,71,0.15,2,180,0,0,1.6664945000002263,['n'],1.0623067999999876,1.71,2144.6126916000003,,,,,557,18,Woman,Right,
,,,,,,,,,,,,,,,,,557,18,Woman,Right,4,15,0.4,2,180,0,0,1.466744800000015,['y'],0.37743129999989833,1.71,2149.8126738,,,,,557,18,Woman,Right,
,,,,,,,,,,,,,,,,,557,18,Woman,Right,4,56,0.15,1,0,-,0,0.4958452999999281,['n'],0.5107877999998891,1.706,2153.3794036,,,,,557,18,Woman,Right,
,,,,,,,,,,,,,,,,,557,18,Woman,Right,4,28,0.4,1,0,-,0,0.37844440000026225,['n'],0.5432944000003772,1.708,2156.7629609000005,,,,,557,18,Woman,Right,
,,,,,,,,,,,,,,,,,557,18,Woman,Right,4,55,0.15,2,180,0,180,0.7993343999996796,['n'],0.9988231000002088,1.708,2161.1461798,,,,,557,18,Woman,Right,
,,,,,,,,,,,,,,,,,557,18,Woman,Right,4,41,0.4,2,0,180,180,1.392044199999873,['y'],0.3347559999997429,1.742,2165.8127735,,,,,557,18,Woman,Right,
,,,,,,,,,,,,,,,,,557,18,Woman,Right,4,50,0.15,1,180,-,180,0.37578139999959603,['n'],0.8711832999997569,1.746,2169.6630772999997,,,,,557,18,Woman,Right,
,,,,,,,,,,,,,,,,,557,18,Woman,Right,4,66,0.15,1,180,-,0,0.7960731999996824,['n'],0.6387321000001975,1.742,2173.5630702,,,,,557,18,Woman,Right,
,,,,,,,,,,,,,,,,,557,18,Woman,Right,4,13,0.4,2,0,180,0,0.9829600000002756,['n'],0.7989582000000155,1.6019999999999999,2179.3463686000005,,,,,557,18,Woman,Right,
,,,,,,,,,,,,,,,,,557,18,Woman,Right,4,64,0.15,1,0,-,0,0.4437471999999616,['n'],0.7990349000001515,1.3599999999999999,2183.7798118,,,,,557,18,Woman,Right,
,,,,,,,,,,,,,,,,,557,18,Woman,Right,4,18,0.4,1,180,-,180,0.6213775999999598,['n'],1.0226218000002518,1.722,2188.5466296000004,,,,,557,18,Woman,Right,
,,,,,,,,,,,,,,,,,557,18,Woman,Right,4,68,0.15,1,0,-,0,0.4423109999997905,['n'],0.8390982999999324,1.79,2192.3798638999997,,,,,557,18,Woman,Right,
,,,,,,,,,,,,,,,,,557,18,Woman,Right,4,63,0.15,2,180,0,0,0.34960869999986244,['n'],0.41481119999980365,1.774,2195.5305111,,,,,557,18,Woman,Right,
,,,,,,,,,,,,,,,,,557,18,Woman,Right,4,8,0.4,1,0,-,0,0.3624593999998069,['n'],0.4148365000000922,1.774,2198.5799874000004,,,,,557,18,Woman,Right,
,,,,,,,,,,,,,,,,,557,18,Woman,Right,4,22,0.4,1,180,-,180,0.351513800000248,['n'],0.47116079999977956,1.778,2201.6465086999997,,,,,557,18,Woman,Right,
,,,,,,,,,,,,,,,,,557,18,Woman,Right,4,61,0.15,2,0,180,0,0.30621190000010756,['n'],0.41520710000031613,1.766,2205.296587,,,,,557,18,Woman,Right,
,,,,,,,,,,,,,,,,,557,18,Woman,Right,4,73,0.15,2,0,180,0,1.096928399999797,['n'],1.6630034999998315,1.766,2211.6466329000004,,,,,557,18,Woman,Right,
,,,,,,,,,,,,,,,,,557,18,Woman,Right,4,25,0.4,2,0,180,180,0.900119899999936,['y'],0.3624456000002283,1.764,2215.3964868000003,,,,,557,18,Woman,Right,
,,,,,,,,,,,,,,,,,557,18,Woman,Right,4,32,0.4,1,0,-,0,0.28429400000004534,['n'],0.4711902999997619,1.762,2218.563438,,,,,557,18,Woman,Right,
,,,,,,,,,,,,,,,,,557,18,Woman,Right,4,36,0.4,1,0,-,0,0.337709200000063,['n'],0.36654909999970187,1.762,2221.5633252,,,,,557,18,Woman,Right,
,,,,,,,,,,,,,,,,,557,18,Woman,Right,4,33,0.4,2,0,180,180,0.8149751000000833,['y'],0.37503849999984595,1.762,2225.0800871,,,,,557,18,Woman,Right,
,,,,,,,,,,,,,,,,,557,18,Woman,Right,4,27,0.4,2,180,0,0,0.4203032999998868,['y'],0.4150125000001026,1.762,2228.2466507,,,,,557,18,Woman,Right,
,,,,,,,,,,,,,,,,,557,18,Woman,Right,4,78,0.15,1,180,-,180,0.33488249999982145,['n'],1.1349322000000939,1.764,2232.0632717,,,,,557,18,Woman,Right,
,,,,,,,,,,,,,,,,,557,18,Woman,Right,4,20,0.4,1,0,-,0,0.5575772000001962,['n'],0.35873969999965993,1.764,2235.3135735000005,,,,,557,18,Woman,Right,
,,,,,,,,,,,,,,,,,557,18,Woman,Right,4,9,0.4,2,0,180,180,1.7219049999998788,['y'],0.7589735000001383,1.762,2240.646659,,,,,557,18,Woman,Right,
,,,,,,,,,,,,,,,,,557,18,Woman,Right,4,23,0.4,2,180,0,0,0.6750847000002977,['y'],0.3992270000003373,1.762,2244.1965778000003,,,,,557,18,Woman,Right,
,,,,,,,,,,,,,,,,,557,18,Woman,Right,4,4,1,1,0,-,0,0.3279508000000533,['n'],0.5029247000002215,1.762,2247.5308270000005,,,,,557,18,Woman,Right,
,,,,,,,,,,,,,,,,,557,18,Woman,Right,4,60,0.15,1,0,-,0,1.1199037000001226,['n'],2.3350580999999693,1.71,2254.5300356999996,,,,,557,18,Woman,Right,
,,,,,,,,,,,,,,,,,557,18,Woman,Right,4,45,0.15,2,0,180,0,1.4960103999997045,['n'],0.8623543000003338,1.776,2274.4634748,,,,,557,18,Woman,Right,
,,,,,,,,,,,,,,,,,557,18,Woman,Right,4,34,0.4,1,180,-,180,0.43465859999969325,['n'],0.6148401000000376,1.778,2278.3301858000004,,,,,557,18,Woman,Right,
,,,,,,,,,,,,,,,,,557,18,Woman,Right,4,62,0.15,1,180,-,0,0.3385673000002498,['n'],0.9428099000001566,1.77,2282.0968824,,,,,557,18,Woman,Right,
,,,,,,,,,,,,,,,,,557,18,Woman,Right,4,6,1,1,180,-,180,0.4613870999996834,['n'],0.775046900000234,2.0,2286.8802635,,,,,557,18,Woman,Right,
,,,,,,,,,,,,,,,,,557,18,Woman,Right,4,69,0.15,2,0,180,0,0.44185539999989487,['n'],1.1751853999999184,1.254,2291.2802757,,,,,557,18,Woman,Right,
,,,,,,,,,,,,,,,,,557,18,Woman,Right,4,38,0.4,1,180,-,180,0.6691617999999835,['n'],0.8230137999998988,1.682,2295.3136984000002,,,,,557,18,Woman,Right,
,,,,,,,,,,,,,,,,,557,18,Woman,Right,4,16,0.4,1,0,-,0,0.28388189999986935,['n'],1.4150065999997423,1.608,2299.7471998,,,,,557,18,Woman,Right,
,,,,,,,,,,,,,,,,,557,18,Woman,Right,4,65,0.15,2,0,180,0,0.6208222000000205,['n'],0.8306849000000511,1.038,2304.3136780000004,,,,,557,18,Woman,Right,
,,,,,,,,,,,,,,,,,557,18,Woman,Right,4,48,0.15,1,0,-,0,0.9682027000003472,['n'],0.9747044999999162,1.002,2309.1474478,,,,,557,18,Woman,Right,
,,,,,,,,,,,,,,,,,557,18,Woman,Right,4,79,0.15,2,180,0,180,0.47883219999994253,['n'],1.142537600000196,1.004,2313.8637266000005,,,,,557,18,Woman,Right,
,,,,,,,,,,,,,,,,,557,18,Woman,Right,4,67,0.15,2,180,0,180,1.6269082999997408,['n'],1.310513599999922,1.02,2319.8970793,,,,,557,18,Woman,Right,
,,,,,,,,,,,,,,,,,557,18,Woman,Right,4,31,0.4,2,180,0,0,0.6899496999999428,['y'],0.7026982000002135,1.698,2324.0637171999997,,,,,557,18,Woman,Right,
,,,,,,,,,,,,,,,,,557,18,Woman,Right,4,75,0.15,2,180,0,180,0.5890497999998843,['n'],0.9583885000001828,1.6680000000000001,2328.0305017,,,,,557,18,Woman,Right,
,,,,,,,,,,,,,,,,,557,18,Woman,Right,4,5,1,2,0,180,180,0.9836310000000594,['y'],0.5270564000002196,1.6640000000000001,2331.8972542,,,,,557,18,Woman,Right,
,,,,,,,,,,,,,,,,,557,18,Woman,Right,4,52,0.15,1,0,-,180,0.7877291999998306,['n'],0.5827041000002282,1.6640000000000001,2335.7472706,,,,,557,18,Woman,Right,
,,,,,,,,,,,,,,,,,557,18,Woman,Right,4,49,0.15,2,0,180,0,0.36013660000025993,['n'],0.5830134000002545,1.6560000000000001,2339.0805681,,,,,557,18,Woman,Right,
,,,,,,,,,,,,,,,,,557,18,Woman,Right,4,72,0.15,1,0,-,0,0.3656935999997586,['n'],0.4709398999998484,1.6560000000000001,2342.2472521,,,,,557,18,Woman,Right,
,,,,,,,,,,,,,,,,,557,18,Woman,Right,5,45,0.15,2,0,180,180,1.0595634999999675,['n'],0.9510150000000976,1.65,2360.9473899000004,68.75,100.0,47.5,,557,18,Woman,Right,
,,,,,,,,,,,,,,,,,557,18,Woman,Right,5,46,0.15,1,180,-,0,4.3309476000004,['n'],0.8067408000001706,1.236,2430.9315409,,,,,557,18,Woman,Right,
,,,,,,,,,,,,,,,,,557,18,Woman,Right,5,75,0.15,2,180,0,0,1.2098429000002398,['y'],0.6466835000001083,1.596,2436.2144684000004,,,,,557,18,Woman,Right,
,,,,,,,,,,,,,,,,,557,18,Woman,Right,5,27,0.4,2,180,0,0,0.6231474000001072,['y'],0.4867466999999124,1.6179999999999999,2440.0311447000004,,,,,557,18,Woman,Right,
,,,,,,,,,,,,,,,,,557,18,Woman,Right,5,20,0.4,1,0,-,0,0.15317749999985608,['n'],0.7752605999999105,1.616,2443.1811601,,,,,557,18,Woman,Right,
,,,,,,,,,,,,,,,,,557,18,Woman,Right,5,78,0.15,1,180,-,180,0.3663642000001346,['n'],0.49492979999968156,1.616,2446.3644415999997,,,,,557,18,Woman,Right,
,,,,,,,,,,,,,,,,,557,18,Woman,Right,5,47,0.15,2,180,0,0,1.7000049000002946,['y'],0.4023164000000179,1.6139999999999999,2450.8145063,,,,,557,18,Woman,Right,
,,,,,,,,,,,,,,,,,557,18,Woman,Right,5,74,0.15,1,180,-,180,0.66521449999982,['n'],0.31899609999982204,1.6139999999999999,2454.2481526,,,,,557,18,Woman,Right,
,,,,,,,,,,,,,,,,,557,18,Woman,Right,5,54,0.15,1,180,-,180,0.5097129000000677,['n'],0.5510282000000188,1.6139999999999999,2457.7986339,,,,,557,18,Woman,Right,
,,,,,,,,,,,,,,,,,557,18,Woman,Right,5,14,0.4,1,180,-,180,0.543752300000051,['n'],1.1108332999997401,1.62,2462.2146289,,,,,557,18,Woman,Right,
,,,,,,,,,,,,,,,,,557,18,Woman,Right,5,33,0.4,2,0,180,0,3.9439477999999326,['y'],0.7106397000002289,1.6400000000000001,2469.6146897999997,,,,,557,18,Woman,Right,
,,,,,,,,,,,,,,,,,557,18,Woman,Right,5,25,0.4,2,0,180,180,1.2369457999998303,['y'],1.3184443000000101,1.638,2474.7646022999998,,,,,557,18,Woman,Right,
,,,,,,,,,,,,,,,,,557,18,Woman,Right,5,62,0.15,1,180,-,180,0.7581130999997185,['n'],0.5267650000000685,1.6360000000000001,2478.4982883000002,,,,,557,18,Woman,Right,
,,,,,,,,,,,,,,,,,557,18,Woman,Right,5,69,0.15,2,0,180,0,0.7227896999997938,['n'],1.182933999999932,1.682,2483.6314064999997,,,,,557,18,Woman,Right,
,,,,,,,,,,,,,,,,,557,18,Woman,Right,5,35,0.4,2,180,0,0,0.9249248999999509,['y'],0.3746956999998474,1.6560000000000001,2487.3983169000003,,,,,557,18,Woman,Right,
,,,,,,,,,,,,,,,,,557,18,Woman,Right,5,72,0.15,1,0,-,0,0.38948019999997996,['n'],0.7502843000002031,1.186,2491.598379,,,,,557,18,Woman,Right,
,,,,,,,,,,,,,,,,,557,18,Woman,Right,5,29,0.4,2,0,180,180,0.9221031000001858,['y'],0.6232489000003625,1.666,2495.5315568000005,,,,,557,18,Woman,Right,
,,,,,,,,,,,,,,,,,557,18,Woman,Right,5,40,0.4,1,0,-,0,0.3278866000000562,['n'],0.5106169999999111,1.662,2498.8481420999997,,,,,557,18,Woman,Right,
,,,,,,,,,,,,,,,,,557,18,Woman,Right,5,23,0.4,2,180,0,0,0.9178798000002644,['y'],0.6785715000000891,1.662,2502.6824124000004,,,,,557,18,Woman,Right,
,,,,,,,,,,,,,,,,,557,18,Woman,Right,5,13,0.4,2,0,180,180,0.8006722999998601,['y'],0.9433281999999963,1.662,2506.9149055,,,,,557,18,Woman,Right,
,,,,,,,,,,,,,,,,,557,18,Woman,Right,5,0,1,1,0,-,0,0.28310759999976653,['n'],0.47709240000040154,1.662,2509.9317948999997,,,,,557,18,Woman,Right,
,,,,,,,,,,,,,,,,,557,18,Woman,Right,5,3,1,2,180,0,0,0.7032739999999649,['y'],0.3274418999999398,1.662,2513.2657629000005,,,,,557,18,Woman,Right,
,,,,,,,,,,,,,,,,,557,18,Woman,Right,5,31,0.4,2,180,0,0,0.7337585000000217,['y'],0.46321850000003906,1.662,2516.9318705000005,,,,,557,18,Woman,Right,
,,,,,,,,,,,,,,,,,557,18,Woman,Right,5,34,0.4,1,180,-,180,0.6545725000000857,['n'],0.390970599999946,1.662,2521.2315965,,,,,557,18,Woman,Right,
,,,,,,,,,,,,,,,,,557,18,Woman,Right,5,17,0.4,2,0,180,180,1.609454100000221,['y'],0.3589176000000407,1.662,2525.7984689000004,,,,,557,18,Woman,Right,
,,,,,,,,,,,,,,,,,557,18,Woman,Right,5,64,0.15,1,0,-,180,1.2740020000001095,['n'],1.0229410000001735,1.662,2531.1985981,,,,,557,18,Woman,Right,
,,,,,,,,,,,,,,,,,557,18,Woman,Right,5,7,1,2,180,0,0,0.8931734000002507,['y'],0.3831620999999359,1.662,2534.8150737000005,,,,,557,18,Woman,Right,
,,,,,,,,,,,,,,,,,557,18,Woman,Right,5,76,0.15,1,0,-,180,0.3104155000000901,['n'],0.4229089999998905,1.662,2537.7486113000004,,,,,557,18,Woman,Right,
,,,,,,,,,,,,,,,,,557,18,Woman,Right,5,5,1,2,0,180,180,0.9988268000001881,['y'],0.4386597000002439,1.662,2541.5317483,,,,,557,18,Woman,Right,
,,,,,,,,,,,,,,,,,557,18,Woman,Right,5,68,0.15,1,0,-,180,0.4890485000000808,['n'],0.310965699999997,1.662,2544.4984536,,,,,557,18,Woman,Right,
,,,,,,,,,,,,,,,,,557,18,Woman,Right,5,41,0.4,2,0,180,180,4.703922600000169,['y'],0.5989575000003242,1.662,2552.1317885999997,,,,,557,18,Woman,Right,
,,,,,,,,,,,,,,,,,557,18,Woman,Right,5,4,1,1,0,-,0,0.21030329999985042,['n'],0.5188320000002022,1.662,2555.3485238000003,,,,,557,18,Woman,Right,
,,,,,,,,,,,,,,,,,557,18,Woman,Right,5,55,0.15,2,180,0,180,0.41045549999989817,['n'],0.406843299999764,1.662,2558.2818681999997,,,,,557,18,Woman,Right,
,,,,,,,,,,,,,,,,,557,18,Woman,Right,5,26,0.4,1,180,-,180,0.3297904999999446,['n'],0.39902269999993223,1.662,2561.3484746000004,,,,,557,18,Woman,Right,
,,,,,,,,,,,,,,,,,557,18,Woman,Right,5,12,0.4,1,0,-,0,0.12645340000017313,['n'],0.342952299999979,1.662,2564.1485746,,,,,557,18,Woman,Right,
,,,,,,,,,,,,,,,,,557,18,Woman,Right,5,22,0.4,1,180,-,180,0.41505899999992835,['n'],0.29510750000008557,1.662,2567.0987670000004,,,,,557,18,Woman,Right,
,,,,,,,,,,,,,,,,,557,18,Woman,Right,5,58,0.15,1,180,-,0,0.2833952999999383,['n'],0.8035656000001836,1.662,2570.5986066000005,,,,,557,18,Woman,Right,
,,,,,,,,,,,,,,,,,557,18,Woman,Right,5,60,0.15,1,0,-,0,0.03703929999983302,['n'],0.39084249999996246,1.662,2573.4319238,,,,,557,18,Woman,Right,
,,,,,,,,,,,,,,,,,557,18,Woman,Right,5,51,0.15,2,180,0,180,0.8174160999997184,['n'],1.5942172000000028,1.662,2579.2486094000005,,,,,557,18,Woman,Right,
,,,,,,,,,,,,,,,,,557,18,Woman,Right,5,53,0.15,2,0,180,0,0.025192999999944732,['n'],0.5269883000000846,1.662,2582.4987032999998,,,,,557,18,Woman,Right,
,,,,,,,,,,,,,,,,,557,18,Woman,Right,5,61,0.15,2,0,180,0,0.05491940000001705,['n'],0.4631718999999066,1.662,2585.5822964,,,,,557,18,Woman,Right,
,,,,,,,,,,,,,,,,,557,18,Woman,Right,5,6,1,1,180,-,180,0.607166899999811,['n'],0.45486620000019684,1.662,2589.0319455,,,,,557,18,Woman,Right,
,,,,,,,,,,,,,,,,,557,18,Woman,Right,5,37,0.4,2,0,180,180,3.983404099999916,['y'],1.1905652000000373,1.316,2598.0154095,,,,,557,18,Woman,Right,
,,,,,,,,,,,,,,,,,557,18,Woman,Right,5,28,0.4,1,0,-,0,0.21297439999989365,['n'],1.3109481999999844,1.8860000000000001,2602.7822963,,,,,557,18,Woman,Right,
,,,,,,,,,,,,,,,,,557,18,Woman,Right,5,9,0.4,2,0,180,180,1.186824599999909,['y'],0.9751061000001755,1.818,2607.5321378,,,,,557,18,Woman,Right,
,,,,,,,,,,,,,,,,,557,18,Woman,Right,5,67,0.15,2,180,0,180,0.604329300000245,['n'],0.9187888000001294,1.366,2612.0487966,,,,,557,18,Woman,Right,
,,,,,,,,,,,,,,,,,557,18,Woman,Right,5,43,0.4,2,180,0,0,1.2067649999999048,['y'],0.4228547000002436,1.718,2615.9654861,,,,,557,18,Woman,Right,
,,,,,,,,,,,,,,,,,557,18,Woman,Right,5,16,0.4,1,0,-,0,0.1726263000000472,['n'],0.6470788999999968,1.718,2619.1321792,,,,,557,18,Woman,Right,
,,,,,,,,,,,,,,,,,557,18,Woman,Right,5,57,0.15,2,0,180,0,0.4641543999996429,['n'],0.4551776000002974,1.718,2622.6490003,,,,,557,18,Woman,Right,
,,,,,,,,,,,,,,,,,557,18,Woman,Right,5,49,0.15,2,0,180,0,0.6793793000001642,['n'],0.6622241000000031,1.706,2626.432264,,,,,557,18,Woman,Right,
,,,,,,,,,,,,,,,,,557,18,Woman,Right,5,32,0.4,1,0,-,0,0.24429049999980634,['n'],0.3427173000000039,1.706,2629.4993605,,,,,557,18,Woman,Right,
,,,,,,,,,,,,,,,,,557,18,Woman,Right,5,11,0.4,2,180,0,0,0.826195899999675,['y'],0.3268395000000055,1.706,2633.099258,,,,,557,18,Woman,Right,
,,,,,,,,,,,,,,,,,557,18,Woman,Right,5,50,0.15,1,180,-,180,1.0836191999997027,['n'],0.6281149000001278,1.706,2637.4325188000003,,,,,557,18,Woman,Right,
,,,,,,,,,,,,,,,,,557,18,Woman,Right,5,24,0.4,1,0,-,0,0.3024929999996857,['n'],0.39923389999967185,1.706,2640.2990855999997,,,,,557,18,Woman,Right,
,,,,,,,,,,,,,,,,,557,18,Woman,Right,5,2,1,1,180,-,180,0.47525850000010905,['n'],0.43102559999988443,1.706,2643.4156887,,,,,557,18,Woman,Right,
,,,,,,,,,,,,,,,,,557,18,Woman,Right,5,36,0.4,1,0,-,0,0.4372872999997526,['n'],0.35096710000016174,1.706,2646.7824779000002,,,,,557,18,Woman,Right,
,,,,,,,,,,,,,,,,,557,18,Woman,Right,5,39,0.4,2,180,0,0,0.8832829999996648,['y'],0.5108998000000611,1.706,2650.7159526000005,,,,,557,18,Woman,Right,
,,,,,,,,,,,,,,,,,557,18,Woman,Right,5,65,0.15,2,0,180,0,0.5678791999998793,['n'],0.3348972000003414,1.706,2653.8490893,,,,,557,18,Woman,Right,
,,,,,,,,,,,,,,,,,557,18,Woman,Right,5,66,0.15,1,180,-,180,0.9853910000001633,['n'],0.27117509999970935,1.706,2657.3323817,,,,,557,18,Woman,Right,
,,,,,,,,,,,,,,,,,557,18,Woman,Right,5,18,0.4,1,180,-,180,0.5966018999997686,['n'],2.38291049999998,1.706,2665.0835939999997,,,,,557,18,Woman,Right,
,,,,,,,,,,,,,,,,,557,18,Woman,Right,5,8,0.4,1,0,-,0,0.5319792000000234,['n'],0.7913653000000522,1.706,2668.7158866,,,,,557,18,Woman,Right,
,,,,,,,,,,,,,,,,,557,18,Woman,Right,5,10,0.4,1,180,-,180,0.5464974000001348,['n'],1.7268607999999404,1.704,2673.4994343999997,,,,,557,18,Woman,Right,
,,,,,,,,,,,,,,,,,557,18,Woman,Right,5,1,1,2,0,180,180,1.123269799999889,['y'],0.4230939000003673,2.0,2677.816833,,,,,557,18,Woman,Right,
,,,,,,,,,,,,,,,,,557,18,Woman,Right,5,73,0.15,2,0,180,180,0.6799661000000015,['n'],0.279070000000047,1.78,2680.9326692000004,,,,,557,18,Woman,Right,
,,,,,,,,,,,,,,,,,557,18,Woman,Right,5,21,0.4,2,0,180,180,2.633511699999872,['y'],0.5493127999998251,1.78,2686.46595,,,,,557,18,Woman,Right,
,,,,,,,,,,,,,,,,,557,18,Woman,Right,5,44,0.15,1,0,-,0,0.5747890999996343,['n'],0.910534699999971,1.974,2691.3160530000005,,,,,557,18,Woman,Right,
,,,,,,,,,,,,,,,,,557,18,Woman,Right,5,30,0.4,1,180,-,180,0.3282377999998971,['n'],0.5670663000000786,1.84,2695.4493468,,,,,557,18,Woman,Right,
,,,,,,,,,,,,,,,,,557,18,Woman,Right,5,71,0.15,2,180,0,0,0.31518080000023474,['n'],0.41481240000030084,1.764,2698.6326539,,,,,557,18,Woman,Right,
,,,,,,,,,,,,,,,,,557,18,Woman,Right,5,56,0.15,1,0,-,180,0.6855814000000464,['n'],0.3991704000000027,1.758,2701.8661511,,,,,557,18,Woman,Right,
,,,,,,,,,,,,,,,,,557,18,Woman,Right,5,63,0.15,2,180,0,0,0.5962580999998863,['n'],0.4149134999997841,1.758,2705.0327397,,,,,557,18,Woman,Right,
,,,,,,,,,,,,,,,,,557,18,Woman,Right,5,42,0.4,1,180,-,180,0.556490500000109,['n'],0.28694569999970554,1.758,2709.266165,,,,,557,18,Woman,Right,
,,,,,,,,,,,,,,,,,557,18,Woman,Right,5,79,0.15,2,180,0,0,1.265076599999702,['n'],2.9668511999998373,1.238,2716.7660819000002,,,,,557,18,Woman,Right,
,,,,,,,,,,,,,,,,,557,18,Woman,Right,5,48,0.15,1,0,-,0,1.1264498000000458,['n'],2.5351385000003575,1.274,2723.2001048,,,,,557,18,Woman,Right,
,,,,,,,,,,,,,,,,,557,18,Woman,Right,5,38,0.4,1,180,-,180,0.3250177999998414,['n'],0.3909223999999085,1.684,2726.1995649,,,,,557,18,Woman,Right,
,,,,,,,,,,,,,,,,,557,18,Woman,Right,5,77,0.15,2,0,180,0,0.6780705999999554,['n'],0.446386500000699,1.752,2729.5995765000007,,,,,557,18,Woman,Right,
,,,,,,,,,,,,,,,,,557,18,Woman,Right,5,15,0.4,2,180,0,0,1.7908975000000282,['y'],0.4231116999999358,1.75,2734.0663688000004,,,,,557,18,Woman,Right,
,,,,,,,,,,,,,,,,,557,18,Woman,Right,5,70,0.15,1,180,-,180,0.6622039000003497,['n'],0.4149400999995123,1.75,2737.2997973,,,,,557,18,Woman,Right,
,,,,,,,,,,,,,,,,,557,18,Woman,Right,5,52,0.15,1,0,-,0,1.242239499999414,['n'],0.36677920000056474,1.748,2741.3332204000008,,,,,557,18,Woman,Right,
,,,,,,,,,,,,,,,,,557,18,Woman,Right,5,19,0.4,2,180,0,0,1.5781501999999819,['y'],0.3350793999998132,1.748,2745.4999884,,,,,557,18,Woman,Right,
,,,,,,,,,,,,,,,,,557,18,Woman,Right,5,59,0.15,2,180,0,180,0.7518218999994133,['n'],2.04663359999995,1.746,2750.8332290000008,,,,,557,18,Woman,Right,
,,,,,,,,,,,,,,,,,,,,,,,,,,,,,,,,,77.5,100.0,60.0,2459.129688,,,,,
