p_block,p_section,p_coherence,p_direction1,p_direction2,p_direction_response,p_direction_RT,p_change_response,p_change_RT,p_confidence,p_full_correct,p_without5_correct,p_full_total,p_without5_total,p_full_avg,p_witout5_avg,p_total_time,sub,age,sex,handedness,loop,trial randomization,coherence,condition,direction1,direction2,direction_response,direction_RT,change_response,change_RT,change_confidence,change_confidence_RT,block_direction_avg,block_stable_avg,block_change_avg,total_time,sub,age,sex,handedness,
1,1,1.0,180,-,180,2.8831034000004365,-,-,-,,,,,,,,571,20,Woman,Right,,,,,,,,,,,,,,,,,571,20,Woman,Right,
1,1,1.0,180,-,180,1.250085300000137,-,-,-,,,,,,,,571,20,Woman,Right,,,,,,,,,,,,,,,,,571,20,Woman,Right,
1,1,1.0,0,-,0,0.7296334000002389,-,-,-,,,,,,,,571,20,Woman,Right,,,,,,,,,,,,,,,,,571,20,Woman,Right,
1,1,1.0,180,-,180,0.01647640000010142,-,-,-,,,,,,,,571,20,Woman,Right,,,,,,,,,,,,,,,,,571,20,Woman,Right,
1,1,1.0,0,-,0,0.5685967999997956,-,-,-,,,,,,,,571,20,Woman,Right,,,,,,,,,,,,,,,,,571,20,Woman,Right,
1,1,1.0,0,-,0,0.09137670000018261,-,-,-,,,,,,,,571,20,Woman,Right,,,,,,,,,,,,,,,,,571,20,Woman,Right,
1,1,1.0,0,-,0,0.026000600000770646,-,-,-,,,,,,,,571,20,Woman,Right,,,,,,,,,,,,,,,,,571,20,Woman,Right,
1,1,1.0,180,-,180,0.01673839999966731,-,-,-,,,,,,,,571,20,Woman,Right,,,,,,,,,,,,,,,,,571,20,Woman,Right,
1,1,1.0,180,-,180,0.04455059999963851,-,-,-,,,,,,,,571,20,Woman,Right,,,,,,,,,,,,,,,,,571,20,Woman,Right,
1,1,1.0,0,-,0,0.016538100000616396,-,-,-,10,10,10,10,1.0,1.0,,571,20,Woman,Right,,,,,,,,,,,,,,,,,571,20,Woman,Right,
2,1,0.15,0,-,0,0.016858400000273832,-,-,-,,,,,,,,571,20,Woman,Right,,,,,,,,,,,,,,,,,571,20,Woman,Right,
2,1,0.15,180,-,180,0.016859600000316277,-,-,-,,,,,,,,571,20,Woman,Right,,,,,,,,,,,,,,,,,571,20,Woman,Right,
2,1,0.4,0,-,0,0.12138279999999213,-,-,-,,,,,,,,571,20,Woman,Right,,,,,,,,,,,,,,,,,571,20,Woman,Right,
2,1,0.4,180,-,180,0.08657519999997021,-,-,-,,,,,,,,571,20,Woman,Right,,,,,,,,,,,,,,,,,571,20,Woman,Right,
2,1,0.15,180,-,180,0.25300179999976535,-,-,-,,,,,,,,571,20,Woman,Right,,,,,,,,,,,,,,,,,571,20,Woman,Right,
2,1,0.15,0,-,180,0.2613083000005645,-,-,-,,,,,,,,571,20,Woman,Right,,,,,,,,,,,,,,,,,571,20,Woman,Right,
2,1,0.4,180,-,180,0.016878700000233948,-,-,-,,,,,,,,571,20,Woman,Right,,,,,,,,,,,,,,,,,571,20,Woman,Right,
2,1,0.15,180,-,0,0.016820900000311667,-,-,-,,,,,,,,571,20,Woman,Right,,,,,,,,,,,,,,,,,571,20,Woman,Right,
2,1,0.15,0,-,180,1.0172168000008242,-,-,-,,,,,,,,571,20,Woman,Right,,,,,,,,,,,,,,,,,571,20,Woman,Right,
2,1,0.4,0,-,0,0.016782700000476325,-,-,-,7,4,10,4,0.7,1.0,,571,20,Woman,Right,,,,,,,,,,,,,,,,,571,20,Woman,Right,
3,2,1.0,0,180,0,0.016549999999369902,['y'],16.231301499999972,1.996,,,,,,,,571,20,Woman,Right,,,,,,,,,,,,,,,,,571,20,Woman,Right,
3,2,1.0,0,180,180,0.5783387000001312,['y'],1.9005372999999963,1.97,,,,,,,,571,20,Woman,Right,,,,,,,,,,,,,,,,,571,20,Woman,Right,
3,2,1.0,180,0,0,0.6692008999998507,['y'],1.212589200000366,2.0,,,,,,,,571,20,Woman,Right,,,,,,,,,,,,,,,,,571,20,Woman,Right,
3,2,1.0,0,180,180,0.5173224999998638,['y'],1.3457108000002336,2.0,,,,,,,,571,20,Woman,Right,,,,,,,,,,,,,,,,,571,20,Woman,Right,
3,2,1.0,0,180,180,0.596025799999552,['y'],1.0456240000003163,2.0,,,,,,,,571,20,Woman,Right,,,,,,,,,,,,,,,,,571,20,Woman,Right,
3,2,1.0,0,180,180,0.4847601000001305,['y'],0.45899610000014945,1.994,,,,,,,,571,20,Woman,Right,,,,,,,,,,,,,,,,,571,20,Woman,Right,
3,2,1.0,180,0,0,0.5704648000000816,['y'],0.941085600000406,2.0,,,,,,,,571,20,Woman,Right,,,,,,,,,,,,,,,,,571,20,Woman,Right,
3,2,1.0,0,180,180,0.43338800000037736,['y'],0.8810390999997253,2.0,,,,,,,,571,20,Woman,Right,,,,,,,,,,,,,,,,,571,20,Woman,Right,
3,2,1.0,180,0,0,0.391410299999734,['y'],0.18527279999943858,2.0,,,,,,,,571,20,Woman,Right,,,,,,,,,,,,,,,,,571,20,Woman,Right,
3,2,1.0,180,0,0,0.3756022000006851,['y'],0.978496499999892,2.0,9,9,10,10,0.9,0.9,,571,20,Woman,Right,,,,,,,,,,,,,,,,,571,20,Woman,Right,
4,2,0.4,180,0,0,0.4624837999999727,['y'],0.5344348999997237,2.0,,,,,,,,571,20,Woman,Right,,,,,,,,,,,,,,,,,571,20,Woman,Right,
4,2,0.15,0,180,180,0.6941550000001371,['y'],0.8760444999998072,1.994,,,,,,,,571,20,Woman,Right,,,,,,,,,,,,,,,,,571,20,Woman,Right,
4,2,0.15,180,0,0,0.992207000000235,['y'],0.9303546999999526,2.0,,,,,,,,571,20,Woman,Right,,,,,,,,,,,,,,,,,571,20,Woman,Right,
4,2,0.15,0,180,180,0.9708455999998478,['y'],0.5175795000004655,2.0,,,,,,,,571,20,Woman,Right,,,,,,,,,,,,,,,,,571,20,Woman,Right,
4,2,0.15,0,180,0,0.376774899999873,['y'],2.163229799999499,2.0,,,,,,,,571,20,Woman,Right,,,,,,,,,,,,,,,,,571,20,Woman,Right,
4,2,0.15,0,180,180,0.5555854000003819,['y'],0.846489699999438,2.0,,,,,,,,571,20,Woman,Right,,,,,,,,,,,,,,,,,571,20,Woman,Right,
4,2,0.4,0,180,180,0.5164496000006693,['y'],0.8969004000000496,2.0,,,,,,,,571,20,Woman,Right,,,,,,,,,,,,,,,,,571,20,Woman,Right,
4,2,0.15,0,180,0,0.6561148000000685,['y'],1.5278426000004401,2.0,,,,,,,,571,20,Woman,Right,,,,,,,,,,,,,,,,,571,20,Woman,Right,
4,2,0.4,0,180,0,2.8401638999994248,['y'],1.048106999999618,2.0,,,,,,,,571,20,Woman,Right,,,,,,,,,,,,,,,,,571,20,Woman,Right,
4,2,0.15,0,180,180,1.0251991000004637,['y'],0.9134959000002709,2.0,,,,,,,,571,20,Woman,Right,,,,,,,,,,,,,,,,,571,20,Woman,Right,
4,2,0.4,180,0,0,0.4578728000005867,['y'],1.505536900000152,2.0,,,,,,,,571,20,Woman,Right,,,,,,,,,,,,,,,,,571,20,Woman,Right,
4,2,0.15,180,0,0,0.5037916000001132,['y'],0.8293370999999752,2.0,,,,,,,,571,20,Woman,Right,,,,,,,,,,,,,,,,,571,20,Woman,Right,
4,2,0.15,0,180,180,0.49791090000053373,['y'],0.7996531999997387,2.0,,,,,,,,571,20,Woman,Right,,,,,,,,,,,,,,,,,571,20,Woman,Right,
4,2,0.15,180,0,0,1.2618776999997863,['y'],0.8766505000003235,2.0,,,,,,,,571,20,Woman,Right,,,,,,,,,,,,,,,,,571,20,Woman,Right,
4,2,0.4,0,180,180,0.4473875000003318,['y'],1.230305899999621,2.0,,,,,,,,571,20,Woman,Right,,,,,,,,,,,,,,,,,571,20,Woman,Right,
4,2,0.15,180,0,0,0.9460018999998283,['y'],1.0859018000001015,2.0,,,,,,,,571,20,Woman,Right,,,,,,,,,,,,,,,,,571,20,Woman,Right,
4,2,0.15,180,0,0,0.9725890999998228,['y'],1.4715900999999576,2.0,,,,,,,,571,20,Woman,Right,,,,,,,,,,,,,,,,,571,20,Woman,Right,
4,2,0.15,0,180,180,0.43298049999975774,['y'],0.6325231999999232,2.0,,,,,,,,571,20,Woman,Right,,,,,,,,,,,,,,,,,571,20,Woman,Right,
4,2,0.4,0,180,180,0.8931714000000284,['y'],1.0502378000001045,2.0,,,,,,,,571,20,Woman,Right,,,,,,,,,,,,,,,,,571,20,Woman,Right,
4,2,0.15,0,180,0,0.4858796999997139,['y'],0.9557221000004574,2.0,9,3,10,3,0.9,1.0,,571,20,Woman,Right,,,,,,,,,,,,,,,,,571,20,Woman,Right,
5,3,1.0,0,180,180,0.6482594999997673,['n'],2.3517917999997735,1.788,,,,,,,,571,20,Woman,Right,,,,,,,,,,,,,,,,,571,20,Woman,Right,
5,3,0.15,0,-,0,2.3753942999992432,['n'],4.609891800000696,1.81,,,,,,,,571,20,Woman,Right,,,,,,,,,,,,,,,,,571,20,Woman,Right,
5,3,1.0,0,180,180,0.7769600000001446,['y'],1.044071399999666,1.996,,,,,,,,571,20,Woman,Right,,,,,,,,,,,,,,,,,571,20,Woman,Right,
5,3,0.15,180,-,0,2.7507371999990937,['n'],2.113441700000294,1.726,,,,,,,,571,20,Woman,Right,,,,,,,,,,,,,,,,,571,20,Woman,Right,
5,3,0.15,0,-,0,2.1542243999992934,['n'],1.1494728999996369,1.818,,,,,,,,571,20,Woman,Right,,,,,,,,,,,,,,,,,571,20,Woman,Right,
5,3,0.15,0,180,180,0.8250323000002027,['n'],1.1775989999996455,1.5899999999999999,,,,,,,,571,20,Woman,Right,,,,,,,,,,,,,,,,,571,20,Woman,Right,
5,3,1.0,0,180,180,0.8596420000003491,['y'],1.130571200000304,1.99,,,,,,,,571,20,Woman,Right,,,,,,,,,,,,,,,,,571,20,Woman,Right,
5,3,0.4,180,0,0,0.7530041999998502,['y'],1.0608100999997987,1.986,,,,,,,,571,20,Woman,Right,,,,,,,,,,,,,,,,,571,20,Woman,Right,
5,3,0.15,0,-,180,0.725449600000502,['n'],1.9696052999997846,1.772,,,,,,,,571,20,Woman,Right,,,,,,,,,,,,,,,,,571,20,Woman,Right,
5,3,0.15,0,180,0,1.482148099999904,['n'],1.039989300000343,1.6019999999999999,7,4,10,4,0.7,1.0,,571,20,Woman,Right,,,,,,,,,,,,,,,,,571,20,Woman,Right,
,,,,,,,,,,,,,,,,3.3999995139311068e-06,571,20,Woman,Right,,,,,,,,,,,,,,,,,571,20,Woman,Right,
,,,,,,,,,,,,,,,,,571,20,Woman,Right,0,58,0.15,1,180,-,180,0.7961337000006097,['y'],5.103004100000362,1.584,379.0197885000007,,,,,571,20,Woman,Right,
,,,,,,,,,,,,,,,,,571,20,Woman,Right,0,22,0.4,1,180,-,0,1.034361600000011,['n'],3.2306311000002097,1.342,387.88651560000017,,,,,571,20,Woman,Right,
,,,,,,,,,,,,,,,,,571,20,Woman,Right,0,28,0.4,1,0,-,180,1.1472799000002851,['n'],1.543164099999558,1.5779999999999998,393.5861665000002,,,,,571,20,Woman,Right,
,,,,,,,,,,,,,,,,,571,20,Woman,Right,0,50,0.15,1,180,-,0,1.7969511000001148,['n'],1.5426357999995162,1.27,400.46955720000005,,,,,571,20,Woman,Right,
,,,,,,,,,,,,,,,,,571,20,Woman,Right,0,64,0.15,1,0,-,0,1.807946599999923,['n'],1.311377099999845,1.334,406.46953420000045,,,,,571,20,Woman,Right,
,,,,,,,,,,,,,,,,,571,20,Woman,Right,0,53,0.15,2,0,180,180,4.485796400000254,['n'],1.0462048999997933,1.158,414.76968750000015,,,,,571,20,Woman,Right,
,,,,,,,,,,,,,,,,,571,20,Woman,Right,0,75,0.15,2,180,0,0,0.6462387000001399,['n'],1.20654310000009,1.334,419.6030030000002,,,,,571,20,Woman,Right,
,,,,,,,,,,,,,,,,,571,20,Woman,Right,0,32,0.4,1,0,-,0,0.8868815999994695,['n'],0.9745925999995961,1.248,424.21976800000084,,,,,571,20,Woman,Right,
,,,,,,,,,,,,,,,,,571,20,Woman,Right,0,71,0.15,2,180,0,0,0.9259774000001926,['y'],1.0065776000001279,1.3439999999999999,428.9863800000003,,,,,571,20,Woman,Right,
,,,,,,,,,,,,,,,,,571,20,Woman,Right,0,30,0.4,1,180,-,180,1.6487376000004588,['n'],0.9266882000001715,1.3479999999999999,434.1867043000002,,,,,571,20,Woman,Right,
,,,,,,,,,,,,,,,,,571,20,Woman,Right,0,4,1,1,0,-,0,0.5126387999998769,['n'],0.8627590000005512,1.858,438.62000050000006,,,,,571,20,Woman,Right,
,,,,,,,,,,,,,,,,,571,20,Woman,Right,0,36,0.4,1,0,-,0,0.9024405999998635,['n'],0.7188341000000946,1.78,442.77008860000024,,,,,571,20,Woman,Right,
,,,,,,,,,,,,,,,,,571,20,Woman,Right,0,14,0.4,1,180,-,180,0.5117697999994562,['n'],1.0632597000003443,1.6219999999999999,447.1198531,,,,,571,20,Woman,Right,
,,,,,,,,,,,,,,,,,571,20,Woman,Right,0,5,1,2,0,180,180,0.9466468999999051,['y'],1.198860099999365,1.76,452.4365406000006,,,,,571,20,Woman,Right,
,,,,,,,,,,,,,,,,,571,20,Woman,Right,0,9,0.4,2,0,180,180,0.9970296999999846,['y'],0.7670875000003434,1.706,456.7532577000002,,,,,571,20,Woman,Right,
,,,,,,,,,,,,,,,,,571,20,Woman,Right,0,35,0.4,2,180,0,0,0.6274797000005492,['y'],1.1505638999997245,1.682,460.9367288000003,,,,,571,20,Woman,Right,
,,,,,,,,,,,,,,,,,571,20,Woman,Right,0,55,0.15,2,180,0,0,1.2667782999997144,['y'],1.0868931000004523,1.63,465.7866253000002,,,,,571,20,Woman,Right,
,,,,,,,,,,,,,,,,,571,20,Woman,Right,0,8,0.4,1,0,-,180,1.080300999999963,['n'],0.8951068999995186,1.264,471.07037370000035,,,,,571,20,Woman,Right,
,,,,,,,,,,,,,,,,,571,20,Woman,Right,0,26,0.4,1,180,-,180,0.7635772000003271,['n'],0.8630241000000751,1.428,476.0533419000003,,,,,571,20,Woman,Right,
,,,,,,,,,,,,,,,,,571,20,Woman,Right,0,29,0.4,2,0,180,180,0.7696921999995538,['y'],0.6786179999999149,1.612,480.2867229000003,,,,,571,20,Woman,Right,
,,,,,,,,,,,,,,,,,571,20,Woman,Right,0,76,0.15,1,0,-,180,2.812292100000377,['n'],0.9193746999999348,1.404,486.85408050000024,,,,,571,20,Woman,Right,
,,,,,,,,,,,,,,,,,571,20,Woman,Right,0,39,0.4,2,180,0,0,0.37429879999945115,['y'],0.8553194999994957,1.6179999999999999,490.5376375000005,,,,,571,20,Woman,Right,
,,,,,,,,,,,,,,,,,571,20,Woman,Right,0,33,0.4,2,0,180,180,0.6506144000004497,['y'],0.8870712999996613,1.732,494.6703851000002,,,,,571,20,Woman,Right,
,,,,,,,,,,,,,,,,,571,20,Woman,Right,0,3,1,2,180,0,0,0.7394303999999465,['y'],1.2950172999999268,1.964,499.2367432000001,,,,,571,20,Woman,Right,
,,,,,,,,,,,,,,,,,571,20,Woman,Right,0,12,0.4,1,0,-,180,1.451717599999938,['n'],0.9268879999999626,1.418,504.38678980000077,,,,,571,20,Woman,Right,
,,,,,,,,,,,,,,,,,571,20,Woman,Right,0,42,0.4,1,180,-,180,0.9200096000004123,['n'],0.8073210000002291,1.802,509.0540069000008,,,,,571,20,Woman,Right,
,,,,,,,,,,,,,,,,,571,20,Woman,Right,0,67,0.15,2,180,0,180,1.3775175000000672,['n'],2.134643000000324,1.3980000000000001,516.0535095000005,,,,,571,20,Woman,Right,
,,,,,,,,,,,,,,,,,571,20,Woman,Right,0,31,0.4,2,180,0,0,0.5081324000002496,['y'],0.7747213000002375,1.764,519.7038609000001,,,,,571,20,Woman,Right,
,,,,,,,,,,,,,,,,,571,20,Woman,Right,0,13,0.4,2,0,180,180,0.4845547999993869,['y'],0.7032442999998239,1.682,523.2702413000006,,,,,571,20,Woman,Right,
,,,,,,,,,,,,,,,,,571,20,Woman,Right,0,16,0.4,1,0,-,0,0.8278889000002891,['n'],0.9752331999998205,1.338,527.8870819000003,,,,,571,20,Woman,Right,
,,,,,,,,,,,,,,,,,571,20,Woman,Right,0,77,0.15,2,0,180,180,0.931784699999298,['y'],0.6951021000004403,1.4060000000000001,532.4208184000008,,,,,571,20,Woman,Right,
,,,,,,,,,,,,,,,,,571,20,Woman,Right,0,19,0.4,2,180,0,0,0.3915236000002551,['y'],0.8793089999999211,1.752,535.9537592000006,,,,,571,20,Woman,Right,
,,,,,,,,,,,,,,,,,571,20,Woman,Right,0,48,0.15,1,0,-,0,1.3529091000000335,['n'],0.9105021999994278,1.256,540.8203871000005,,,,,571,20,Woman,Right,
,,,,,,,,,,,,,,,,,571,20,Woman,Right,0,61,0.15,2,0,180,180,1.424204999999347,['y'],1.1507353999995757,1.3359999999999999,546.1204977000007,,,,,571,20,Woman,Right,
,,,,,,,,,,,,,,,,,571,20,Woman,Right,0,79,0.15,2,180,0,180,1.3653519999998025,['n'],0.9426213999995525,1.4020000000000001,551.053809,,,,,571,20,Woman,Right,
,,,,,,,,,,,,,,,,,571,20,Woman,Right,0,37,0.4,2,0,180,180,0.3744151000000784,['y'],0.6230296000003364,1.896,554.4038102000004,,,,,571,20,Woman,Right,
,,,,,,,,,,,,,,,,,571,20,Woman,Right,0,1,1,2,0,180,180,0.5429449999992357,['y'],0.7189031000007162,2.0,558.5207589000001,,,,,571,20,Woman,Right,
,,,,,,,,,,,,,,,,,571,20,Woman,Right,0,65,0.15,2,0,180,180,0.3676089000000502,['y'],0.8149288000004162,1.67,562.2872144000003,,,,,571,20,Woman,Right,
,,,,,,,,,,,,,,,,,571,20,Woman,Right,0,10,0.4,1,180,-,180,0.6198906999998144,['n'],0.8386172000000442,1.87,566.2538871000006,,,,,571,20,Woman,Right,
,,,,,,,,,,,,,,,,,571,20,Woman,Right,0,51,0.15,2,180,0,180,0.8646752999993623,['n'],0.9027744000004532,1.72,570.5872296000007,,,,,571,20,Woman,Right,
,,,,,,,,,,,,,,,,,571,20,Woman,Right,0,43,0.4,2,180,0,0,0.3017517999996926,['y'],0.6069827999999688,1.702,573.7710940000006,,,,,571,20,Woman,Right,
,,,,,,,,,,,,,,,,,571,20,Woman,Right,0,52,0.15,1,0,-,180,1.2090539000000717,['n'],0.4546323000004122,1.274,577.8551350000007,,,,,571,20,Woman,Right,
,,,,,,,,,,,,,,,,,571,20,Woman,Right,0,15,0.4,2,180,0,0,0.3731560000005629,['y'],0.8554991000000882,1.666,581.6372292000005,,,,,571,20,Woman,Right,
,,,,,,,,,,,,,,,,,571,20,Woman,Right,0,46,0.15,1,180,-,180,0.5732022000001962,['n'],0.9267040999993696,1.6400000000000001,585.6875214000002,,,,,571,20,Woman,Right,
,,,,,,,,,,,,,,,,,571,20,Woman,Right,0,47,0.15,2,180,0,180,1.4364992000000711,['n'],0.7588155000003098,1.69,590.0542796000009,,,,,571,20,Woman,Right,
,,,,,,,,,,,,,,,,,571,20,Woman,Right,0,41,0.4,2,0,180,180,1.1802202999997462,['y'],0.7428134000001592,1.6560000000000001,594.3873838000009,,,,,571,20,Woman,Right,
,,,,,,,,,,,,,,,,,571,20,Woman,Right,0,7,1,2,180,0,0,0.3124391999999716,['y'],1.5027075999996669,2.0,599.1207229000001,,,,,571,20,Woman,Right,
,,,,,,,,,,,,,,,,,571,20,Woman,Right,0,49,0.15,2,0,180,180,2.2325111999998626,['n'],3.4069429000001037,1.324,607.5041418000001,,,,,571,20,Woman,Right,
,,,,,,,,,,,,,,,,,571,20,Woman,Right,0,70,0.15,1,180,-,180,1.1868936000000758,['n'],1.0074101999998675,1.242,612.1543865000003,,,,,571,20,Woman,Right,
,,,,,,,,,,,,,,,,,571,20,Woman,Right,0,59,0.15,2,180,0,180,2.0975232000000688,['n'],1.006833700000243,1.248,617.7210679000009,,,,,571,20,Woman,Right,
,,,,,,,,,,,,,,,,,571,20,Woman,Right,0,73,0.15,2,0,180,0,3.8211503000002267,['n'],0.9586156000004848,1.028,625.2042416000004,,,,,571,20,Woman,Right,
,,,,,,,,,,,,,,,,,571,20,Woman,Right,0,66,0.15,1,180,-,180,5.279941300000246,['y'],0.23027730000012525,1.04,633.9712172000009,,,,,571,20,Woman,Right,
,,,,,,,,,,,,,,,,,571,20,Woman,Right,0,18,0.4,1,180,-,180,1.3128004999998666,['n'],0.8067210999997769,1.568,639.0876596000007,,,,,571,20,Woman,Right,
,,,,,,,,,,,,,,,,,571,20,Woman,Right,0,40,0.4,1,0,-,0,3.7456216999999015,['n'],1.1744747000002462,1.3319999999999999,646.5713404000007,,,,,571,20,Woman,Right,
,,,,,,,,,,,,,,,,,571,20,Woman,Right,0,78,0.15,1,180,-,180,4.2467821999998705,['n'],4.278690799999822,1.006,657.5878251000004,,,,,571,20,Woman,Right,
,,,,,,,,,,,,,,,,,571,20,Woman,Right,0,74,0.15,1,180,-,180,1.2491910999997344,['n'],1.0072989000000234,1.322,662.7546226000004,,,,,571,20,Woman,Right,
,,,,,,,,,,,,,,,,,571,20,Woman,Right,0,25,0.4,2,0,180,180,0.7032375999997384,['y'],0.8870120000001407,1.712,667.8211444000008,,,,,571,20,Woman,Right,
,,,,,,,,,,,,,,,,,571,20,Woman,Right,0,23,0.4,2,180,0,0,0.8836122000002433,['y'],2.054693799999768,1.782,674.1046485000006,,,,,571,20,Woman,Right,
,,,,,,,,,,,,,,,,,571,20,Woman,Right,0,69,0.15,2,0,180,180,0.516807200000585,['y'],0.7073577999999543,1.658,677.6712157000002,,,,,571,20,Woman,Right,
,,,,,,,,,,,,,,,,,571,20,Woman,Right,0,62,0.15,1,180,-,180,0.8918173000001843,['y'],0.9267346999995425,1.6400000000000001,681.7878808000005,,,,,571,20,Woman,Right,
,,,,,,,,,,,,,,,,,571,20,Woman,Right,0,11,0.4,2,180,0,0,0.5995652999999947,['y'],1.2384357000000819,1.608,686.0044592000004,,,,,571,20,Woman,Right,
,,,,,,,,,,,,,,,,,571,20,Woman,Right,0,27,0.4,2,180,0,0,0.3196739000004527,['y'],1.8870408000002499,1.706,690.4046376000006,,,,,571,20,Woman,Right,
,,,,,,,,,,,,,,,,,571,20,Woman,Right,0,72,0.15,1,0,-,180,2.3743415999997524,['y'],0.7908388000005289,1.694,696.1046401000003,,,,,571,20,Woman,Right,
,,,,,,,,,,,,,,,,,571,20,Woman,Right,0,63,0.15,2,180,0,180,2.204931299999771,['y'],0.9592264000002615,1.334,701.6888581000003,,,,,571,20,Woman,Right,
,,,,,,,,,,,,,,,,,571,20,Woman,Right,0,57,0.15,2,0,180,180,3.3733626000002914,['y'],0.23054409999986092,1.258,707.5882725000001,,,,,571,20,Woman,Right,
,,,,,,,,,,,,,,,,,571,20,Woman,Right,0,0,1,1,0,-,180,4.004420099999152,['n'],0.9749086000001626,1.254,715.3383792000004,,,,,571,20,Woman,Right,
,,,,,,,,,,,,,,,,,571,20,Woman,Right,0,34,0.4,1,180,-,180,2.7951866000003065,['n'],0.9906317999993917,1.272,721.4380522000001,,,,,571,20,Woman,Right,
,,,,,,,,,,,,,,,,,571,20,Woman,Right,0,38,0.4,1,180,-,180,1.565738400000555,['n'],2.006987599999775,1.302,727.3718104000009,,,,,571,20,Woman,Right,
,,,,,,,,,,,,,,,,,571,20,Woman,Right,0,44,0.15,1,0,-,0,1.002024899999924,['n'],1.390596899999764,1.58,732.6717756000007,,,,,571,20,Woman,Right,
,,,,,,,,,,,,,,,,,571,20,Woman,Right,0,20,0.4,1,0,-,180,1.9417372000007163,['n'],1.1106906000004528,1.0,738.4882122000008,,,,,571,20,Woman,Right,
,,,,,,,,,,,,,,,,,571,20,Woman,Right,0,68,0.15,1,0,-,0,2.6290577999998277,['n'],1.5905619999994087,1.006,745.1718960000007,,,,,571,20,Woman,Right,
,,,,,,,,,,,,,,,,,571,20,Woman,Right,0,24,0.4,1,0,-,0,3.9934090999995533,['n'],1.1265698999995948,1.1019999999999999,752.5383716000006,,,,,571,20,Woman,Right,
,,,,,,,,,,,,,,,,,571,20,Woman,Right,0,21,0.4,2,0,180,180,0.8974082000004273,['y'],0.9270157999999356,1.67,756.7551679000007,,,,,571,20,Woman,Right,
,,,,,,,,,,,,,,,,,571,20,Woman,Right,0,17,0.4,2,0,180,180,0.46474960000068677,['y'],0.766893799999707,1.624,760.2552277000004,,,,,571,20,Woman,Right,
,,,,,,,,,,,,,,,,,571,20,Woman,Right,0,54,0.15,1,180,-,180,0.714837699999407,['n'],0.8707585000001927,1.552,764.6719674000005,,,,,571,20,Woman,Right,
,,,,,,,,,,,,,,,,,571,20,Woman,Right,0,45,0.15,2,0,180,180,2.195516900000257,['y'],0.3347347000008085,1.442,769.9719284000003,,,,,571,20,Woman,Right,
,,,,,,,,,,,,,,,,,571,20,Woman,Right,0,56,0.15,1,0,-,0,0.9674716999998054,['n'],0.8388497999994797,1.354,774.3884087000006,,,,,571,20,Woman,Right,
,,,,,,,,,,,,,,,,,571,20,Woman,Right,0,6,1,1,180,-,180,0.519275500000731,['n'],1.8789623000002393,1.722,779.6886477000007,,,,,571,20,Woman,Right,
,,,,,,,,,,,,,,,,,571,20,Woman,Right,0,60,0.15,1,0,-,0,3.3146436999995785,['y'],1.422930599999745,1.0,787.9718320000002,,,,,571,20,Woman,Right,
,,,,,,,,,,,,,,,,,571,20,Woman,Right,0,2,1,1,180,-,180,0.7595941999998104,['n'],1.5186143000000811,1.966,793.4721678000005,,,,,571,20,Woman,Right,
,,,,,,,,,,,,,,,,,571,20,Woman,Right,1,64,0.15,1,0,-,0,2.6382486000002245,['n'],3.110515200000009,1.15,819.3053301,78.75,87.5,77.5,,571,20,Woman,Right,
,,,,,,,,,,,,,,,,,571,20,Woman,Right,1,51,0.15,2,180,0,180,2.633525900000677,['n'],1.1584975000005215,1.184,825.9053761000005,,,,,571,20,Woman,Right,
,,,,,,,,,,,,,,,,,571,20,Woman,Right,1,37,0.4,2,0,180,180,0.5779921000003014,['y'],0.7673792999994475,1.988,829.6387604000001,,,,,571,20,Woman,Right,
,,,,,,,,,,,,,,,,,571,20,Woman,Right,1,48,0.15,1,0,-,0,1.0290079999995214,['n'],0.7909159999999247,1.276,834.0555771000008,,,,,571,20,Woman,Right,
,,,,,,,,,,,,,,,,,571,20,Woman,Right,1,45,0.15,2,0,180,180,0.37418069999966974,['n'],1.726970099999562,1.5819999999999999,838.7387367000001,,,,,571,20,Woman,Right,
,,,,,,,,,,,,,,,,,571,20,Woman,Right,1,39,0.4,2,180,0,0,0.6584635999997772,['y'],0.6066528999999719,1.754,842.5557290000006,,,,,571,20,Woman,Right,
,,,,,,,,,,,,,,,,,571,20,Woman,Right,1,78,0.15,1,180,-,180,0.5443780999994488,['n'],0.7351197999996657,1.6600000000000001,846.3390165000001,,,,,571,20,Woman,Right,
,,,,,,,,,,,,,,,,,571,20,Woman,Right,1,73,0.15,2,0,180,180,0.5928510000003371,['y'],0.6149709000001167,1.806,850.1555306,,,,,571,20,Woman,Right,
,,,,,,,,,,,,,,,,,571,20,Woman,Right,1,65,0.15,2,0,180,180,1.1829402000003029,['y'],0.45525759999964066,1.786,854.1889466000002,,,,,571,20,Woman,Right,
,,,,,,,,,,,,,,,,,571,20,Woman,Right,1,75,0.15,2,180,0,0,2.944465499999751,['y'],0.39861370000016905,1.756,859.9557557000007,,,,,571,20,Woman,Right,
,,,,,,,,,,,,,,,,,571,20,Woman,Right,1,61,0.15,2,0,180,180,1.8576733999998396,['y'],0.6708178999997472,1.7,865.5725411000003,,,,,571,20,Woman,Right,
,,,,,,,,,,,,,,,,,571,20,Woman,Right,1,29,0.4,2,0,180,180,0.4155582000003051,['y'],0.6469113000002835,1.686,868.8723089000005,,,,,571,20,Woman,Right,
,,,,,,,,,,,,,,,,,571,20,Woman,Right,1,70,0.15,1,180,-,0,0.8285142000004271,['y'],1.5187667000000147,1.69,873.3731962000002,,,,,571,20,Woman,Right,
,,,,,,,,,,,,,,,,,571,20,Woman,Right,1,1,1,2,0,180,180,0.3379248999999618,['y'],0.9745856999998068,1.688,877.2723479000006,,,,,571,20,Woman,Right,
,,,,,,,,,,,,,,,,,571,20,Woman,Right,1,52,0.15,1,0,-,0,0.9068919000001188,['n'],0.9748313000000053,1.362,881.8223833000002,,,,,571,20,Woman,Right,
,,,,,,,,,,,,,,,,,571,20,Woman,Right,1,3,1,2,180,0,0,0.43166680000013,['y'],0.7271946000000753,1.96,885.4223984,,,,,571,20,Woman,Right,
,,,,,,,,,,,,,,,,,571,20,Woman,Right,1,18,0.4,1,180,-,180,0.4707410000000891,['n'],0.9271994999999151,1.6360000000000001,889.7058338000006,,,,,571,20,Woman,Right,
,,,,,,,,,,,,,,,,,571,20,Woman,Right,1,34,0.4,1,180,-,180,0.5541831000000457,['n'],1.0710520000002361,1.806,895.6558477000008,,,,,571,20,Woman,Right,
,,,,,,,,,,,,,,,,,571,20,Woman,Right,1,31,0.4,2,180,0,0,0.7722280000007231,['y'],0.3828444999999192,1.82,899.2395601000007,,,,,571,20,Woman,Right,
,,,,,,,,,,,,,,,,,571,20,Woman,Right,1,49,0.15,2,0,180,180,1.6806583999996292,['y'],0.24642899999980727,1.824,903.4891854000007,,,,,571,20,Woman,Right,
,,,,,,,,,,,,,,,,,571,20,Woman,Right,1,43,0.4,2,180,0,0,0.33260519999930693,['y'],0.5665644999999131,1.824,906.4391503000006,,,,,571,20,Woman,Right,
,,,,,,,,,,,,,,,,,571,20,Woman,Right,1,40,0.4,1,0,-,180,1.8667571999994834,['y'],1.5636331999994582,1.824,912.1733967,,,,,571,20,Woman,Right,
,,,,,,,,,,,,,,,,,571,20,Woman,Right,1,28,0.4,1,0,-,0,0.920387899999696,['y'],1.3265258000001268,1.6019999999999999,916.9726028000005,,,,,571,20,Woman,Right,
,,,,,,,,,,,,,,,,,571,20,Woman,Right,1,13,0.4,2,0,180,180,0.37503670000023703,['y'],0.5986708000000363,1.608,920.1394414000006,,,,,571,20,Woman,Right,
,,,,,,,,,,,,,,,,,571,20,Woman,Right,1,33,0.4,2,0,180,180,0.7704271000002336,['y'],0.8465808000000834,1.822,924.1226340000003,,,,,571,20,Woman,Right,
,,,,,,,,,,,,,,,,,571,20,Woman,Right,1,35,0.4,2,180,0,0,1.4505067999998573,['y'],0.3517991000007896,1.83,928.0561526000001,,,,,571,20,Woman,Right,
,,,,,,,,,,,,,,,,,571,20,Woman,Right,1,19,0.4,2,180,0,0,0.33045379999930447,['y'],0.5831216999995377,1.83,931.1235080000006,,,,,571,20,Woman,Right,
,,,,,,,,,,,,,,,,,571,20,Woman,Right,1,21,0.4,2,0,180,180,0.44842700000026525,['y'],0.32689879999998084,1.83,934.2563096000003,,,,,571,20,Woman,Right,
,,,,,,,,,,,,,,,,,571,20,Woman,Right,1,62,0.15,1,180,-,180,1.053677100000641,['n'],0.6629006999992271,1.744,938.3895835000003,,,,,571,20,Woman,Right,
,,,,,,,,,,,,,,,,,571,20,Woman,Right,1,16,0.4,1,0,-,180,0.735458699999981,['y'],0.5267704999996567,1.746,942.3559741000008,,,,,571,20,Woman,Right,
,,,,,,,,,,,,,,,,,571,20,Woman,Right,1,57,0.15,2,0,180,180,1.0164674000006926,['n'],0.2866186999999627,1.314,946.1393368000008,,,,,571,20,Woman,Right,
,,,,,,,,,,,,,,,,,571,20,Woman,Right,1,36,0.4,1,0,-,0,0.6552190000002156,['n'],0.7431114999999409,1.706,950.1227412000007,,,,,571,20,Woman,Right,
,,,,,,,,,,,,,,,,,571,20,Woman,Right,1,46,0.15,1,180,-,180,0.8101618999999118,['n'],0.8787624000005962,1.306,954.3560899000004,,,,,571,20,Woman,Right,
,,,,,,,,,,,,,,,,,571,20,Woman,Right,1,68,0.15,1,0,-,0,0.5343782999998439,['n'],0.7270993000001909,1.646,957.9562052000001,,,,,571,20,Woman,Right,
,,,,,,,,,,,,,,,,,571,20,Woman,Right,1,30,0.4,1,180,-,0,1.6011382999995476,['y'],0.7830197000002954,1.612,962.5727809,,,,,571,20,Woman,Right,
,,,,,,,,,,,,,,,,,571,20,Woman,Right,1,15,0.4,2,180,0,0,0.23972319999938918,['y'],0.5669990999995207,1.996,966.2228702000002,,,,,571,20,Woman,Right,
,,,,,,,,,,,,,,,,,571,20,Woman,Right,1,42,0.4,1,180,-,0,2.950201300000117,['y'],0.9663549000006242,1.6480000000000001,972.4062312000005,,,,,571,20,Woman,Right,
,,,,,,,,,,,,,,,,,571,20,Woman,Right,1,22,0.4,1,180,-,0,0.41715730000032636,['y'],0.766807200000585,1.6,975.6899308000002,,,,,571,20,Woman,Right,
,,,,,,,,,,,,,,,,,571,20,Woman,Right,1,41,0.4,2,0,180,180,0.23612120000052528,['y'],0.5269039000004341,1.6,978.9899685,,,,,571,20,Woman,Right,
,,,,,,,,,,,,,,,,,571,20,Woman,Right,1,74,0.15,1,180,-,180,0.7032559999997829,['y'],0.502570999999989,1.002,983.8398419000005,,,,,571,20,Woman,Right,
,,,,,,,,,,,,,,,,,571,20,Woman,Right,1,44,0.15,1,0,-,180,0.6692456999999195,['y'],0.5187135999995007,1.1099999999999999,987.5564471000007,,,,,571,20,Woman,Right,
,,,,,,,,,,,,,,,,,571,20,Woman,Right,1,63,0.15,2,180,0,0,0.6008553000001484,['y'],1.422979299999497,1.276,991.9230369000006,,,,,571,20,Woman,Right,
,,,,,,,,,,,,,,,,,571,20,Woman,Right,1,20,0.4,1,0,-,180,0.4210665999999037,['y'],0.5666391999993721,1.584,995.2065297000008,,,,,571,20,Woman,Right,
,,,,,,,,,,,,,,,,,571,20,Woman,Right,1,59,0.15,2,180,0,0,1.580587999999807,['y'],1.3667014999991807,1.37,1000.5240617000009,,,,,571,20,Woman,Right,
,,,,,,,,,,,,,,,,,571,20,Woman,Right,1,38,0.4,1,180,-,180,1.0170109000000593,['n'],0.6868161000002146,1.206,1004.5398336000007,,,,,571,20,Woman,Right,
,,,,,,,,,,,,,,,,,571,20,Woman,Right,1,50,0.15,1,180,-,0,1.1273105000000214,['n'],0.9989480999993248,1.238,1009.2230999000003,,,,,571,20,Woman,Right,
,,,,,,,,,,,,,,,,,571,20,Woman,Right,1,32,0.4,1,0,-,180,0.5201788000003944,['y'],0.5106573000002754,1.608,1012.7231127000005,,,,,571,20,Woman,Right,
,,,,,,,,,,,,,,,,,571,20,Woman,Right,1,6,1,1,180,-,180,0.5909650000003239,['n'],0.5988143000004129,1.888,1017.3399911000006,,,,,571,20,Woman,Right,
,,,,,,,,,,,,,,,,,571,20,Woman,Right,1,2,1,1,180,-,180,0.34336419999999634,['n'],2.118913000000248,1.808,1022.2730924000007,,,,,571,20,Woman,Right,
,,,,,,,,,,,,,,,,,571,20,Woman,Right,1,56,0.15,1,0,-,0,1.9466108999995413,['n'],0.6463934000003064,1.654,1027.1067523000002,,,,,571,20,Woman,Right,
,,,,,,,,,,,,,,,,,571,20,Woman,Right,1,14,0.4,1,180,-,180,0.14538370000082068,['n'],2.094996199999514,1.758,1031.8064879000003,,,,,571,20,Woman,Right,
,,,,,,,,,,,,,,,,,571,20,Woman,Right,1,10,0.4,1,180,-,180,1.7269501999999193,['n'],0.959017600000152,1.702,1036.7232692000007,,,,,571,20,Woman,Right,
,,,,,,,,,,,,,,,,,571,20,Woman,Right,1,72,0.15,1,0,-,0,0.5799220999997488,['n'],0.7430378999997629,1.62,1040.1731687000001,,,,,571,20,Woman,Right,
,,,,,,,,,,,,,,,,,571,20,Woman,Right,1,54,0.15,1,180,-,0,2.166380799999388,['y'],0.8625102999994851,1.38,1045.5399581000001,,,,,571,20,Woman,Right,
,,,,,,,,,,,,,,,,,571,20,Woman,Right,1,27,0.4,2,180,0,0,0.3478019999993194,['y'],0.6464177999996537,1.96,1048.7733136000006,,,,,571,20,Woman,Right,
,,,,,,,,,,,,,,,,,571,20,Woman,Right,1,9,0.4,2,0,180,180,1.0778709999995044,['y'],0.3193271000000095,1.972,1052.5410378000006,,,,,571,20,Woman,Right,
,,,,,,,,,,,,,,,,,571,20,Woman,Right,1,8,0.4,1,0,-,0,0.5355279000004884,['n'],0.8148571000001539,1.826,1056.656665300001,,,,,571,20,Woman,Right,
,,,,,,,,,,,,,,,,,571,20,Woman,Right,1,67,0.15,2,180,0,180,0.8782046999995146,['n'],0.6468462999991971,1.33,1060.9407723000004,,,,,571,20,Woman,Right,
,,,,,,,,,,,,,,,,,571,20,Woman,Right,1,4,1,1,0,-,0,0.3382051999997202,['n'],0.7269961000001786,1.978,1064.3568242000001,,,,,571,20,Woman,Right,
,,,,,,,,,,,,,,,,,571,20,Woman,Right,1,5,1,2,0,180,180,0.3278057000006811,['y'],0.6150883999998769,2.0,1067.5903073000009,,,,,571,20,Woman,Right,
,,,,,,,,,,,,,,,,,571,20,Woman,Right,1,0,1,1,0,-,0,0.6070564000001468,['n'],0.767062499999156,2.0,1071.3233479,,,,,571,20,Woman,Right,
,,,,,,,,,,,,,,,,,571,20,Woman,Right,1,53,0.15,2,0,180,180,1.2658764999996492,['n'],0.6868985000000976,1.234,1075.5402832000009,,,,,571,20,Woman,Right,
,,,,,,,,,,,,,,,,,571,20,Woman,Right,1,66,0.15,1,180,-,180,0.4649891999997635,['n'],0.6469827999999325,1.188,1078.8903657,,,,,571,20,Woman,Right,
,,,,,,,,,,,,,,,,,571,20,Woman,Right,1,60,0.15,1,0,-,0,0.5886712999999872,['n'],0.5030258999995567,1.308,1082.6902514000003,,,,,571,20,Woman,Right,
,,,,,,,,,,,,,,,,,571,20,Woman,Right,1,23,0.4,2,180,0,0,0.5782885999997234,['y'],0.5510988000005455,1.964,1086.4411666000005,,,,,571,20,Woman,Right,
,,,,,,,,,,,,,,,,,571,20,Woman,Right,1,79,0.15,2,180,0,180,1.3011337999996613,['n'],0.7670173999995313,1.5899999999999999,1090.7734572000008,,,,,571,20,Woman,Right,
,,,,,,,,,,,,,,,,,571,20,Woman,Right,1,12,0.4,1,0,-,0,0.487567900000613,['n'],0.5744100000001708,1.17,1094.0236106000002,,,,,571,20,Woman,Right,
,,,,,,,,,,,,,,,,,571,20,Woman,Right,1,7,1,2,180,0,0,0.34849690000010014,['y'],0.519215900000745,1.992,1097.2070027000009,,,,,571,20,Woman,Right,
,,,,,,,,,,,,,,,,,571,20,Woman,Right,1,76,0.15,1,0,-,180,0.6136590000005526,['y'],0.6949173999992126,1.72,1100.7069725000001,,,,,571,20,Woman,Right,
,,,,,,,,,,,,,,,,,571,20,Woman,Right,1,24,0.4,1,0,-,180,1.1538908000002266,['n'],0.31861529999969207,1.208,1104.3735456000004,,,,,571,20,Woman,Right,
,,,,,,,,,,,,,,,,,571,20,Woman,Right,1,58,0.15,1,180,-,0,2.092865399999937,['y'],0.5266357000000426,1.3940000000000001,1110.490262800001,,,,,571,20,Woman,Right,
,,,,,,,,,,,,,,,,,571,20,Woman,Right,1,69,0.15,2,0,180,180,0.9309705000005124,['y'],0.44708839999930206,1.596,1114.0405824000009,,,,,571,20,Woman,Right,
,,,,,,,,,,,,,,,,,571,20,Woman,Right,1,55,0.15,2,180,0,0,2.0048844000002646,['y'],0.1821872999998959,1.554,1118.3569792000008,,,,,571,20,Woman,Right,
,,,,,,,,,,,,,,,,,571,20,Woman,Right,1,26,0.4,1,180,-,180,1.1724513999997725,['n'],0.44665420000001177,1.17,1122.173968,,,,,571,20,Woman,Right,
,,,,,,,,,,,,,,,,,571,20,Woman,Right,1,77,0.15,2,0,180,0,0.9343685000003461,['n'],1.1186481000004278,1.4020000000000001,1126.9742637000008,,,,,571,20,Woman,Right,
,,,,,,,,,,,,,,,,,571,20,Woman,Right,1,71,0.15,2,180,0,180,1.168274300000121,['n'],1.118854100000135,1.212,1131.4406743000009,,,,,571,20,Woman,Right,
,,,,,,,,,,,,,,,,,571,20,Woman,Right,1,17,0.4,2,0,180,180,0.4709232000004704,['y'],0.6710755000003701,1.986,1135.0071705,,,,,571,20,Woman,Right,
,,,,,,,,,,,,,,,,,571,20,Woman,Right,1,11,0.4,2,180,0,0,0.6859649000007266,['y'],0.542902199999844,1.974,1138.6073458,,,,,571,20,Woman,Right,
,,,,,,,,,,,,,,,,,571,20,Woman,Right,1,25,0.4,2,0,180,180,0.3736377999994147,['y'],0.48668259999976726,1.99,1141.8239570000005,,,,,571,20,Woman,Right,
,,,,,,,,,,,,,,,,,571,20,Woman,Right,1,47,0.15,2,180,0,180,1.9417837000000873,['n'],0.7189422000001287,1.084,1146.7746142000005,,,,,571,20,Woman,Right,
,,,,,,,,,,,,,,,,,571,20,Woman,Right,2,19,0.4,2,180,0,0,0.4516836000002513,['y'],0.48692490000030375,2.0,1163.0240208000005,75.0,65.0,77.5,,571,20,Woman,Right,
,,,,,,,,,,,,,,,,,571,20,Woman,Right,2,46,0.15,1,180,-,0,0.5010552999992797,['y'],0.5428067000002557,1.988,1166.2908498000006,,,,,571,20,Woman,Right,
,,,,,,,,,,,,,,,,,571,20,Woman,Right,2,1,1,2,0,180,180,0.4191736000002493,['y'],0.31075289999989764,2.0,1169.8740892000005,,,,,571,20,Woman,Right,
,,,,,,,,,,,,,,,,,571,20,Woman,Right,2,42,0.4,1,180,-,180,1.1046996999994008,['n'],0.5109673000006296,1.964,1173.9075468,,,,,571,20,Woman,Right,
,,,,,,,,,,,,,,,,,571,20,Woman,Right,2,48,0.15,1,0,-,180,0.37892069999998057,['y'],0.4228532000006453,1.72,1176.8575342000004,,,,,571,20,Woman,Right,
,,,,,,,,,,,,,,,,,571,20,Woman,Right,2,74,0.15,1,180,-,180,0.5419904000000315,['y'],0.5110780000004524,1.6600000000000001,1180.0074723000007,,,,,571,20,Woman,Right,
,,,,,,,,,,,,,,,,,571,20,Woman,Right,2,36,0.4,1,0,-,0,0.7979519000000437,['n'],0.6150973999992857,1.642,1183.591198,,,,,571,20,Woman,Right,
,,,,,,,,,,,,,,,,,571,20,Woman,Right,2,8,0.4,1,0,-,0,0.3798962000000756,['n'],0.6552350000001752,1.6520000000000001,1186.8576377000009,,,,,571,20,Woman,Right,
,,,,,,,,,,,,,,,,,571,20,Woman,Right,2,40,0.4,1,0,-,180,0.5547123999995165,['n'],1.1509028999998918,1.624,1191.1409304000008,,,,,571,20,Woman,Right,
,,,,,,,,,,,,,,,,,571,20,Woman,Right,2,63,0.15,2,180,0,0,0.32834730000013224,['y'],0.42258229999970354,1.758,1194.0407762000004,,,,,571,20,Woman,Right,
,,,,,,,,,,,,,,,,,571,20,Woman,Right,2,18,0.4,1,180,-,180,0.445669399999133,['n'],0.49442480000016076,1.616,1197.4575229000002,,,,,571,20,Woman,Right,
,,,,,,,,,,,,,,,,,571,20,Woman,Right,2,65,0.15,2,0,180,180,0.6672907000001942,['n'],0.6307125000002998,1.65,1200.9741801,,,,,571,20,Woman,Right,
,,,,,,,,,,,,,,,,,571,20,Woman,Right,2,20,0.4,1,0,-,0,0.37386570000035135,['n'],1.0389304000000266,1.608,1204.6251240000001,,,,,571,20,Woman,Right,
,,,,,,,,,,,,,,,,,571,20,Woman,Right,2,78,0.15,1,180,-,180,0.24673520000033022,['n'],0.48672850000002654,1.658,1207.5575294,,,,,571,20,Woman,Right,
,,,,,,,,,,,,,,,,,571,20,Woman,Right,2,77,0.15,2,0,180,0,0.32717439999942144,['n'],0.527344200000698,1.5819999999999999,1210.5408856000004,,,,,571,20,Woman,Right,
,,,,,,,,,,,,,,,,,571,20,Woman,Right,2,2,1,1,180,-,180,0.7683466999997108,['n'],0.5350175000003219,1.5859999999999999,1214.0410252000001,,,,,571,20,Woman,Right,
,,,,,,,,,,,,,,,,,571,20,Woman,Right,2,0,1,1,0,-,0,0.14034020000053715,['n'],0.7028829999999289,1.944,1217.6743576000008,,,,,571,20,Woman,Right,
,,,,,,,,,,,,,,,,,571,20,Woman,Right,2,23,0.4,2,180,0,0,0.44140759999936563,['y'],1.0470069000002695,1.96,1221.7743086,,,,,571,20,Woman,Right,
,,,,,,,,,,,,,,,,,571,20,Woman,Right,2,12,0.4,1,0,-,0,0.6627281000000949,['n'],0.28659650000008696,1.678,1224.9745672000008,,,,,571,20,Woman,Right,
,,,,,,,,,,,,,,,,,571,20,Woman,Right,2,43,0.4,2,180,0,0,0.3213071999998647,['y'],0.454690099999425,1.962,1227.9911453000004,,,,,571,20,Woman,Right,
,,,,,,,,,,,,,,,,,571,20,Woman,Right,2,54,0.15,1,180,-,0,0.5103129000008266,['y'],0.5033441999994466,1.8780000000000001,1231.1757183000009,,,,,571,20,Woman,Right,
,,,,,,,,,,,,,,,,,571,20,Woman,Right,2,15,0.4,2,180,0,0,0.31658410000000003,['y'],0.36671580000074755,1.792,1234.1080398000004,,,,,571,20,Woman,Right,
,,,,,,,,,,,,,,,,,571,20,Woman,Right,2,7,1,2,180,0,0,0.3608961999998428,['y'],0.29447980000077223,2.0,1237.1244034000001,,,,,571,20,Woman,Right,
,,,,,,,,,,,,,,,,,571,20,Woman,Right,2,31,0.4,2,180,0,0,0.345780200000263,['y'],0.343306599999778,2.0,1240.4412696000009,,,,,571,20,Woman,Right,
,,,,,,,,,,,,,,,,,571,20,Woman,Right,2,59,0.15,2,180,0,0,0.562431899999865,['y'],0.5027893000005861,1.794,1243.7410640000007,,,,,571,20,Woman,Right,
,,,,,,,,,,,,,,,,,571,20,Woman,Right,2,71,0.15,2,180,0,0,0.5355366999992839,['y'],0.4950959999996485,1.7,1247.091461000001,,,,,571,20,Woman,Right,
,,,,,,,,,,,,,,,,,571,20,Woman,Right,2,13,0.4,2,0,180,180,0.35501709999971354,['y'],0.32679750000079366,1.858,1250.6745803000003,,,,,571,20,Woman,Right,
,,,,,,,,,,,,,,,,,571,20,Woman,Right,2,6,1,1,180,-,180,0.7216805999996723,['n'],0.7671942999995736,1.6600000000000001,1254.6245428000002,,,,,571,20,Woman,Right,
,,,,,,,,,,,,,,,,,571,20,Woman,Right,2,29,0.4,2,0,180,180,0.5892801999998483,['y'],0.2553347000002759,1.9060000000000001,1257.5412558000007,,,,,571,20,Woman,Right,
,,,,,,,,,,,,,,,,,571,20,Woman,Right,2,32,0.4,1,0,-,180,0.9605317000005016,['y'],0.21466869999949267,1.738,1260.8247310000006,,,,,571,20,Woman,Right,
,,,,,,,,,,,,,,,,,571,20,Woman,Right,2,57,0.15,2,0,180,0,1.4049459999996543,['y'],0.1988722999994934,1.6360000000000001,1264.5081272000007,,,,,571,20,Woman,Right,
,,,,,,,,,,,,,,,,,571,20,Woman,Right,2,45,0.15,2,0,180,180,0.6577240000005986,['y'],0.19053640000038286,1.6179999999999999,1267.441237,,,,,571,20,Woman,Right,
,,,,,,,,,,,,,,,,,571,20,Woman,Right,2,33,0.4,2,0,180,180,0.39710480000030657,['y'],0.2711637000002156,1.982,1270.3915995000007,,,,,571,20,Woman,Right,
,,,,,,,,,,,,,,,,,571,20,Woman,Right,2,76,0.15,1,0,-,0,0.9019282000008388,['n'],1.3345901000002414,1.6480000000000001,1274.9245971,,,,,571,20,Woman,Right,
,,,,,,,,,,,,,,,,,571,20,Woman,Right,2,4,1,1,0,-,0,1.6968526000000566,['n'],0.862972400000217,1.71,1279.8415108000008,,,,,571,20,Woman,Right,
,,,,,,,,,,,,,,,,,571,20,Woman,Right,2,27,0.4,2,180,0,0,0.7944532000001345,['y'],0.3746177000002717,1.918,1283.8749175000003,,,,,571,20,Woman,Right,
,,,,,,,,,,,,,,,,,571,20,Woman,Right,2,69,0.15,2,0,180,180,1.248734300000251,['y'],1.0549854999999297,1.604,1288.4580726000004,,,,,571,20,Woman,Right,
,,,,,,,,,,,,,,,,,571,20,Woman,Right,2,28,0.4,1,0,-,0,0.7565445999998701,['n'],0.3113433000007717,1.58,1291.6914510000006,,,,,571,20,Woman,Right,
,,,,,,,,,,,,,,,,,571,20,Woman,Right,2,25,0.4,2,0,180,180,0.35457319999932224,['y'],0.41526820000035514,1.938,1294.7586507000005,,,,,571,20,Woman,Right,
,,,,,,,,,,,,,,,,,571,20,Woman,Right,2,9,0.4,2,0,180,180,0.5755910999996559,['y'],0.34271699999953853,1.936,1297.7747017000002,,,,,571,20,Woman,Right,
,,,,,,,,,,,,,,,,,571,20,Woman,Right,2,53,0.15,2,0,180,180,0.8872819999996864,['y'],0.31824760000017704,1.98,1301.0750659000005,,,,,571,20,Woman,Right,
,,,,,,,,,,,,,,,,,571,20,Woman,Right,2,17,0.4,2,0,180,180,0.394893100000445,['y'],0.4785879000000932,1.964,1304.1416536000006,,,,,571,20,Woman,Right,
,,,,,,,,,,,,,,,,,571,20,Woman,Right,2,64,0.15,1,0,-,0,1.4466088999997737,['n'],0.6469346000003497,1.5779999999999998,1308.608099,,,,,571,20,Woman,Right,
,,,,,,,,,,,,,,,,,571,20,Woman,Right,2,75,0.15,2,180,0,0,0.948822299999847,['y'],0.29454960000020947,1.754,1312.3914440000008,,,,,571,20,Woman,Right,
,,,,,,,,,,,,,,,,,571,20,Woman,Right,2,22,0.4,1,180,-,180,0.8223909000007552,['n'],0.43130349999955797,1.5739999999999998,1315.9581542000005,,,,,571,20,Woman,Right,
,,,,,,,,,,,,,,,,,571,20,Woman,Right,2,14,0.4,1,180,-,180,1.0488894000000073,['n'],0.3905899000001227,1.58,1319.4251045,,,,,571,20,Woman,Right,
,,,,,,,,,,,,,,,,,571,20,Woman,Right,2,56,0.15,1,0,-,0,0.9948623999998745,['n'],0.24668089999977383,1.588,1322.8252441000004,,,,,571,20,Woman,Right,
,,,,,,,,,,,,,,,,,571,20,Woman,Right,2,51,0.15,2,180,0,0,2.3666450999999142,['y'],0.421399100000599,1.6360000000000001,1327.8085948000007,,,,,571,20,Woman,Right,
,,,,,,,,,,,,,,,,,571,20,Woman,Right,2,61,0.15,2,0,180,180,0.44513069999993604,['n'],1.575125499999558,1.4,1332.4249326000008,,,,,571,20,Woman,Right,
,,,,,,,,,,,,,,,,,571,20,Woman,Right,2,70,0.15,1,180,-,0,0.9180705999997372,['n'],0.8146262999998726,1.224,1336.3084662,,,,,571,20,Woman,Right,
,,,,,,,,,,,,,,,,,571,20,Woman,Right,2,55,0.15,2,180,0,0,0.9225966999993034,['n'],0.854978200000005,1.232,1340.2918348000003,,,,,571,20,Woman,Right,
,,,,,,,,,,,,,,,,,571,20,Woman,Right,2,16,0.4,1,0,-,180,1.2847392999992735,['n'],0.8306993999995029,1.22,1344.4751973000002,,,,,571,20,Woman,Right,
,,,,,,,,,,,,,,,,,571,20,Woman,Right,2,26,0.4,1,180,-,180,0.41822349999984,['n'],0.7025775000001886,1.28,1347.8750334000006,,,,,571,20,Woman,Right,
,,,,,,,,,,,,,,,,,571,20,Woman,Right,2,44,0.15,1,0,-,0,0.28298370000084105,['n'],0.74300409999978,1.312,1351.2584034000001,,,,,571,20,Woman,Right,
,,,,,,,,,,,,,,,,,571,20,Woman,Right,2,21,0.4,2,0,180,180,0.4181726000006165,['y'],0.374940499999866,1.986,1354.6584315,,,,,571,20,Woman,Right,
,,,,,,,,,,,,,,,,,571,20,Woman,Right,2,37,0.4,2,0,180,180,0.38731539999935194,['y'],0.3825413999993543,2.0,1357.7424615,,,,,571,20,Woman,Right,
,,,,,,,,,,,,,,,,,571,20,Woman,Right,2,39,0.4,2,180,0,0,0.19167149999975663,['y'],0.4630496999998286,2.0,1360.7086375000008,,,,,571,20,Woman,Right,
,,,,,,,,,,,,,,,,,571,20,Woman,Right,2,66,0.15,1,180,-,180,2.777402400000028,['n'],0.2624730000006821,1.138,1366.0421463000002,,,,,571,20,Woman,Right,
,,,,,,,,,,,,,,,,,571,20,Woman,Right,2,41,0.4,2,0,180,180,0.585249499999918,['y'],1.006734300000062,1.994,1370.1417644000003,,,,,571,20,Woman,Right,
,,,,,,,,,,,,,,,,,571,20,Woman,Right,2,72,0.15,1,0,-,0,1.3676519000000553,['n'],0.3667879000004177,1.5979999999999999,1374.0751935000008,,,,,571,20,Woman,Right,
,,,,,,,,,,,,,,,,,571,20,Woman,Right,2,10,0.4,1,180,-,180,0.40075070000057167,['n'],0.9587695000000167,1.6139999999999999,1377.7586298000006,,,,,571,20,Woman,Right,
,,,,,,,,,,,,,,,,,571,20,Woman,Right,2,60,0.15,1,0,-,180,1.6559887000003073,['n'],0.7029411000003165,1.694,1382.1922101,,,,,571,20,Woman,Right,
,,,,,,,,,,,,,,,,,571,20,Woman,Right,2,30,0.4,1,180,-,180,0.6783273999999437,['n'],0.17523590000018885,1.58,1385.5086746000006,,,,,571,20,Woman,Right,
,,,,,,,,,,,,,,,,,571,20,Woman,Right,2,62,0.15,1,180,-,180,0.5333868999996412,['n'],0.3303903000005448,1.5819999999999999,1389.0929546000007,,,,,571,20,Woman,Right,
,,,,,,,,,,,,,,,,,571,20,Woman,Right,2,49,0.15,2,0,180,0,1.418319700000211,['n'],0.9589314999993803,1.5819999999999999,1393.4919437000008,,,,,571,20,Woman,Right,
,,,,,,,,,,,,,,,,,571,20,Woman,Right,2,68,0.15,1,0,-,180,1.20089359999929,['n'],0.1511436999999205,1.5819999999999999,1396.9920336000005,,,,,571,20,Woman,Right,
,,,,,,,,,,,,,,,,,571,20,Woman,Right,2,24,0.4,1,0,-,0,0.558703499999865,['y'],0.9908166999994137,1.08,1401.3086633000003,,,,,571,20,Woman,Right,
,,,,,,,,,,,,,,,,,571,20,Woman,Right,2,5,1,2,0,180,180,0.5203304999995453,['y'],0.35090970000055677,2.0,1404.8089399,,,,,571,20,Woman,Right,
,,,,,,,,,,,,,,,,,571,20,Woman,Right,2,38,0.4,1,180,-,180,0.40954210000018065,['n'],0.5427878000000419,1.256,1408.0421287000008,,,,,571,20,Woman,Right,
,,,,,,,,,,,,,,,,,571,20,Woman,Right,2,11,0.4,2,180,0,0,0.5164888999997856,['y'],0.5267040999997334,2.0,1411.3588264,,,,,571,20,Woman,Right,
,,,,,,,,,,,,,,,,,571,20,Woman,Right,2,73,0.15,2,0,180,180,1.6063233000004402,['y'],0.1508014999999432,1.6400000000000001,1415.2421014000001,,,,,571,20,Woman,Right,
,,,,,,,,,,,,,,,,,571,20,Woman,Right,2,67,0.15,2,180,0,0,0.4707386999998562,['y'],0.2791914999997971,1.638,1418.0255603000005,,,,,571,20,Woman,Right,
,,,,,,,,,,,,,,,,,571,20,Woman,Right,2,34,0.4,1,180,-,180,0.8369431000000986,['n'],0.23086849999981496,1.306,1421.5756863000006,,,,,571,20,Woman,Right,
,,,,,,,,,,,,,,,,,571,20,Woman,Right,2,3,1,2,180,0,0,0.43072509999910835,['y'],0.35948370000005525,2.0,1424.8921289,,,,,571,20,Woman,Right,
,,,,,,,,,,,,,,,,,571,20,Woman,Right,2,79,0.15,2,180,0,0,0.560676400000375,['y'],0.2633485999995173,1.8,1427.8922236000008,,,,,571,20,Woman,Right,
,,,,,,,,,,,,,,,,,571,20,Woman,Right,2,35,0.4,2,180,0,0,0.39382709999972576,['y'],0.35037260000081005,1.966,1430.8755950000004,,,,,571,20,Woman,Right,
,,,,,,,,,,,,,,,,,571,20,Woman,Right,2,52,0.15,1,0,-,0,0.8900737999992998,['n'],0.2473033000005671,1.576,1434.1589622000001,,,,,571,20,Woman,Right,
,,,,,,,,,,,,,,,,,571,20,Woman,Right,2,50,0.15,1,180,-,180,0.6393975000000864,['n'],0.32716249999975844,1.5859999999999999,1437.5922536000007,,,,,571,20,Woman,Right,
,,,,,,,,,,,,,,,,,571,20,Woman,Right,2,47,0.15,2,180,0,0,1.8386201000002984,['n'],0.8065530000003491,1.514,1442.2926105000006,,,,,571,20,Woman,Right,
,,,,,,,,,,,,,,,,,571,20,Woman,Right,2,58,0.15,1,180,-,180,0.6169466000001194,['n'],0.5105999000006705,1.4020000000000001,1445.575844600001,,,,,571,20,Woman,Right,
,,,,,,,,,,,,,,,,,571,20,Woman,Right,3,21,0.4,2,0,180,180,0.43043330000000424,['y'],0.23931660000016564,2.0,1457.9090493000003,85.0,85.0,85.0,,571,20,Woman,Right,
,,,,,,,,,,,,,,,,,571,20,Woman,Right,3,68,0.15,1,0,-,0,0.6731246999997893,['n'],0.18230680000033317,1.3599999999999999,1461.0423391000004,,,,,571,20,Woman,Right,
,,,,,,,,,,,,,,,,,571,20,Woman,Right,3,74,0.15,1,180,-,180,0.6058995000003051,['n'],0.2631436000001486,1.42,1463.9923928000007,,,,,571,20,Woman,Right,
,,,,,,,,,,,,,,,,,571,20,Woman,Right,3,16,0.4,1,0,-,0,0.5112154999997074,['n'],0.1909427999999025,1.376,1467.0091140000004,,,,,571,20,Woman,Right,
,,,,,,,,,,,,,,,,,571,20,Woman,Right,3,78,0.15,1,180,-,180,0.5246051000003717,['n'],0.7512971000005564,1.692,1471.0757798000004,,,,,571,20,Woman,Right,
,,,,,,,,,,,,,,,,,571,20,Woman,Right,3,60,0.15,1,0,-,180,0.7398513999996794,['n'],0.27036910000060743,1.438,1474.1759818,,,,,571,20,Woman,Right,
,,,,,,,,,,,,,,,,,571,20,Woman,Right,3,22,0.4,1,180,-,180,0.6150074999995923,['n'],0.3509719000003315,1.796,1477.4091149000005,,,,,571,20,Woman,Right,
,,,,,,,,,,,,,,,,,571,20,Woman,Right,3,12,0.4,1,0,-,0,0.37375650000012683,['n'],0.9030861000001096,1.756,1480.9591844000006,,,,,571,20,Woman,Right,
,,,,,,,,,,,,,,,,,571,20,Woman,Right,3,5,1,2,0,180,180,0.5933186000002024,['y'],0.2789594000005309,1.816,1483.8761481000001,,,,,571,20,Woman,Right,
,,,,,,,,,,,,,,,,,571,20,Woman,Right,3,62,0.15,1,180,-,180,0.98436429999947,['n'],0.31925180000052933,1.712,1487.4924876000005,,,,,571,20,Woman,Right,
,,,,,,,,,,,,,,,,,571,20,Woman,Right,3,19,0.4,2,180,0,0,0.37898949999998877,['y'],0.5354699999998047,1.842,1490.6594678000001,,,,,571,20,Woman,Right,
,,,,,,,,,,,,,,,,,571,20,Woman,Right,3,24,0.4,1,0,-,0,0.8446265000002313,['n'],0.41466599999967,1.734,1493.9925928000002,,,,,571,20,Woman,Right,
,,,,,,,,,,,,,,,,,571,20,Woman,Right,3,26,0.4,1,180,-,180,0.7102788000001965,['n'],0.25456709999980376,1.692,1497.1092536000006,,,,,571,20,Woman,Right,
,,,,,,,,,,,,,,,,,571,20,Woman,Right,3,39,0.4,2,180,0,0,0.5438546000004862,['y'],0.43883009999990463,1.7,1500.2092839000006,,,,,571,20,Woman,Right,
,,,,,,,,,,,,,,,,,571,20,Woman,Right,3,37,0.4,2,0,180,180,0.5417075000004843,['y'],0.3909848000002967,1.96,1503.2093345000003,,,,,571,20,Woman,Right,
,,,,,,,,,,,,,,,,,571,20,Woman,Right,3,15,0.4,2,180,0,0,0.48523389999991196,['y'],0.35853820000011183,1.778,1506.1259980000004,,,,,571,20,Woman,Right,
,,,,,,,,,,,,,,,,,571,20,Woman,Right,3,73,0.15,2,0,180,180,0.6324276000004829,['n'],1.5587460999995528,1.79,1510.4764375000004,,,,,571,20,Woman,Right,
,,,,,,,,,,,,,,,,,571,20,Woman,Right,3,57,0.15,2,0,180,0,0.6762793999996575,['n'],0.23063199999978679,1.6680000000000001,1513.3595999000008,,,,,571,20,Woman,Right,
,,,,,,,,,,,,,,,,,571,20,Woman,Right,3,2,1,1,180,-,180,0.48576520000005985,['n'],0.2629564999997456,1.82,1516.4263770000007,,,,,571,20,Woman,Right,
,,,,,,,,,,,,,,,,,571,20,Woman,Right,3,52,0.15,1,0,-,0,0.781235999999808,['n'],0.41463690000000497,1.72,1519.7260345000004,,,,,571,20,Woman,Right,
,,,,,,,,,,,,,,,,,571,20,Woman,Right,3,67,0.15,2,180,0,0,0.6705267999996067,['y'],0.23873210000056133,1.6600000000000001,1522.7094281000009,,,,,571,20,Woman,Right,
,,,,,,,,,,,,,,,,,571,20,Woman,Right,3,46,0.15,1,180,-,180,0.6720045000001846,['n'],0.13482070000009116,1.69,1526.2927218000004,,,,,571,20,Woman,Right,
,,,,,,,,,,,,,,,,,571,20,Woman,Right,3,0,1,1,0,-,0,0.4939356000004409,['n'],0.2866195999995398,1.974,1530.126099,,,,,571,20,Woman,Right,
,,,,,,,,,,,,,,,,,571,20,Woman,Right,3,63,0.15,2,180,0,0,3.5294799000002968,['y'],0.742293399999653,1.6139999999999999,1536.4763471000006,,,,,571,20,Woman,Right,
,,,,,,,,,,,,,,,,,571,20,Woman,Right,3,35,0.4,2,180,0,0,0.5115087000003768,['y'],0.2552336999997351,1.828,1539.4261666000002,,,,,571,20,Woman,Right,
,,,,,,,,,,,,,,,,,571,20,Woman,Right,3,27,0.4,2,180,0,0,0.34812309999961144,['y'],0.3189522000002398,2.0,1542.5927900000006,,,,,571,20,Woman,Right,
,,,,,,,,,,,,,,,,,571,20,Woman,Right,3,38,0.4,1,180,-,180,0.7895153999998001,['n'],0.8469133999997212,1.746,1546.5428823000002,,,,,571,20,Woman,Right,
,,,,,,,,,,,,,,,,,571,20,Woman,Right,3,47,0.15,2,180,0,0,0.5033824000001914,['y'],0.2952004999997371,1.8900000000000001,1549.4096699000002,,,,,571,20,Woman,Right,
,,,,,,,,,,,,,,,,,571,20,Woman,Right,3,14,0.4,1,180,-,180,0.5135464999993928,['n'],0.4948455000003378,1.62,1552.5765441000003,,,,,571,20,Woman,Right,
,,,,,,,,,,,,,,,,,571,20,Woman,Right,3,1,1,2,0,180,180,0.437991100000545,['y'],0.37525430000005144,2.0,1555.9264959000002,,,,,571,20,Woman,Right,
,,,,,,,,,,,,,,,,,571,20,Woman,Right,3,32,0.4,1,0,-,0,0.6654851999992388,['n'],0.30291290000059234,1.608,1558.9765457000003,,,,,571,20,Woman,Right,
,,,,,,,,,,,,,,,,,571,20,Woman,Right,3,45,0.15,2,0,180,0,1.2707227999999304,['y'],0.22285509999983333,1.71,1562.5597069000005,,,,,571,20,Woman,Right,
,,,,,,,,,,,,,,,,,571,20,Woman,Right,3,69,0.15,2,0,180,180,2.3678851000004215,['n'],0.15851800000018557,1.5939999999999999,1567.1762984000006,,,,,571,20,Woman,Right,
,,,,,,,,,,,,,,,,,571,20,Woman,Right,3,76,0.15,1,0,-,0,0.7108977000007144,['n'],0.2548309000003428,1.6019999999999999,1570.2097761000005,,,,,571,20,Woman,Right,
,,,,,,,,,,,,,,,,,571,20,Woman,Right,3,3,1,2,180,0,0,0.47674629999983154,['y'],0.2543116999995618,1.942,1573.1606509000003,,,,,571,20,Woman,Right,
,,,,,,,,,,,,,,,,,571,20,Woman,Right,3,25,0.4,2,0,180,180,0.5242066000000705,['y'],0.25448899999992136,1.954,1576.1266075000003,,,,,571,20,Woman,Right,
,,,,,,,,,,,,,,,,,571,20,Woman,Right,3,29,0.4,2,0,180,180,0.3438921000006303,['y'],0.951009299999896,2.0,1579.5599573000009,,,,,571,20,Woman,Right,
,,,,,,,,,,,,,,,,,571,20,Woman,Right,3,50,0.15,1,180,-,180,0.5845136000007187,['n'],0.3829590000004828,1.68,1582.7599384000005,,,,,571,20,Woman,Right,
,,,,,,,,,,,,,,,,,571,20,Woman,Right,3,31,0.4,2,180,0,0,0.9676171000000977,['y'],0.814683800000239,1.99,1586.6098554,,,,,571,20,Woman,Right,
,,,,,,,,,,,,,,,,,571,20,Woman,Right,3,70,0.15,1,180,-,180,0.773036300000058,['n'],0.5751244000002771,1.706,1590.1098393000002,,,,,571,20,Woman,Right,
,,,,,,,,,,,,,,,,,571,20,Woman,Right,3,10,0.4,1,180,-,180,0.5045678000005864,['n'],0.21428279999963706,1.6179999999999999,1592.8265039000007,,,,,571,20,Woman,Right,
,,,,,,,,,,,,,,,,,571,20,Woman,Right,3,6,1,1,180,-,180,0.6998466000004555,['n'],0.17514110000047367,1.7,1595.7767518,,,,,571,20,Woman,Right,
,,,,,,,,,,,,,,,,,571,20,Woman,Right,3,36,0.4,1,0,-,0,0.5925647000003664,['n'],0.35836399999971036,1.72,1598.7267545000004,,,,,571,20,Woman,Right,
,,,,,,,,,,,,,,,,,571,20,Woman,Right,3,40,0.4,1,0,-,0,0.4797118999995291,['n'],0.19059540000034758,1.7,1601.5432029000003,,,,,571,20,Woman,Right,
,,,,,,,,,,,,,,,,,571,20,Woman,Right,3,54,0.15,1,180,-,180,0.4303437999997186,['n'],0.6229370000000927,1.7,1605.0767504000005,,,,,571,20,Woman,Right,
,,,,,,,,,,,,,,,,,571,20,Woman,Right,3,77,0.15,2,0,180,180,1.7935323000001517,['y'],0.30256529999951454,1.296,1609.7768841000006,,,,,571,20,Woman,Right,
,,,,,,,,,,,,,,,,,571,20,Woman,Right,3,28,0.4,1,0,-,0,0.43803550000029645,['n'],0.3268948000004457,1.67,1612.9432632000007,,,,,571,20,Woman,Right,
,,,,,,,,,,,,,,,,,571,20,Woman,Right,3,9,0.4,2,0,180,180,0.4076719000004232,['y'],0.2712486999998873,2.0,1615.8267128000007,,,,,571,20,Woman,Right,
,,,,,,,,,,,,,,,,,571,20,Woman,Right,3,58,0.15,1,180,-,0,0.8991506000002119,['n'],1.2470217999998567,1.6400000000000001,1620.3275091000005,,,,,571,20,Woman,Right,
,,,,,,,,,,,,,,,,,571,20,Woman,Right,3,72,0.15,1,0,-,0,0.42987189999985276,['n'],0.8867362000000867,1.6320000000000001,1623.7433661000005,,,,,571,20,Woman,Right,
,,,,,,,,,,,,,,,,,571,20,Woman,Right,3,71,0.15,2,180,0,0,1.376009999999951,['y'],0.4785259000000224,1.6179999999999999,1627.6270520000007,,,,,571,20,Woman,Right,
,,,,,,,,,,,,,,,,,571,20,Woman,Right,3,59,0.15,2,180,0,0,0.6362920999999915,['n'],0.7351891000007527,1.642,1631.0601145,,,,,571,20,Woman,Right,
,,,,,,,,,,,,,,,,,571,20,Woman,Right,3,18,0.4,1,180,-,180,0.531241300000147,['n'],1.0067669000000024,1.63,1634.7100514000003,,,,,571,20,Woman,Right,
,,,,,,,,,,,,,,,,,571,20,Woman,Right,3,79,0.15,2,180,0,180,2.6885216000000582,['y'],0.23856919999980164,1.6440000000000001,1639.6933669,,,,,571,20,Woman,Right,
,,,,,,,,,,,,,,,,,571,20,Woman,Right,3,64,0.15,1,0,-,0,0.5870559000004505,['n'],0.20681429999967804,1.616,1642.5436107000005,,,,,571,20,Woman,Right,
,,,,,,,,,,,,,,,,,571,20,Woman,Right,3,44,0.15,1,0,-,0,0.6381842999999208,['n'],0.2070078000006106,1.6219999999999999,1645.4268610000008,,,,,571,20,Woman,Right,
,,,,,,,,,,,,,,,,,571,20,Woman,Right,3,13,0.4,2,0,180,180,0.49914279999939026,['y'],0.2467621000005238,1.976,1648.4603853000008,,,,,571,20,Woman,Right,
,,,,,,,,,,,,,,,,,571,20,Woman,Right,3,8,0.4,1,0,-,0,0.6434620999998515,['n'],0.3430700999997498,1.724,1651.4934288000004,,,,,571,20,Woman,Right,
,,,,,,,,,,,,,,,,,571,20,Woman,Right,3,53,0.15,2,0,180,180,0.37831480000022566,['y'],0.23906069999975443,1.948,1654.2268724000005,,,,,571,20,Woman,Right,
,,,,,,,,,,,,,,,,,571,20,Woman,Right,3,41,0.4,2,0,180,180,0.5246989999996003,['y'],0.22214569999960077,1.97,1657.0605874000003,,,,,571,20,Woman,Right,
,,,,,,,,,,,,,,,,,571,20,Woman,Right,3,66,0.15,1,180,-,0,1.1244212000001426,['n'],0.21464879999984987,1.6099999999999999,1660.4102150000008,,,,,571,20,Woman,Right,
,,,,,,,,,,,,,,,,,571,20,Woman,Right,3,4,1,1,0,-,0,0.4591555999995762,['n'],1.0148804999998902,1.612,1664.0101823000005,,,,,571,20,Woman,Right,
,,,,,,,,,,,,,,,,,571,20,Woman,Right,3,42,0.4,1,180,-,180,0.3797805000003791,['n'],0.5268691000001127,1.948,1667.2436165000008,,,,,571,20,Woman,Right,
,,,,,,,,,,,,,,,,,571,20,Woman,Right,3,34,0.4,1,180,-,0,0.9094930000001114,['n'],0.8153056000001015,1.7,1671.3936885000003,,,,,571,20,Woman,Right,
,,,,,,,,,,,,,,,,,571,20,Woman,Right,3,17,0.4,2,0,180,180,0.46218640000006417,['y'],0.23917299999993702,2.0,1674.2437104,,,,,571,20,Woman,Right,
,,,,,,,,,,,,,,,,,571,20,Woman,Right,3,75,0.15,2,180,0,0,1.0927564000003258,['y'],0.2952033000001393,1.5779999999999998,1677.8771654000002,,,,,571,20,Woman,Right,
,,,,,,,,,,,,,,,,,571,20,Woman,Right,3,23,0.4,2,180,0,0,0.38742980000006355,['y'],0.36707079999996495,1.978,1680.7936818000007,,,,,571,20,Woman,Right,
,,,,,,,,,,,,,,,,,571,20,Woman,Right,3,48,0.15,1,0,-,180,0.9813735999996425,['n'],0.1908705000005284,1.5739999999999998,1684.0438856,,,,,571,20,Woman,Right,
,,,,,,,,,,,,,,,,,571,20,Woman,Right,3,51,0.15,2,180,0,0,2.000526799999534,['n'],0.6932136000004903,1.562,1689.0940389000007,,,,,571,20,Woman,Right,
,,,,,,,,,,,,,,,,,571,20,Woman,Right,3,43,0.4,2,180,0,0,0.5290946000004624,['y'],0.2227191000001767,2.0,1691.9276210000007,,,,,571,20,Woman,Right,
,,,,,,,,,,,,,,,,,571,20,Woman,Right,3,65,0.15,2,0,180,180,0.49625879999985045,['y'],0.2068064000004597,1.976,1694.6770616000003,,,,,571,20,Woman,Right,
,,,,,,,,,,,,,,,,,571,20,Woman,Right,3,49,0.15,2,0,180,180,0.7372926999996707,['y'],0.15912420000040584,1.734,1697.8105130000004,,,,,571,20,Woman,Right,
,,,,,,,,,,,,,,,,,571,20,Woman,Right,3,30,0.4,1,180,-,180,1.2457889000006617,['n'],0.3586154999993596,1.596,1701.6771703000004,,,,,571,20,Woman,Right,
,,,,,,,,,,,,,,,,,571,20,Woman,Right,3,55,0.15,2,180,0,0,1.3399596000008387,['n'],0.4309707000002163,1.596,1705.4937947000008,,,,,571,20,Woman,Right,
,,,,,,,,,,,,,,,,,571,20,Woman,Right,3,7,1,2,180,0,0,0.5839796999998725,['y'],0.3351772999994864,2.0,1708.7605485000004,,,,,571,20,Woman,Right,
,,,,,,,,,,,,,,,,,571,20,Woman,Right,3,61,0.15,2,0,180,0,0.8619692000002033,['y'],0.6229740999997375,1.58,1712.4443212000006,,,,,571,20,Woman,Right,
,,,,,,,,,,,,,,,,,571,20,Woman,Right,3,56,0.15,1,0,-,180,3.244195199999922,['n'],0.21458069999971485,1.07,1718.2105371000007,,,,,571,20,Woman,Right,
,,,,,,,,,,,,,,,,,571,20,Woman,Right,3,33,0.4,2,0,180,180,0.3143769999996948,['y'],0.4873972999994294,2.0,1721.9438249000004,,,,,571,20,Woman,Right,
,,,,,,,,,,,,,,,,,571,20,Woman,Right,3,20,0.4,1,0,-,0,0.5484401000003345,['n'],0.3189894999995886,1.6360000000000001,1724.9772510000003,,,,,571,20,Woman,Right,
,,,,,,,,,,,,,,,,,571,20,Woman,Right,3,11,0.4,2,180,0,0,0.3988153999998758,['y'],0.3106535000006261,2.0,1727.8273227000009,,,,,571,20,Woman,Right,
,,,,,,,,,,,,,,,,,571,20,Woman,Right,4,44,0.15,1,0,-,0,1.3011759999999413,['n'],0.8472989000001689,1.008,1748.5608185,87.5,100.0,85.0,,571,20,Woman,Right,
,,,,,,,,,,,,,,,,,571,20,Woman,Right,4,8,0.4,1,0,-,0,0.46145119999982853,['n'],0.2545849000007365,1.302,1751.5441105,,,,,571,20,Woman,Right,
,,,,,,,,,,,,,,,,,571,20,Woman,Right,4,67,0.15,2,180,0,0,0.4632005000003119,['y'],0.33487849999983155,2.0,1755.3944334000007,,,,,571,20,Woman,Right,
,,,,,,,,,,,,,,,,,571,20,Woman,Right,4,47,0.15,2,180,0,0,0.8195756999994046,['n'],0.38290390000020125,1.576,1758.6940615000003,,,,,571,20,Woman,Right,
,,,,,,,,,,,,,,,,,571,20,Woman,Right,4,72,0.15,1,0,-,180,0.43458469999950466,['n'],0.17474330000004556,1.6440000000000001,1761.6275527000007,,,,,571,20,Woman,Right,
,,,,,,,,,,,,,,,,,571,20,Woman,Right,4,28,0.4,1,0,-,0,0.3721794000002774,['n'],0.3584123999999065,1.938,1764.5122933000002,,,,,571,20,Woman,Right,
,,,,,,,,,,,,,,,,,571,20,Woman,Right,4,33,0.4,2,0,180,180,0.401165299999775,['y'],0.2948985000002722,1.96,1767.3120001000007,,,,,571,20,Woman,Right,
,,,,,,,,,,,,,,,,,571,20,Woman,Right,4,3,1,2,180,0,0,0.29572339999958785,['y'],0.3985747000006086,2.0,1770.4441734000002,,,,,571,20,Woman,Right,
,,,,,,,,,,,,,,,,,571,20,Woman,Right,4,48,0.15,1,0,-,0,0.843598600000405,['n'],0.1825037999997221,1.556,1773.5441546000002,,,,,571,20,Woman,Right,
,,,,,,,,,,,,,,,,,571,20,Woman,Right,4,45,0.15,2,0,180,180,0.9971451000001252,['n'],0.4626478000000134,1.334,1777.5778566000008,,,,,571,20,Woman,Right,
,,,,,,,,,,,,,,,,,571,20,Woman,Right,4,20,0.4,1,0,-,0,0.686834699999963,['n'],0.2549347000003763,1.6400000000000001,1781.0442304000007,,,,,571,20,Woman,Right,
,,,,,,,,,,,,,,,,,571,20,Woman,Right,4,62,0.15,1,180,-,180,0.39519860000018525,['n'],0.32669480000004114,1.6360000000000001,1784.1112259000001,,,,,571,20,Woman,Right,
,,,,,,,,,,,,,,,,,571,20,Woman,Right,4,31,0.4,2,180,0,0,3.0792974000005415,['y'],0.7185961000004681,1.776,1791.0112536000006,,,,,571,20,Woman,Right,
,,,,,,,,,,,,,,,,,571,20,Woman,Right,4,68,0.15,1,0,-,180,0.5063786000000619,['n'],0.2308947999999873,1.6059999999999999,1793.844344,,,,,571,20,Woman,Right,
,,,,,,,,,,,,,,,,,571,20,Woman,Right,4,38,0.4,1,180,-,180,0.37082660000032774,['n'],0.27886840000064694,1.834,1796.6112109000005,,,,,571,20,Woman,Right,
,,,,,,,,,,,,,,,,,571,20,Woman,Right,4,26,0.4,1,180,-,180,0.31555410000055417,['n'],0.26324990000011894,1.778,1799.2447382,,,,,571,20,Woman,Right,
,,,,,,,,,,,,,,,,,571,20,Woman,Right,4,14,0.4,1,180,-,180,0.2500078000002759,['n'],0.23027559999991354,1.8820000000000001,1801.7944036000008,,,,,571,20,Woman,Right,
,,,,,,,,,,,,,,,,,571,20,Woman,Right,4,13,0.4,2,0,180,180,0.5878916000001482,['y'],0.19904540000061388,1.974,1804.6446553000005,,,,,571,20,Woman,Right,
,,,,,,,,,,,,,,,,,571,20,Woman,Right,4,75,0.15,2,180,0,0,0.4358317000005627,['y'],0.20665210000061052,1.922,1807.3277573000005,,,,,571,20,Woman,Right,
,,,,,,,,,,,,,,,,,571,20,Woman,Right,4,78,0.15,1,180,-,180,0.5513904999997976,['n'],0.8873873000002277,1.716,1810.8611986000005,,,,,571,20,Woman,Right,
,,,,,,,,,,,,,,,,,571,20,Woman,Right,4,42,0.4,1,180,-,180,0.45985769999970216,['n'],0.18302519999997457,1.6560000000000001,1813.494878300001,,,,,571,20,Woman,Right,
,,,,,,,,,,,,,,,,,571,20,Woman,Right,4,10,0.4,1,180,-,180,0.5676266999998916,['n'],0.15879059999952005,1.742,1816.2449233000007,,,,,571,20,Woman,Right,
,,,,,,,,,,,,,,,,,571,20,Woman,Right,4,24,0.4,1,0,-,0,0.4660844999998517,['n'],0.19926380000015342,1.698,1818.9948513000008,,,,,571,20,Woman,Right,
,,,,,,,,,,,,,,,,,571,20,Woman,Right,4,25,0.4,2,0,180,180,3.205140900000515,['y'],0.19056799999998475,1.762,1824.4278512,,,,,571,20,Woman,Right,
,,,,,,,,,,,,,,,,,571,20,Woman,Right,4,49,0.15,2,0,180,180,0.5418630000003759,['y'],0.14238030000069557,1.8940000000000001,1827.0445379000003,,,,,571,20,Woman,Right,
,,,,,,,,,,,,,,,,,571,20,Woman,Right,4,70,0.15,1,180,-,0,0.7169081000001825,['n'],0.250706299999365,1.754,1830.0779078000005,,,,,571,20,Woman,Right,
,,,,,,,,,,,,,,,,,571,20,Woman,Right,4,41,0.4,2,0,180,180,0.5538439000001745,['y'],0.1673200999994151,1.776,1832.7613436000001,,,,,571,20,Woman,Right,
,,,,,,,,,,,,,,,,,571,20,Woman,Right,4,15,0.4,2,180,0,0,0.2787569000001895,['y'],0.327151600000434,1.784,1835.3446692000007,,,,,571,20,Woman,Right,
,,,,,,,,,,,,,,,,,571,20,Woman,Right,4,16,0.4,1,0,-,0,1.5191106000002037,['n'],0.15036589999999705,1.78,1839.0280916000002,,,,,571,20,Woman,Right,
,,,,,,,,,,,,,,,,,571,20,Woman,Right,4,63,0.15,2,180,0,180,0.6285709999992832,['n'],0.14296790000025794,1.766,1841.7448210000002,,,,,571,20,Woman,Right,
,,,,,,,,,,,,,,,,,571,20,Woman,Right,4,66,0.15,1,180,-,180,1.5358766999997897,['n'],0.19024009999975533,1.522,1845.4448706000003,,,,,571,20,Woman,Right,
,,,,,,,,,,,,,,,,,571,20,Woman,Right,4,58,0.15,1,180,-,0,0.6261041999996451,['n'],0.35859810000056314,1.518,1848.8114930000002,,,,,571,20,Woman,Right,
,,,,,,,,,,,,,,,,,571,20,Woman,Right,4,23,0.4,2,180,0,0,0.5284051999997246,['y'],0.2705522000005658,2.0,1852.1114305,,,,,571,20,Woman,Right,
,,,,,,,,,,,,,,,,,571,20,Woman,Right,4,56,0.15,1,0,-,180,0.9926096000008329,['n'],0.4471354000006613,1.044,1855.7450028000003,,,,,571,20,Woman,Right,
,,,,,,,,,,,,,,,,,571,20,Woman,Right,4,19,0.4,2,180,0,0,0.4796968000000561,['y'],0.2152157000000443,1.96,1858.7616211000004,,,,,571,20,Woman,Right,
,,,,,,,,,,,,,,,,,571,20,Woman,Right,4,74,0.15,1,180,-,180,0.9525648000008005,['n'],0.4628620999992563,1.56,1862.4613880000006,,,,,571,20,Woman,Right,
,,,,,,,,,,,,,,,,,571,20,Woman,Right,4,4,1,1,0,-,0,5.361764900000708,['n'],0.8228451000013592,1.842,1870.8448237000002,,,,,571,20,Woman,Right,
,,,,,,,,,,,,,,,,,571,20,Woman,Right,4,64,0.15,1,0,-,180,0.5930421000011847,['n'],0.1428208999986964,1.244,1873.9284603000006,,,,,571,20,Woman,Right,
,,,,,,,,,,,,,,,,,571,20,Woman,Right,4,21,0.4,2,0,180,180,0.5591456000001926,['y'],0.14292139999997744,2.0,1876.7450565000008,,,,,571,20,Woman,Right,
,,,,,,,,,,,,,,,,,571,20,Woman,Right,4,6,1,1,180,-,180,0.39517500000147265,['n'],0.3186439999990398,1.706,1879.6623913000012,,,,,571,20,Woman,Right,
,,,,,,,,,,,,,,,,,571,20,Woman,Right,4,76,0.15,1,0,-,0,0.6403766000003088,['n'],0.18297879999954603,1.634,1882.5117326999998,,,,,571,20,Woman,Right,
,,,,,,,,,,,,,,,,,571,20,Woman,Right,4,0,1,1,0,-,0,0.4329405999997107,['n'],0.2222708999997849,1.8599999999999999,1885.6448640000008,,,,,571,20,Woman,Right,
,,,,,,,,,,,,,,,,,571,20,Woman,Right,4,46,0.15,1,180,-,180,0.3303410000007716,['n'],0.8155006000015419,1.762,1889.0118005000013,,,,,571,20,Woman,Right,
,,,,,,,,,,,,,,,,,571,20,Woman,Right,4,12,0.4,1,0,-,0,0.2852213000005577,['n'],0.21473909999986063,1.6680000000000001,1891.4616815,,,,,571,20,Woman,Right,
,,,,,,,,,,,,,,,,,571,20,Woman,Right,4,61,0.15,2,0,180,180,0.7782594000000245,['y'],0.1592144999995071,1.944,1894.412426400001,,,,,571,20,Woman,Right,
,,,,,,,,,,,,,,,,,571,20,Woman,Right,4,50,0.15,1,180,-,180,0.44534009999915725,['n'],0.15854570000010426,1.782,1896.994979600001,,,,,571,20,Woman,Right,
,,,,,,,,,,,,,,,,,571,20,Woman,Right,4,35,0.4,2,180,0,0,0.4703261000013299,['y'],0.23891340000045602,1.842,1899.6950521000008,,,,,571,20,Woman,Right,
,,,,,,,,,,,,,,,,,571,20,Woman,Right,4,52,0.15,1,0,-,180,0.36789350000071863,['n'],0.15093329999945126,1.6560000000000001,1902.2285180999997,,,,,571,20,Woman,Right,
,,,,,,,,,,,,,,,,,571,20,Woman,Right,4,7,1,2,180,0,0,0.48467429999982414,['y'],0.33500679999997374,2.0,1905.2450720999996,,,,,571,20,Woman,Right,
,,,,,,,,,,,,,,,,,571,20,Woman,Right,4,29,0.4,2,0,180,180,0.45682339999984833,['y'],0.18290189999970607,2.0,1907.9618934,,,,,571,20,Woman,Right,
,,,,,,,,,,,,,,,,,571,20,Woman,Right,4,22,0.4,1,180,-,180,0.40466879999985395,['n'],0.19119569999929809,1.736,1910.5786639999997,,,,,571,20,Woman,Right,
,,,,,,,,,,,,,,,,,571,20,Woman,Right,4,40,0.4,1,0,-,0,0.4467420000000857,['n'],0.2229215999996086,1.724,1913.2451385000013,,,,,571,20,Woman,Right,
,,,,,,,,,,,,,,,,,571,20,Woman,Right,4,32,0.4,1,0,-,0,0.28355440000086674,['n'],0.22316070000124455,1.714,1915.7284578999997,,,,,571,20,Woman,Right,
,,,,,,,,,,,,,,,,,571,20,Woman,Right,4,2,1,1,180,-,180,0.67947439999989,['n'],0.1029326999996556,1.722,1918.4786154000003,,,,,571,20,Woman,Right,
,,,,,,,,,,,,,,,,,571,20,Woman,Right,4,34,0.4,1,180,-,180,0.31281419999868376,['n'],0.13519629999973404,1.718,1920.8786456000007,,,,,571,20,Woman,Right,
,,,,,,,,,,,,,,,,,571,20,Woman,Right,4,73,0.15,2,0,180,180,1.400079499999265,['y'],0.09694549999949231,1.72,1924.6451066,,,,,571,20,Woman,Right,
,,,,,,,,,,,,,,,,,571,20,Woman,Right,4,69,0.15,2,0,180,0,0.5868151000013313,['n'],0.118317799999204,1.722,1927.2784514000004,,,,,571,20,Woman,Right,
,,,,,,,,,,,,,,,,,571,20,Woman,Right,4,1,1,2,0,180,180,0.4508124999993015,['y'],0.19764909999867086,1.92,1929.9451448999998,,,,,571,20,Woman,Right,
,,,,,,,,,,,,,,,,,571,20,Woman,Right,4,11,0.4,2,180,0,0,0.4542406000000483,['y'],0.20692179999969085,1.978,1932.7452393000012,,,,,571,20,Woman,Right,
,,,,,,,,,,,,,,,,,571,20,Woman,Right,4,53,0.15,2,0,180,0,1.3660337999990588,['n'],0.14328420000128972,1.68,1936.9285790000004,,,,,571,20,Woman,Right,
,,,,,,,,,,,,,,,,,571,20,Woman,Right,4,43,0.4,2,180,0,0,0.4581019999986893,['y'],0.19129869999960647,1.858,1939.928501700001,,,,,571,20,Woman,Right,
,,,,,,,,,,,,,,,,,571,20,Woman,Right,4,51,0.15,2,180,0,180,0.5113199000006716,['n'],0.4550514000002295,1.704,1943.0285197000003,,,,,571,20,Woman,Right,
,,,,,,,,,,,,,,,,,571,20,Woman,Right,4,17,0.4,2,0,180,180,0.7962279999992461,['y'],0.22311989999980142,1.794,1946.0452363000013,,,,,571,20,Woman,Right,
,,,,,,,,,,,,,,,,,571,20,Woman,Right,4,55,0.15,2,180,0,180,0.6825958000008541,['n'],0.3343667999997706,1.754,1949.0452640000012,,,,,571,20,Woman,Right,
,,,,,,,,,,,,,,,,,571,20,Woman,Right,4,59,0.15,2,180,0,0,0.2666126999993139,['n'],0.2305618999998842,1.754,1951.5285611999998,,,,,571,20,Woman,Right,
,,,,,,,,,,,,,,,,,571,20,Woman,Right,4,5,1,2,0,180,180,0.5432478000002448,['y'],0.16697329999988142,1.754,1954.1619711000012,,,,,571,20,Woman,Right,
,,,,,,,,,,,,,,,,,571,20,Woman,Right,4,54,0.15,1,180,-,180,0.3074286999999458,['n'],0.15117599999939557,1.752,1956.5953529999997,,,,,571,20,Woman,Right,
,,,,,,,,,,,,,,,,,571,20,Woman,Right,4,27,0.4,2,180,0,0,0.4200717999992776,['y'],0.2791510000006383,1.752,1959.2787280000002,,,,,571,20,Woman,Right,
,,,,,,,,,,,,,,,,,571,20,Woman,Right,4,79,0.15,2,180,0,180,0.27881349999915983,['n'],0.5431870000011259,1.752,1962.1454851999997,,,,,571,20,Woman,Right,
,,,,,,,,,,,,,,,,,571,20,Woman,Right,4,37,0.4,2,0,180,180,0.9326129000000947,['y'],0.3029186000003392,1.752,1966.0120240000006,,,,,571,20,Woman,Right,
,,,,,,,,,,,,,,,,,571,20,Woman,Right,4,36,0.4,1,0,-,0,0.524129699999321,['n'],0.47887420000006387,1.752,1969.0955832000009,,,,,571,20,Woman,Right,
,,,,,,,,,,,,,,,,,571,20,Woman,Right,4,30,0.4,1,180,-,180,0.3434459000000061,['n'],0.11060080000061134,1.752,1971.528917300001,,,,,571,20,Woman,Right,
,,,,,,,,,,,,,,,,,571,20,Woman,Right,4,18,0.4,1,180,-,180,0.8408170000002428,['n'],0.16679829999884532,1.752,1974.4290148999999,,,,,571,20,Woman,Right,
,,,,,,,,,,,,,,,,,571,20,Woman,Right,4,71,0.15,2,180,0,180,0.09070199999951001,['n'],0.16700940000009723,1.752,1976.6290442,,,,,571,20,Woman,Right,
,,,,,,,,,,,,,,,,,571,20,Woman,Right,4,77,0.15,2,0,180,180,0.3393741999989288,['n'],0.15880230000038864,1.752,1979.045469400001,,,,,571,20,Woman,Right,
,,,,,,,,,,,,,,,,,571,20,Woman,Right,4,39,0.4,2,180,0,0,0.4899402999999438,['y'],0.15901609999855282,1.76,1981.6457961000006,,,,,571,20,Woman,Right,
,,,,,,,,,,,,,,,,,571,20,Woman,Right,4,65,0.15,2,0,180,180,0.3080043999998452,['n'],0.07863360000010289,1.766,1984.1121553000003,,,,,571,20,Woman,Right,
,,,,,,,,,,,,,,,,,571,20,Woman,Right,4,57,0.15,2,0,180,0,0.527926299999308,['n'],0.18279729999994743,1.766,1986.9957277000003,,,,,571,20,Woman,Right,
,,,,,,,,,,,,,,,,,571,20,Woman,Right,4,9,0.4,2,0,180,180,0.9499087000003783,['y'],0.29212550000011106,1.766,1990.3121746999996,,,,,571,20,Woman,Right,
,,,,,,,,,,,,,,,,,571,20,Woman,Right,4,60,0.15,1,0,-,0,0.6134499999989202,['n'],0.15088359999936074,1.766,1993.0630134000012,,,,,571,20,Woman,Right,
,,,,,,,,,,,,,,,,,571,20,Woman,Right,5,10,0.4,1,180,-,180,0.815667000000758,['n'],1.0870047999997041,1.712,2007.0622751,81.25,100.0,67.5,,571,20,Woman,Right,
,,,,,,,,,,,,,,,,,571,20,Woman,Right,5,19,0.4,2,180,0,0,0.5551722000000154,['y'],0.19864249999955064,1.984,2010.228893800001,,,,,571,20,Woman,Right,
,,,,,,,,,,,,,,,,,571,20,Woman,Right,5,37,0.4,2,0,180,180,0.4092686000003596,['y'],0.2147254999999859,2.0,2013.1791620000013,,,,,571,20,Woman,Right,
,,,,,,,,,,,,,,,,,571,20,Woman,Right,5,67,0.15,2,180,0,0,1.3459409999995842,['y'],0.1984874999998283,1.99,2016.8125439000005,,,,,571,20,Woman,Right,
,,,,,,,,,,,,,,,,,571,20,Woman,Right,5,27,0.4,2,180,0,0,0.3087522000005265,['y'],0.1985370000002149,2.0,2019.412726900001,,,,,571,20,Woman,Right,
,,,,,,,,,,,,,,,,,571,20,Woman,Right,5,55,0.15,2,180,0,0,1.1712244999998802,['y'],0.3591022000000521,1.234,2023.1631989000007,,,,,571,20,Woman,Right,
,,,,,,,,,,,,,,,,,571,20,Woman,Right,5,41,0.4,2,0,180,180,0.4304340999988199,['y'],0.15080719999969006,1.754,2025.7958934000008,,,,,571,20,Woman,Right,
,,,,,,,,,,,,,,,,,571,20,Woman,Right,5,60,0.15,1,0,-,180,1.086370299999544,['n'],0.11887709999973595,1.696,2029.4624520999996,,,,,571,20,Woman,Right,
,,,,,,,,,,,,,,,,,571,20,Woman,Right,5,39,0.4,2,180,0,0,0.3415187999999034,['y'],0.19119899999896006,1.98,2032.179111800001,,,,,571,20,Woman,Right,
,,,,,,,,,,,,,,,,,571,20,Woman,Right,5,29,0.4,2,0,180,180,0.3646670999987691,['y'],0.19061230000079377,2.0,2034.8128014000004,,,,,571,20,Woman,Right,
,,,,,,,,,,,,,,,,,571,20,Woman,Right,5,43,0.4,2,180,0,0,0.32364029999916966,['y'],0.23103339999943273,1.984,2037.4457462,,,,,571,20,Woman,Right,
,,,,,,,,,,,,,,,,,571,20,Woman,Right,5,53,0.15,2,0,180,180,1.4348112999996374,['n'],0.17434859999957553,1.714,2041.5292600000002,,,,,571,20,Woman,Right,
,,,,,,,,,,,,,,,,,571,20,Woman,Right,5,44,0.15,1,0,-,0,0.9272541999998793,['n'],0.7186302999998588,1.6560000000000001,2045.1461040000004,,,,,571,20,Woman,Right,
,,,,,,,,,,,,,,,,,571,20,Woman,Right,5,35,0.4,2,180,0,0,0.32714130000022124,['y'],0.7586418000009871,2.0,2048.4127693,,,,,571,20,Woman,Right,
,,,,,,,,,,,,,,,,,571,20,Woman,Right,5,26,0.4,1,180,-,180,0.9322136999999202,['n'],0.7272849999990285,1.264,2052.3461858,,,,,571,20,Woman,Right,
,,,,,,,,,,,,,,,,,571,20,Woman,Right,5,66,0.15,1,180,-,180,0.7677573000000848,['n'],0.6065311999991536,1.612,2055.9291980000007,,,,,571,20,Woman,Right,
,,,,,,,,,,,,,,,,,571,20,Woman,Right,5,17,0.4,2,0,180,180,0.3914082999999664,['y'],0.23088300000017625,1.972,2058.7292047,,,,,571,20,Woman,Right,
,,,,,,,,,,,,,,,,,571,20,Woman,Right,5,14,0.4,1,180,-,180,0.6230656999996427,['n'],0.10235780000039085,1.346,2061.4791811000005,,,,,571,20,Woman,Right,
,,,,,,,,,,,,,,,,,571,20,Woman,Right,5,22,0.4,1,180,-,180,1.8722878000007768,['n'],0.3668541000006371,1.26,2065.7959309999997,,,,,571,20,Woman,Right,
,,,,,,,,,,,,,,,,,571,20,Woman,Right,5,47,0.15,2,180,0,180,0.6216873000012129,['n'],0.1748157000001811,1.3399999999999999,2068.5459581000005,,,,,571,20,Woman,Right,
,,,,,,,,,,,,,,,,,571,20,Woman,Right,5,4,1,1,0,-,0,0.3359216999997443,['n'],0.830600900000718,1.736,2071.9792821,,,,,571,20,Woman,Right,
,,,,,,,,,,,,,,,,,571,20,Woman,Right,5,0,1,1,0,-,0,0.3701569000004383,['n'],0.37522569999964617,1.746,2074.8293272,,,,,571,20,Woman,Right,
,,,,,,,,,,,,,,,,,571,20,Woman,Right,5,13,0.4,2,0,180,180,1.5310707999997248,['y'],0.16665660000035132,1.79,2078.5635419,,,,,571,20,Woman,Right,
,,,,,,,,,,,,,,,,,571,20,Woman,Right,5,6,1,1,180,-,180,0.30861300000105985,['n'],0.21523640000123123,1.624,2081.0962996999997,,,,,571,20,Woman,Right,
,,,,,,,,,,,,,,,,,571,20,Woman,Right,5,11,0.4,2,180,0,0,0.33486549999906856,['n'],0.4709679999996297,1.014,2085.7462631999997,,,,,571,20,Woman,Right,
,,,,,,,,,,,,,,,,,571,20,Woman,Right,5,77,0.15,2,0,180,180,0.7086681000000681,['n'],0.36691330000030575,1.3860000000000001,2089.0795946000007,,,,,571,20,Woman,Right,
,,,,,,,,,,,,,,,,,571,20,Woman,Right,5,33,0.4,2,0,180,180,0.38678989999971236,['y'],0.2624993999997969,1.994,2091.8627024999996,,,,,571,20,Woman,Right,
,,,,,,,,,,,,,,,,,571,20,Woman,Right,5,7,1,2,180,0,0,0.5370667999995931,['y'],0.2466028999988339,2.0,2095.0794579000003,,,,,571,20,Woman,Right,
,,,,,,,,,,,,,,,,,571,20,Woman,Right,5,58,0.15,1,180,-,180,0.7356882000003679,['n'],0.2626531000005343,1.68,2098.2797175000005,,,,,571,20,Woman,Right,
,,,,,,,,,,,,,,,,,571,20,Woman,Right,5,65,0.15,2,0,180,180,0.7514124999997875,['y'],0.3188695999997435,1.67,2101.446159600001,,,,,571,20,Woman,Right,
,,,,,,,,,,,,,,,,,571,20,Woman,Right,5,78,0.15,1,180,-,180,0.4664415999995981,['n'],0.15090460000101302,1.592,2104.1129123,,,,,571,20,Woman,Right,
,,,,,,,,,,,,,,,,,571,20,Woman,Right,5,75,0.15,2,180,0,180,1.0306357999998,['n'],0.32724510000116425,1.3359999999999999,2108.0128887,,,,,571,20,Woman,Right,
,,,,,,,,,,,,,,,,,571,20,Woman,Right,5,57,0.15,2,0,180,0,0.4595740000004298,['n'],0.22262880000016594,1.6139999999999999,2110.7129273,,,,,571,20,Woman,Right,
,,,,,,,,,,,,,,,,,571,20,Woman,Right,5,23,0.4,2,180,0,0,0.42481000000043423,['y'],0.4788549000004423,1.888,2113.6628967999995,,,,,571,20,Woman,Right,
,,,,,,,,,,,,,,,,,571,20,Woman,Right,5,70,0.15,1,180,-,180,0.8015597000012349,['n'],0.16642550000142364,1.3639999999999999,2117.1802013999995,,,,,571,20,Woman,Right,
,,,,,,,,,,,,,,,,,571,20,Woman,Right,5,32,0.4,1,0,-,0,0.7833420000006299,['n'],0.2548267999991367,1.5779999999999998,2120.379657300001,,,,,571,20,Woman,Right,
,,,,,,,,,,,,,,,,,571,20,Woman,Right,5,30,0.4,1,180,-,180,0.6345876000013959,['n'],0.2465489999995043,1.6099999999999999,2123.7298438999997,,,,,571,20,Woman,Right,
,,,,,,,,,,,,,,,,,571,20,Woman,Right,5,18,0.4,1,180,-,180,0.41663600000174483,['n'],0.23850409999977273,1.6320000000000001,2126.579632400001,,,,,571,20,Woman,Right,
,,,,,,,,,,,,,,,,,571,20,Woman,Right,5,64,0.15,1,0,-,180,1.86058310000044,['n'],0.17471110000042245,1.634,2130.5799608999996,,,,,571,20,Woman,Right,
,,,,,,,,,,,,,,,,,571,20,Woman,Right,5,72,0.15,1,0,-,0,0.3486159999993106,['n'],0.2547776999999769,1.6280000000000001,2133.1799032999998,,,,,571,20,Woman,Right,
,,,,,,,,,,,,,,,,,571,20,Woman,Right,5,48,0.15,1,0,-,0,0.47716229999969073,['n'],0.5910884999993868,1.6059999999999999,2136.1465396000012,,,,,571,20,Woman,Right,
,,,,,,,,,,,,,,,,,571,20,Woman,Right,5,12,0.4,1,0,-,0,0.46095729999979085,['n'],0.41493310000078054,1.6320000000000001,2139.079751,,,,,571,20,Woman,Right,
,,,,,,,,,,,,,,,,,571,20,Woman,Right,5,42,0.4,1,180,-,180,0.48648249999860127,['n'],0.23900619999949413,1.6179999999999999,2142.063010300001,,,,,571,20,Woman,Right,
,,,,,,,,,,,,,,,,,571,20,Woman,Right,5,2,1,1,180,-,180,0.5027226000001974,['n'],0.2544314000006125,1.982,2145.5297621,,,,,571,20,Woman,Right,
,,,,,,,,,,,,,,,,,571,20,Woman,Right,5,9,0.4,2,0,180,180,0.6402557999990677,['y'],0.22336840000025404,1.854,2148.8808470000013,,,,,571,20,Woman,Right,
,,,,,,,,,,,,,,,,,571,20,Woman,Right,5,1,1,2,0,180,180,0.43033769999965443,['y'],0.23124250000000757,1.944,2151.6131366,,,,,571,20,Woman,Right,
,,,,,,,,,,,,,,,,,571,20,Woman,Right,5,63,0.15,2,180,0,0,0.9378183000007994,['y'],0.14277820000097563,1.57,2154.680752200001,,,,,571,20,Woman,Right,
,,,,,,,,,,,,,,,,,571,20,Woman,Right,5,54,0.15,1,180,-,180,0.41485149999971327,['n'],0.17498890000024403,1.492,2157.246468800001,,,,,571,20,Woman,Right,
,,,,,,,,,,,,,,,,,571,20,Woman,Right,5,50,0.15,1,180,-,180,0.6000944999996136,['n'],1.8307234000003518,1.6059999999999999,2161.714130000001,,,,,571,20,Woman,Right,
,,,,,,,,,,,,,,,,,571,20,Woman,Right,5,45,0.15,2,0,180,0,1.4256869000000734,['n'],0.3191244999998162,1.392,2165.9305283000003,,,,,571,20,Woman,Right,
,,,,,,,,,,,,,,,,,571,20,Woman,Right,5,79,0.15,2,180,0,0,1.4136944000001677,['y'],0.718710099999953,1.6,2170.747128400001,,,,,571,20,Woman,Right,
,,,,,,,,,,,,,,,,,571,20,Woman,Right,5,74,0.15,1,180,-,180,0.4015600999991875,['n'],0.31135940000058326,1.452,2173.5307523,,,,,571,20,Woman,Right,
,,,,,,,,,,,,,,,,,571,20,Woman,Right,5,34,0.4,1,180,-,180,0.409651699999813,['n'],0.166837900000246,1.27,2176.6632157000013,,,,,571,20,Woman,Right,
,,,,,,,,,,,,,,,,,571,20,Woman,Right,5,52,0.15,1,0,-,0,0.34523429999899236,['n'],0.1746106000009604,1.5859999999999999,2179.2632755000004,,,,,571,20,Woman,Right,
,,,,,,,,,,,,,,,,,571,20,Woman,Right,5,25,0.4,2,0,180,180,0.7132290000008652,['y'],0.5826455999995233,1.686,2182.9133481,,,,,571,20,Woman,Right,
,,,,,,,,,,,,,,,,,571,20,Woman,Right,5,40,0.4,1,0,-,0,0.3509477000006882,['n'],0.18287779999991471,1.69,2185.4632521000012,,,,,571,20,Woman,Right,
,,,,,,,,,,,,,,,,,571,20,Woman,Right,5,71,0.15,2,180,0,0,0.6147999000004347,['y'],0.19895519999954558,1.708,2188.396649000001,,,,,571,20,Woman,Right,
,,,,,,,,,,,,,,,,,571,20,Woman,Right,5,16,0.4,1,0,-,0,0.5672147999994195,['n'],0.14335939999909897,1.772,2191.1633355000004,,,,,571,20,Woman,Right,
,,,,,,,,,,,,,,,,,571,20,Woman,Right,5,21,0.4,2,0,180,180,0.3959673000008479,['n'],0.16696929999852728,1.75,2193.7808646000003,,,,,571,20,Woman,Right,
,,,,,,,,,,,,,,,,,571,20,Woman,Right,5,20,0.4,1,0,-,180,0.4447187000005215,['y'],0.2874572000000626,1.794,2196.446830600001,,,,,571,20,Woman,Right,
,,,,,,,,,,,,,,,,,571,20,Woman,Right,5,3,1,2,180,0,0,0.4497658999989653,['y'],0.27103900000111025,1.798,2199.229968800001,,,,,571,20,Woman,Right,
,,,,,,,,,,,,,,,,,571,20,Woman,Right,5,24,0.4,1,0,-,0,0.7382973000003403,['n'],0.1991347000002861,1.782,2202.3303750000005,,,,,571,20,Woman,Right,
,,,,,,,,,,,,,,,,,571,20,Woman,Right,5,49,0.15,2,0,180,180,1.3016112000004796,['n'],0.08665490000021236,1.786,2205.663320800001,,,,,571,20,Woman,Right,
,,,,,,,,,,,,,,,,,571,20,Woman,Right,5,5,1,2,0,180,180,0.6890253000001394,['y'],0.2305778999998438,1.816,2208.596957500001,,,,,571,20,Woman,Right,
,,,,,,,,,,,,,,,,,571,20,Woman,Right,5,68,0.15,1,0,-,0,1.7935006000006979,['y'],0.11903429999983928,1.778,2212.4800756000013,,,,,571,20,Woman,Right,
,,,,,,,,,,,,,,,,,571,20,Woman,Right,5,73,0.15,2,0,180,180,0.8959101999989798,['y'],0.11116829999991751,1.6099999999999999,2215.5137291,,,,,571,20,Woman,Right,
,,,,,,,,,,,,,,,,,571,20,Woman,Right,5,15,0.4,2,180,0,0,0.3279406999990897,['y'],0.1829014000013558,1.978,2218.1304186000007,,,,,571,20,Woman,Right,
,,,,,,,,,,,,,,,,,571,20,Woman,Right,5,62,0.15,1,180,-,180,1.1744214000009379,['n'],0.15850920000048063,1.47,2221.4642926999995,,,,,571,20,Woman,Right,
,,,,,,,,,,,,,,,,,571,20,Woman,Right,5,46,0.15,1,180,-,180,0.3781946999988577,['n'],0.8866699000009248,1.228,2225.2802234,,,,,571,20,Woman,Right,
,,,,,,,,,,,,,,,,,571,20,Woman,Right,5,59,0.15,2,180,0,0,0.5526631999982783,['y'],0.44703259999914735,1.676,2228.2805451000013,,,,,571,20,Woman,Right,
,,,,,,,,,,,,,,,,,571,20,Woman,Right,5,38,0.4,1,180,-,180,0.921007599999939,['n'],0.14271390000067186,1.616,2231.747297500001,,,,,571,20,Woman,Right,
,,,,,,,,,,,,,,,,,571,20,Woman,Right,5,51,0.15,2,180,0,180,1.293765300000814,['n'],0.5747668000003614,1.608,2236.0137716,,,,,571,20,Woman,Right,
,,,,,,,,,,,,,,,,,571,20,Woman,Right,5,56,0.15,1,0,-,0,0.6912548000000243,['n'],0.3988564999999653,1.608,2239.8469148000013,,,,,571,20,Woman,Right,
,,,,,,,,,,,,,,,,,571,20,Woman,Right,5,36,0.4,1,0,-,0,0.43200539999998,['n'],0.20710700000017823,1.74,2243.3804286000004,,,,,571,20,Woman,Right,
,,,,,,,,,,,,,,,,,571,20,Woman,Right,5,31,0.4,2,180,0,0,0.47456119999878865,['y'],0.1831409000005806,1.924,2246.1139135000003,,,,,571,20,Woman,Right,
,,,,,,,,,,,,,,,,,571,20,Woman,Right,5,8,0.4,1,0,-,0,0.5251554999995278,['n'],0.1429308000006131,1.678,2248.7972722000004,,,,,571,20,Woman,Right,
,,,,,,,,,,,,,,,,,571,20,Woman,Right,5,28,0.4,1,0,-,180,0.644383700000617,['n'],1.286843100000624,1.5739999999999998,2252.7810842999997,,,,,571,20,Woman,Right,
,,,,,,,,,,,,,,,,,571,20,Woman,Right,5,69,0.15,2,0,180,180,0.739793799999461,['n'],0.1352606000000378,1.5939999999999999,2255.6138407000008,,,,,571,20,Woman,Right,
,,,,,,,,,,,,,,,,,571,20,Woman,Right,5,76,0.15,1,0,-,0,0.23306210000009742,['n'],0.6874862999993638,1.5939999999999999,2258.6137554000006,,,,,571,20,Woman,Right,
,,,,,,,,,,,,,,,,,571,20,Woman,Right,5,61,0.15,2,0,180,180,0.6657161000002816,['y'],0.5513100999996823,1.612,2261.913797600001,,,,,571,20,Woman,Right,
,,,,,,,,,,,,,,,,,,,,,,,,,,,,,,,,,88.75,95.0,72.5,1896.9215350000004,,,,,
