p_block,p_section,p_coherence,p_direction1,p_direction2,p_direction_response,p_direction_RT,p_change_response,p_change_RT,p_confidence,p_full_correct,p_without5_correct,p_full_total,p_without5_total,p_full_avg,p_witout5_avg,p_total_time,sub,age,sex,handedness,loop,trial randomization,coherence,condition,direction1,direction2,direction_response,direction_RT,change_response,change_RT,change_confidence,change_confidence_RT,block_direction_avg,block_stable_avg,block_change_avg,total_time,sub,age,sex,handedness,
1,1,1.0,180,-,0,1.0513138999958755,-,-,-,,,,,,,,520,18,Woman,Right,,,,,,,,,,,,,,,,,520,18,Woman,Right,
1,1,1.0,180,-,180,0.6657684000019799,-,-,-,,,,,,,,520,18,Woman,Right,,,,,,,,,,,,,,,,,520,18,Woman,Right,
1,1,1.0,180,-,180,0.4011806000053184,-,-,-,,,,,,,,520,18,Woman,Right,,,,,,,,,,,,,,,,,520,18,Woman,Right,
1,1,1.0,0,-,0,0.1644460999959847,-,-,-,,,,,,,,520,18,Woman,Right,,,,,,,,,,,,,,,,,520,18,Woman,Right,
1,1,1.0,180,-,180,0.15367980000155512,-,-,-,,,,,,,,520,18,Woman,Right,,,,,,,,,,,,,,,,,520,18,Woman,Right,
1,1,1.0,180,-,180,0.029404799999610987,-,-,-,,,,,,,,520,18,Woman,Right,,,,,,,,,,,,,,,,,520,18,Woman,Right,
1,1,1.0,180,-,180,0.016871600004378706,-,-,-,,,,,,,,520,18,Woman,Right,,,,,,,,,,,,,,,,,520,18,Woman,Right,
1,1,1.0,0,-,0,0.016732299998693634,-,-,-,,,,,,,,520,18,Woman,Right,,,,,,,,,,,,,,,,,520,18,Woman,Right,
1,1,1.0,180,-,180,0.07552270000451244,-,-,-,,,,,,,,520,18,Woman,Right,,,,,,,,,,,,,,,,,520,18,Woman,Right,
1,1,1.0,180,-,180,0.21113220000552246,-,-,-,9,9,10,10,0.9,0.9,,520,18,Woman,Right,,,,,,,,,,,,,,,,,520,18,Woman,Right,
2,1,0.15,0,-,180,0.7753742999993847,-,-,-,,,,,,,,520,18,Woman,Right,,,,,,,,,,,,,,,,,520,18,Woman,Right,
2,1,0.4,0,-,0,0.41135369999392424,-,-,-,,,,,,,,520,18,Woman,Right,,,,,,,,,,,,,,,,,520,18,Woman,Right,
2,1,0.15,180,-,180,0.16584810000495054,-,-,-,,,,,,,,520,18,Woman,Right,,,,,,,,,,,,,,,,,520,18,Woman,Right,
2,1,0.4,0,-,0,0.09037359999638284,-,-,-,,,,,,,,520,18,Woman,Right,,,,,,,,,,,,,,,,,520,18,Woman,Right,
2,1,0.4,0,-,180,0.720708900000318,-,-,-,,,,,,,,520,18,Woman,Right,,,,,,,,,,,,,,,,,520,18,Woman,Right,
2,1,0.15,180,-,180,0.5349520000017947,-,-,-,,,,,,,,520,18,Woman,Right,,,,,,,,,,,,,,,,,520,18,Woman,Right,
2,1,0.4,180,-,0,0.20559510000020964,-,-,-,,,,,,,,520,18,Woman,Right,,,,,,,,,,,,,,,,,520,18,Woman,Right,
2,1,0.4,180,-,180,0.5365031000037561,-,-,-,,,,,,,,520,18,Woman,Right,,,,,,,,,,,,,,,,,520,18,Woman,Right,
2,1,0.4,180,-,180,0.47013060000608675,-,-,-,,,,,,,,520,18,Woman,Right,,,,,,,,,,,,,,,,,520,18,Woman,Right,
2,1,0.15,0,-,0,0.692975199999637,-,-,-,,,,,,,,520,18,Woman,Right,,,,,,,,,,,,,,,,,520,18,Woman,Right,
2,1,0.4,180,-,180,0.5179137000013725,-,-,-,,,,,,,,520,18,Woman,Right,,,,,,,,,,,,,,,,,520,18,Woman,Right,
2,1,0.15,180,-,0,0.22657100000651553,-,-,-,,,,,,,,520,18,Woman,Right,,,,,,,,,,,,,,,,,520,18,Woman,Right,
2,1,0.15,180,-,180,0.5414307999963057,-,-,-,,,,,,,,520,18,Woman,Right,,,,,,,,,,,,,,,,,520,18,Woman,Right,
2,1,0.15,180,-,180,0.0899656000037794,-,-,-,,,,,,,,520,18,Woman,Right,,,,,,,,,,,,,,,,,520,18,Woman,Right,
2,1,0.15,0,-,180,0.06598550000489922,-,-,-,,,,,,,,520,18,Woman,Right,,,,,,,,,,,,,,,,,520,18,Woman,Right,
2,1,0.4,0,-,0,0.01666020000266144,-,-,-,,,,,,,,520,18,Woman,Right,,,,,,,,,,,,,,,,,520,18,Woman,Right,
2,1,0.15,0,-,0,0.14984260000346694,-,-,-,,,,,,,,520,18,Woman,Right,,,,,,,,,,,,,,,,,520,18,Woman,Right,
2,1,0.15,0,-,0,0.3042574999999488,-,-,-,,,,,,,,520,18,Woman,Right,,,,,,,,,,,,,,,,,520,18,Woman,Right,
2,1,0.15,180,-,180,0.05586050000420073,-,-,-,,,,,,,,520,18,Woman,Right,,,,,,,,,,,,,,,,,520,18,Woman,Right,
2,1,0.4,180,-,0,0.07925029999751132,-,-,-,,,,,,,,520,18,Woman,Right,,,,,,,,,,,,,,,,,520,18,Woman,Right,
2,1,0.15,0,-,180,0.5761268999995082,-,-,-,,,,,,,,520,18,Woman,Right,,,,,,,,,,,,,,,,,520,18,Woman,Right,
2,1,0.4,180,-,0,0.2916410000034375,-,-,-,,,,,,,,520,18,Woman,Right,,,,,,,,,,,,,,,,,520,18,Woman,Right,
2,1,0.15,180,-,180,1.4347418999968795,-,-,-,,,,,,,,520,18,Woman,Right,,,,,,,,,,,,,,,,,520,18,Woman,Right,
2,1,0.4,0,-,0,0.5155816999977105,-,-,-,,,,,,,,520,18,Woman,Right,,,,,,,,,,,,,,,,,520,18,Woman,Right,
2,1,0.15,0,-,180,0.4014658000014606,-,-,-,,,,,,,,520,18,Woman,Right,,,,,,,,,,,,,,,,,520,18,Woman,Right,
2,1,0.4,180,-,0,0.07619180000619963,-,-,-,,,,,,,,520,18,Woman,Right,,,,,,,,,,,,,,,,,520,18,Woman,Right,
2,1,0.15,0,-,180,0.16415350000170292,-,-,-,,,,,,,,520,18,Woman,Right,,,,,,,,,,,,,,,,,520,18,Woman,Right,
2,1,0.15,0,-,0,0.1043991000042297,-,-,-,,,,,,,,520,18,Woman,Right,,,,,,,,,,,,,,,,,520,18,Woman,Right,
2,1,0.4,180,-,0,0.08803180000541033,-,-,-,,,,,,,,520,18,Woman,Right,,,,,,,,,,,,,,,,,520,18,Woman,Right,
2,1,0.4,180,-,180,0.5665980999983731,-,-,-,,,,,,,,520,18,Woman,Right,,,,,,,,,,,,,,,,,520,18,Woman,Right,
2,1,0.4,180,-,180,0.5957319999943138,-,-,-,,,,,,,,520,18,Woman,Right,,,,,,,,,,,,,,,,,520,18,Woman,Right,
2,1,0.15,180,-,0,0.1361685000010766,-,-,-,,,,,,,,520,18,Woman,Right,,,,,,,,,,,,,,,,,520,18,Woman,Right,
2,1,0.4,0,-,0,0.18041570000059437,-,-,-,,,,,,,,520,18,Woman,Right,,,,,,,,,,,,,,,,,520,18,Woman,Right,
2,1,0.4,0,-,180,0.4577543000050355,-,-,-,,,,,,,,520,18,Woman,Right,,,,,,,,,,,,,,,,,520,18,Woman,Right,
2,1,0.4,180,-,180,0.05036680000193883,-,-,-,,,,,,,,520,18,Woman,Right,,,,,,,,,,,,,,,,,520,18,Woman,Right,
2,1,0.4,0,-,0,0.01684959999693092,-,-,-,,,,,,,,520,18,Woman,Right,,,,,,,,,,,,,,,,,520,18,Woman,Right,
2,1,0.4,180,-,180,0.017691099994408432,-,-,-,,,,,,,,520,18,Woman,Right,,,,,,,,,,,,,,,,,520,18,Woman,Right,
2,1,0.4,0,-,0,0.016585900004429277,-,-,-,,,,,,,,520,18,Woman,Right,,,,,,,,,,,,,,,,,520,18,Woman,Right,
2,1,0.15,0,-,180,0.1859074999956647,-,-,-,,,,,,,,520,18,Woman,Right,,,,,,,,,,,,,,,,,520,18,Woman,Right,
2,1,0.4,0,-,0,0.09322299999621464,-,-,-,7,7,10,8,0.7,0.875,,520,18,Woman,Right,,,,,,,,,,,,,,,,,520,18,Woman,Right,
3,2,1.0,180,0,0,3.438544799995725,['y'],4.504325300003984,1.544,,,,,,,,520,18,Woman,Right,,,,,,,,,,,,,,,,,520,18,Woman,Right,
3,2,1.0,0,180,0,2.404862499999581,['y'],1.8550446999943233,1.35,,,,,,,,520,18,Woman,Right,,,,,,,,,,,,,,,,,520,18,Woman,Right,
3,2,1.0,180,0,180,2.076786899997387,['y'],1.4841667000000598,1.472,,,,,,,,520,18,Woman,Right,,,,,,,,,,,,,,,,,520,18,Woman,Right,
3,2,1.0,180,0,0,1.644925400003558,['y'],0.8141216000003624,1.52,,,,,,,,520,18,Woman,Right,,,,,,,,,,,,,,,,,520,18,Woman,Right,
3,2,1.0,180,0,0,1.574175900001137,['y'],0.2578074999983073,1.532,,,,,,,,520,18,Woman,Right,,,,,,,,,,,,,,,,,520,18,Woman,Right,
3,2,1.0,0,180,0,0.9907676999937394,['y'],0.7211816000053659,1.4,,,,,,,,520,18,Woman,Right,,,,,,,,,,,,,,,,,520,18,Woman,Right,
3,2,1.0,180,0,0,1.0052398000043468,['y'],0.3672082999983104,1.528,,,,,,,,520,18,Woman,Right,,,,,,,,,,,,,,,,,520,18,Woman,Right,
3,2,1.0,0,180,0,0.6000158000024385,['y'],0.572755799999868,1.4140000000000001,,,,,,,,520,18,Woman,Right,,,,,,,,,,,,,,,,,520,18,Woman,Right,
3,2,1.0,0,180,0,1.299720900002285,['y'],1.1536759000009624,1.328,,,,,,,,520,18,Woman,Right,,,,,,,,,,,,,,,,,520,18,Woman,Right,
3,2,1.0,0,180,0,0.8249237000054563,['y'],0.9464680000019143,1.172,,,,,,,,520,18,Woman,Right,,,,,,,,,,,,,,,,,520,18,Woman,Right,
3,2,1.0,180,0,180,0.6239992999981041,['y'],1.595089200003713,1.33,,,,,,,,520,18,Woman,Right,,,,,,,,,,,,,,,,,520,18,Woman,Right,
3,2,1.0,180,0,180,0.6370209000015166,['y'],0.7887084000030882,1.202,,,,,,,,520,18,Woman,Right,,,,,,,,,,,,,,,,,520,18,Woman,Right,
3,2,1.0,180,0,0,0.9046126000030199,['y'],0.678551700002572,1.57,,,,,,,,520,18,Woman,Right,,,,,,,,,,,,,,,,,520,18,Woman,Right,
3,2,1.0,0,180,180,0.6698054999942542,['y'],0.925468199995521,1.62,,,,,,,,520,18,Woman,Right,,,,,,,,,,,,,,,,,520,18,Woman,Right,
3,2,1.0,0,180,180,0.5585566000008839,['y'],2.011452899998403,1.612,,,,,,,,520,18,Woman,Right,,,,,,,,,,,,,,,,,520,18,Woman,Right,
3,2,1.0,0,180,180,0.3371767999997246,['y'],0.11681209999369457,1.692,,,,,,,,520,18,Woman,Right,,,,,,,,,,,,,,,,,520,18,Woman,Right,
3,2,1.0,0,180,180,0.5962323999992805,['y'],0.3032443999982206,1.596,,,,,,,,520,18,Woman,Right,,,,,,,,,,,,,,,,,520,18,Woman,Right,
3,2,1.0,180,0,0,0.8658597000030568,['y'],0.3294074000004912,1.77,,,,,,,,520,18,Woman,Right,,,,,,,,,,,,,,,,,520,18,Woman,Right,
3,2,1.0,0,180,180,1.4832246000005398,['y'],0.786588800001482,1.754,,,,,,,,520,18,Woman,Right,,,,,,,,,,,,,,,,,520,18,Woman,Right,
3,2,1.0,0,180,180,0.4810626000034972,['y'],0.7280108999984805,1.676,8,8,10,10,0.8,0.8,,520,18,Woman,Right,,,,,,,,,,,,,,,,,520,18,Woman,Right,
4,2,0.15,180,0,0,0.9503375999993295,['y'],1.593679500001599,1.4100000000000001,,,,,,,,520,18,Woman,Right,,,,,,,,,,,,,,,,,520,18,Woman,Right,
4,2,0.15,0,180,180,0.8470718999960809,['y'],1.0159596000012243,1.3319999999999999,,,,,,,,520,18,Woman,Right,,,,,,,,,,,,,,,,,520,18,Woman,Right,
4,2,0.4,180,0,0,0.5565507999999681,['y'],0.9599259000024176,1.548,,,,,,,,520,18,Woman,Right,,,,,,,,,,,,,,,,,520,18,Woman,Right,
4,2,0.15,180,0,0,0.5748841000022367,['y'],0.22707330000412185,1.422,,,,,,,,520,18,Woman,Right,,,,,,,,,,,,,,,,,520,18,Woman,Right,
4,2,0.15,0,180,180,0.5577169000025606,['y'],0.9142828000040026,1.6059999999999999,,,,,,,,520,18,Woman,Right,,,,,,,,,,,,,,,,,520,18,Woman,Right,
4,2,0.4,0,180,180,0.4329079000017373,['y'],0.12305039999773726,1.6179999999999999,,,,,,,,520,18,Woman,Right,,,,,,,,,,,,,,,,,520,18,Woman,Right,
4,2,0.15,0,180,0,0.9674011999959475,['y'],0.2379328999959398,1.0939999999999999,,,,,,,,520,18,Woman,Right,,,,,,,,,,,,,,,,,520,18,Woman,Right,
4,2,0.4,0,180,180,0.7024109999983921,['y'],0.24423760000354378,1.666,,,,,,,,520,18,Woman,Right,,,,,,,,,,,,,,,,,520,18,Woman,Right,
4,2,0.4,0,180,180,0.390517899999395,['y'],0.9382412000049953,1.5899999999999999,,,,,,,,520,18,Woman,Right,,,,,,,,,,,,,,,,,520,18,Woman,Right,
4,2,0.4,180,0,0,0.5294336000006297,['y'],0.25544160000572447,1.638,9,5,10,5,0.9,1.0,,520,18,Woman,Right,,,,,,,,,,,,,,,,,520,18,Woman,Right,
5,3,0.4,0,-,180,0.8315404000022681,['y'],0.9377804999967339,1.0,,,,,,,,520,18,Woman,Right,,,,,,,,,,,,,,,,,520,18,Woman,Right,
5,3,0.4,0,180,180,0.5473716999986209,['y'],0.7686651000040001,1.616,,,,,,,,520,18,Woman,Right,,,,,,,,,,,,,,,,,520,18,Woman,Right,
5,3,0.15,180,-,0,1.1691695999979856,['y'],0.30772479999723146,1.296,,,,,,,,520,18,Woman,Right,,,,,,,,,,,,,,,,,520,18,Woman,Right,
5,3,0.15,180,-,0,2.293707600001653,['n'],0.260965399997076,1.534,,,,,,,,520,18,Woman,Right,,,,,,,,,,,,,,,,,520,18,Woman,Right,
5,3,0.4,0,180,180,1.1500079999968875,['y'],0.25727999999799067,1.5739999999999998,,,,,,,,520,18,Woman,Right,,,,,,,,,,,,,,,,,520,18,Woman,Right,
5,3,1.0,180,0,0,1.8801121999931638,['y'],0.4000114000009489,1.626,,,,,,,,520,18,Woman,Right,,,,,,,,,,,,,,,,,520,18,Woman,Right,
5,3,0.4,180,-,180,1.3174814000012702,['n'],0.2671554000044125,1.6099999999999999,,,,,,,,520,18,Woman,Right,,,,,,,,,,,,,,,,,520,18,Woman,Right,
5,3,0.4,180,-,0,0.9549176000000443,['n'],1.3993332000027294,1.558,,,,,,,,520,18,Woman,Right,,,,,,,,,,,,,,,,,520,18,Woman,Right,
5,3,0.15,180,-,180,0.9745675000012852,['n'],0.3612563999995473,1.476,,,,,,,,520,18,Woman,Right,,,,,,,,,,,,,,,,,520,18,Woman,Right,
5,3,1.0,180,0,0,0.7543608000050881,['y'],0.3904352999961702,1.634,,,,,,,,520,18,Woman,Right,,,,,,,,,,,,,,,,,520,18,Woman,Right,
5,3,0.15,0,180,0,0.6282482999959029,['n'],0.3180371000053128,1.25,,,,,,,,520,18,Woman,Right,,,,,,,,,,,,,,,,,520,18,Woman,Right,
5,3,0.4,0,-,180,1.4005403999981354,['n'],0.1292269000041415,1.446,,,,,,,,520,18,Woman,Right,,,,,,,,,,,,,,,,,520,18,Woman,Right,
5,3,0.15,180,-,0,0.9110990999979549,['n'],0.7336758000019472,1.462,,,,,,,,520,18,Woman,Right,,,,,,,,,,,,,,,,,520,18,Woman,Right,
5,3,0.4,0,180,180,0.6950354000000516,['n'],0.9103484000006574,1.464,,,,,,,,520,18,Woman,Right,,,,,,,,,,,,,,,,,520,18,Woman,Right,
5,3,0.15,180,0,0,0.7764453000054345,['n'],0.31517909999820404,1.338,,,,,,,,520,18,Woman,Right,,,,,,,,,,,,,,,,,520,18,Woman,Right,
5,3,0.4,0,180,180,0.5849148999986937,['y'],1.1225322999962373,1.638,,,,,,,,520,18,Woman,Right,,,,,,,,,,,,,,,,,520,18,Woman,Right,
5,3,0.15,0,180,180,0.4337521999987075,['y'],0.2590033000014955,1.5939999999999999,,,,,,,,520,18,Woman,Right,,,,,,,,,,,,,,,,,520,18,Woman,Right,
5,3,0.4,0,180,180,0.7173631000041496,['y'],0.11340089999430347,1.6139999999999999,,,,,,,,520,18,Woman,Right,,,,,,,,,,,,,,,,,520,18,Woman,Right,
5,3,0.15,180,-,0,0.8038562000001548,['n'],0.25355280000076164,1.502,,,,,,,,520,18,Woman,Right,,,,,,,,,,,,,,,,,520,18,Woman,Right,
5,3,1.0,0,180,180,0.7039097000015317,['y'],0.3257800999999745,1.612,6,4,10,5,0.6,0.8,,520,18,Woman,Right,,,,,,,,,,,,,,,,,520,18,Woman,Right,
,,,,,,,,,,,,,,,,4.899993655271828e-06,520,18,Woman,Right,,,,,,,,,,,,,,,,,520,18,Woman,Right,
,,,,,,,,,,,,,,,,,520,18,Woman,Right,0,31,0.4,2,180,0,0,0.37996620000194525,['y'],2.7764543000012054,1.296,426.8468293000042,,,,,520,18,Woman,Right,
,,,,,,,,,,,,,,,,,520,18,Woman,Right,0,66,0.15,1,180,-,0,0.8567999000006239,['n'],1.3351066000032006,1.026,433.06412750000163,,,,,520,18,Woman,Right,
,,,,,,,,,,,,,,,,,520,18,Woman,Right,0,76,0.15,1,0,-,180,0.4421566000019084,['n'],2.6560992000013357,1.416,438.91341960000136,,,,,520,18,Woman,Right,
,,,,,,,,,,,,,,,,,520,18,Woman,Right,0,52,0.15,1,0,-,180,0.7263732999999775,['n'],1.8396762999982457,1.3,444.31336680000095,,,,,520,18,Woman,Right,
,,,,,,,,,,,,,,,,,520,18,Woman,Right,0,61,0.15,2,0,180,0,0.5935881999976118,['y'],1.879618600003596,1.294,449.49661310000374,,,,,520,18,Woman,Right,
,,,,,,,,,,,,,,,,,520,18,Woman,Right,0,67,0.15,2,180,0,180,0.648757700000715,['n'],0.9114425000007031,1.318,454.0467802999992,,,,,520,18,Woman,Right,
,,,,,,,,,,,,,,,,,520,18,Woman,Right,0,4,1,1,0,-,0,0.5647385999982362,['y'],1.2796496999944793,1.416,458.4974629999997,,,,,520,18,Woman,Right,
,,,,,,,,,,,,,,,,,520,18,Woman,Right,0,3,1,2,180,0,0,0.5691625999970711,['y'],1.5755934999979218,1.67,463.2639511000016,,,,,520,18,Woman,Right,
,,,,,,,,,,,,,,,,,520,18,Woman,Right,0,72,0.15,1,0,-,0,0.6208026000022073,['n'],0.8227411999978358,1.3559999999999999,467.44681169999967,,,,,520,18,Woman,Right,
,,,,,,,,,,,,,,,,,520,18,Woman,Right,0,2,1,1,180,-,0,0.5040421000012429,['n'],0.9353307999990648,1.146,473.2131980999984,,,,,520,18,Woman,Right,
,,,,,,,,,,,,,,,,,520,18,Woman,Right,0,36,0.4,1,0,-,0,1.1845890000040527,['y'],1.943655499999295,1.206,479.46305450000364,,,,,520,18,Woman,Right,
,,,,,,,,,,,,,,,,,520,18,Woman,Right,0,10,0.4,1,180,-,0,0.5041984999988927,['n'],0.8310566000000108,1.186,483.5137881999981,,,,,520,18,Woman,Right,
,,,,,,,,,,,,,,,,,520,18,Woman,Right,0,51,0.15,2,180,0,0,1.6294404000000213,['y'],1.6558431000012206,1.276,489.73013779999746,,,,,520,18,Woman,Right,
,,,,,,,,,,,,,,,,,520,18,Woman,Right,0,18,0.4,1,180,-,180,0.8637273000058485,['n'],1.05523670000548,1.22,494.59679360000155,,,,,520,18,Woman,Right,
,,,,,,,,,,,,,,,,,520,18,Woman,Right,0,23,0.4,2,180,0,0,0.6193634000010206,['y'],0.9678946999993059,1.5779999999999998,499.06351949999953,,,,,520,18,Woman,Right,
,,,,,,,,,,,,,,,,,520,18,Woman,Right,0,65,0.15,2,0,180,0,0.3382841999991797,['n'],0.6394438999996055,1.238,502.6628419000044,,,,,520,18,Woman,Right,
,,,,,,,,,,,,,,,,,520,18,Woman,Right,0,64,0.15,1,0,-,0,0.6669889999975567,['y'],0.8879439000011189,1.214,506.8460533000034,,,,,520,18,Woman,Right,
,,,,,,,,,,,,,,,,,520,18,Woman,Right,0,79,0.15,2,180,0,0,1.5038953000039328,['n'],0.3594009000007645,1.0,511.78034189999744,,,,,520,18,Woman,Right,
,,,,,,,,,,,,,,,,,520,18,Woman,Right,0,68,0.15,1,0,-,180,0.8904461000056472,['y'],1.5917453000001842,1.268,518.0800653000042,,,,,520,18,Woman,Right,
,,,,,,,,,,,,,,,,,520,18,Woman,Right,0,74,0.15,1,180,-,0,0.41020189999835566,['n'],1.6396028000017395,1.328,522.8792384000044,,,,,520,18,Woman,Right,
,,,,,,,,,,,,,,,,,520,18,Woman,Right,0,50,0.15,1,180,-,0,0.7903612999944016,['y'],1.4789439000014681,1.312,528.3793738000022,,,,,520,18,Woman,Right,
,,,,,,,,,,,,,,,,,520,18,Woman,Right,0,32,0.4,1,0,-,180,0.4828598999956739,['y'],1.2235517000008258,1.486,532.8632015000039,,,,,520,18,Woman,Right,
,,,,,,,,,,,,,,,,,520,18,Woman,Right,0,30,0.4,1,180,-,0,0.48241240000061225,['n'],0.9037808000066434,1.498,537.0124458999999,,,,,520,18,Woman,Right,
,,,,,,,,,,,,,,,,,520,18,Woman,Right,0,25,0.4,2,0,180,180,0.9676756999979261,['y'],1.295176999999967,1.624,542.395723200003,,,,,520,18,Woman,Right,
,,,,,,,,,,,,,,,,,520,18,Woman,Right,0,24,0.4,1,0,-,0,0.829083399999945,['y'],0.8716743999975733,1.67,546.8795218000014,,,,,520,18,Woman,Right,
,,,,,,,,,,,,,,,,,520,18,Woman,Right,0,62,0.15,1,180,-,180,0.56812440000067,['y'],0.7675503999998909,1.26,552.1289838000012,,,,,520,18,Woman,Right,
,,,,,,,,,,,,,,,,,520,18,Woman,Right,0,22,0.4,1,180,-,0,1.0041313000037917,['n'],0.5510497000068426,1.0,556.813026900003,,,,,520,18,Woman,Right,
,,,,,,,,,,,,,,,,,520,18,Woman,Right,0,19,0.4,2,180,0,0,0.6341732000000775,['y'],0.9272883999947226,1.71,561.3455193000045,,,,,520,18,Woman,Right,
,,,,,,,,,,,,,,,,,520,18,Woman,Right,0,59,0.15,2,180,0,0,0.38564559999940684,['n'],0.695329700000002,1.256,565.1955579999994,,,,,520,18,Woman,Right,
,,,,,,,,,,,,,,,,,520,18,Woman,Right,0,8,0.4,1,0,-,0,0.4096538000012515,['n'],0.7514988999973866,1.404,569.4461315000008,,,,,520,18,Woman,Right,
,,,,,,,,,,,,,,,,,520,18,Woman,Right,0,5,1,2,0,180,180,0.5956523999993806,['y'],0.9838498999961303,1.6019999999999999,573.7127304000023,,,,,520,18,Woman,Right,
,,,,,,,,,,,,,,,,,520,18,Woman,Right,0,37,0.4,2,0,180,180,0.4689303999984986,['y'],0.951624700006505,1.774,578.1125468000027,,,,,520,18,Woman,Right,
,,,,,,,,,,,,,,,,,520,18,Woman,Right,0,7,1,2,180,0,0,2.0499800000034156,['y'],0.6992554000025848,2.0,583.5793077999988,,,,,520,18,Woman,Right,
,,,,,,,,,,,,,,,,,520,18,Woman,Right,0,21,0.4,2,0,180,180,0.6390488999968511,['y'],0.6475119999959134,1.5939999999999999,587.8121743000011,,,,,520,18,Woman,Right,
,,,,,,,,,,,,,,,,,520,18,Woman,Right,0,35,0.4,2,180,0,0,0.806595499998366,['y'],0.679664800001774,1.536,593.1791049000021,,,,,520,18,Woman,Right,
,,,,,,,,,,,,,,,,,520,18,Woman,Right,0,9,0.4,2,0,180,180,0.3450433000034536,['y'],0.6868676000012783,1.568,596.7285284000027,,,,,520,18,Woman,Right,
,,,,,,,,,,,,,,,,,520,18,Woman,Right,0,55,0.15,2,180,0,0,0.970786700003373,['y'],0.35918029999447754,1.0,601.979376000003,,,,,520,18,Woman,Right,
,,,,,,,,,,,,,,,,,520,18,Woman,Right,0,20,0.4,1,0,-,0,0.42104919999837875,['n'],1.1835026999979164,1.3399999999999999,606.1950263000035,,,,,520,18,Woman,Right,
,,,,,,,,,,,,,,,,,520,18,Woman,Right,0,48,0.15,1,0,-,0,0.49804969999968307,['y'],0.9994953999994323,1.298,610.6125958999983,,,,,520,18,Woman,Right,
,,,,,,,,,,,,,,,,,520,18,Woman,Right,0,12,0.4,1,0,-,0,0.5720127999957185,['n'],0.9445018999977037,1.1059999999999999,615.0950949000035,,,,,520,18,Woman,Right,
,,,,,,,,,,,,,,,,,520,18,Woman,Right,0,54,0.15,1,180,-,0,0.8081631999957608,['y'],1.4474374999990687,1.21,621.7958575000011,,,,,520,18,Woman,Right,
,,,,,,,,,,,,,,,,,520,18,Woman,Right,0,56,0.15,1,0,-,0,0.33858669999608537,['n'],1.1115086000063457,1.26,626.1283202999984,,,,,520,18,Woman,Right,
,,,,,,,,,,,,,,,,,520,18,Woman,Right,0,69,0.15,2,0,180,0,0.30384930000582244,['y'],0.7440285999982734,1.346,630.0115246999994,,,,,520,18,Woman,Right,
,,,,,,,,,,,,,,,,,520,18,Woman,Right,0,57,0.15,2,0,180,0,3.641637200002151,['n'],0.9919508000020869,1.276,637.5121153,,,,,520,18,Woman,Right,
,,,,,,,,,,,,,,,,,520,18,Woman,Right,0,17,0.4,2,0,180,180,0.8895515999975032,['y'],0.6716307000024244,1.742,642.0791089999984,,,,,520,18,Woman,Right,
,,,,,,,,,,,,,,,,,520,18,Woman,Right,0,15,0.4,2,180,0,0,0.15519370000401977,['n'],1.0790565999996033,1.346,646.3280573000011,,,,,520,18,Woman,Right,
,,,,,,,,,,,,,,,,,520,18,Woman,Right,0,78,0.15,1,180,-,0,0.699648800000432,['n'],1.8316378999952576,1.422,652.111402100003,,,,,520,18,Woman,Right,
,,,,,,,,,,,,,,,,,520,18,Woman,Right,0,58,0.15,1,180,-,0,0.3556330999999773,['n'],0.9195455000008224,1.306,657.0282062999977,,,,,520,18,Woman,Right,
,,,,,,,,,,,,,,,,,520,18,Woman,Right,0,29,0.4,2,0,180,180,0.8606206999975257,['y'],1.6556369999962044,1.52,662.4612599000029,,,,,520,18,Woman,Right,
,,,,,,,,,,,,,,,,,520,18,Woman,Right,0,16,0.4,1,0,-,180,1.4750712999957614,['y'],1.0392057999997633,1.558,667.8778279000035,,,,,520,18,Woman,Right,
,,,,,,,,,,,,,,,,,520,18,Woman,Right,0,42,0.4,1,180,-,0,0.3446327999990899,['y'],1.2557221000024583,1.468,672.8454410999984,,,,,520,18,Woman,Right,
,,,,,,,,,,,,,,,,,520,18,Woman,Right,0,70,0.15,1,180,-,0,0.3556227000008221,['n'],1.0635197000010521,1.3319999999999999,676.8611893999987,,,,,520,18,Woman,Right,
,,,,,,,,,,,,,,,,,520,18,Woman,Right,0,46,0.15,1,180,-,0,0.37037140000029467,['n'],0.783786300002248,1.538,681.3616890999983,,,,,520,18,Woman,Right,
,,,,,,,,,,,,,,,,,520,18,Woman,Right,0,43,0.4,2,180,0,0,0.635808500002895,['y'],0.8485063999978593,1.56,685.8951387999987,,,,,520,18,Woman,Right,
,,,,,,,,,,,,,,,,,520,18,Woman,Right,0,49,0.15,2,0,180,180,0.4021613999939291,['n'],1.214800900001137,1.3980000000000001,691.061729400004,,,,,520,18,Woman,Right,
,,,,,,,,,,,,,,,,,520,18,Woman,Right,0,40,0.4,1,0,-,0,0.3380864999999176,['n'],1.4316967000049772,1.1219999999999999,696.027648299998,,,,,520,18,Woman,Right,
,,,,,,,,,,,,,,,,,520,18,Woman,Right,0,60,0.15,1,0,-,0,0.33963439999934053,['n'],1.152005800002371,1.432,700.6116642999987,,,,,520,18,Woman,Right,
,,,,,,,,,,,,,,,,,520,18,Woman,Right,0,44,0.15,1,0,-,0,1.1008130999980494,['n'],1.6590235000039684,1.23,707.3942588999998,,,,,520,18,Woman,Right,
,,,,,,,,,,,,,,,,,520,18,Woman,Right,0,13,0.4,2,0,180,180,0.6961424999972223,['y'],0.7991190000029746,1.822,711.6446929000012,,,,,520,18,Woman,Right,
,,,,,,,,,,,,,,,,,520,18,Woman,Right,0,27,0.4,2,180,0,0,0.3510021999973105,['y'],0.6797554999939166,1.646,715.377373000003,,,,,520,18,Woman,Right,
,,,,,,,,,,,,,,,,,520,18,Woman,Right,0,63,0.15,2,180,0,0,0.3722691000002669,['n'],0.5912917999958154,1.3820000000000001,719.0947011000026,,,,,520,18,Woman,Right,
,,,,,,,,,,,,,,,,,520,18,Woman,Right,0,28,0.4,1,0,-,0,0.7182261999987531,['n'],0.5355022000003373,1.546,723.2112504000033,,,,,520,18,Woman,Right,
,,,,,,,,,,,,,,,,,520,18,Woman,Right,0,11,0.4,2,180,0,0,0.4035329000034835,['y'],1.1270701000030385,1.5819999999999999,727.3939754000021,,,,,520,18,Woman,Right,
,,,,,,,,,,,,,,,,,520,18,Woman,Right,0,71,0.15,2,180,0,0,0.19285930000478402,['n'],0.7753442000030191,1.1280000000000001,732.3273186000006,,,,,520,18,Woman,Right,
,,,,,,,,,,,,,,,,,520,18,Woman,Right,0,33,0.4,2,0,180,0,0.41243659999599913,['y'],1.111607400001958,1.3399999999999999,736.577337200004,,,,,520,18,Woman,Right,
,,,,,,,,,,,,,,,,,520,18,Woman,Right,0,1,1,2,0,180,180,0.6081621999983327,['y'],1.0798224000027403,1.682,741.2272340999989,,,,,520,18,Woman,Right,
,,,,,,,,,,,,,,,,,520,18,Woman,Right,0,41,0.4,2,0,180,180,0.5901499000028707,['y'],0.7437204000016209,1.592,745.1104335999989,,,,,520,18,Woman,Right,
,,,,,,,,,,,,,,,,,520,18,Woman,Right,0,45,0.15,2,0,180,0,0.3426201999973273,['n'],0.615732799997204,1.324,748.9938525000034,,,,,520,18,Woman,Right,
,,,,,,,,,,,,,,,,,520,18,Woman,Right,0,73,0.15,2,0,180,0,0.08707049999793526,['n'],0.8556524000014178,1.1400000000000001,752.593749300002,,,,,520,18,Woman,Right,
,,,,,,,,,,,,,,,,,520,18,Woman,Right,0,14,0.4,1,180,-,0,0.29647380000096746,['n'],0.6398194000066724,1.528,755.960425199999,,,,,520,18,Woman,Right,
,,,,,,,,,,,,,,,,,520,18,Woman,Right,0,0,1,1,0,-,0,0.5529040000037639,['n'],1.4483928000045125,1.716,760.7769295000035,,,,,520,18,Woman,Right,
,,,,,,,,,,,,,,,,,520,18,Woman,Right,0,26,0.4,1,180,-,0,0.3005838000026415,['n'],0.8000600000013947,1.274,765.3609959000023,,,,,520,18,Woman,Right,
,,,,,,,,,,,,,,,,,520,18,Woman,Right,0,77,0.15,2,0,180,0,0.0982302000047639,['n'],0.7276534000047832,1.6019999999999999,768.7768524999992,,,,,520,18,Woman,Right,
,,,,,,,,,,,,,,,,,520,18,Woman,Right,0,39,0.4,2,180,0,0,0.6269059000042034,['y'],0.8793423999959487,1.57,772.9935845,,,,,520,18,Woman,Right,
,,,,,,,,,,,,,,,,,520,18,Woman,Right,0,6,1,1,180,-,180,0.6852719000016805,['y'],0.9277734999996028,1.376,777.9100991000014,,,,,520,18,Woman,Right,
,,,,,,,,,,,,,,,,,520,18,Woman,Right,0,38,0.4,1,180,-,180,2.6379882999972324,['n'],0.5436460000055376,1.452,784.0101874000029,,,,,520,18,Woman,Right,
,,,,,,,,,,,,,,,,,520,18,Woman,Right,0,47,0.15,2,180,0,180,1.7255248000001302,['y'],1.3354790000012144,1.298,790.1266907000027,,,,,520,18,Woman,Right,
,,,,,,,,,,,,,,,,,520,18,Woman,Right,0,34,0.4,1,180,-,0,0.1547463000024436,['y'],1.2320825999995577,1.538,795.1766530000023,,,,,520,18,Woman,Right,
,,,,,,,,,,,,,,,,,520,18,Woman,Right,0,75,0.15,2,180,0,0,0.08316370000102324,['y'],2.3196322999938275,1.342,801.1432396000018,,,,,520,18,Woman,Right,
,,,,,,,,,,,,,,,,,520,18,Woman,Right,0,53,0.15,2,0,180,0,1.8271075000011479,['n'],1.1597019000037108,1.294,806.9765239999979,,,,,520,18,Woman,Right,
,,,,,,,,,,,,,,,,,520,18,Woman,Right,1,44,0.15,1,0,-,0,0.6093478000038886,['n'],0.9436477000053856,1.28,843.5265398999982,60.0,65.0,67.5,,520,18,Woman,Right,
,,,,,,,,,,,,,,,,,520,18,Woman,Right,1,5,1,2,0,180,180,0.4559332999997423,['y'],0.679490700000315,1.5859999999999999,848.0761653000009,,,,,520,18,Woman,Right,
,,,,,,,,,,,,,,,,,520,18,Woman,Right,1,12,0.4,1,0,-,0,0.6561203000019304,['n'],1.047628899999836,1.426,852.7099697000012,,,,,520,18,Woman,Right,
,,,,,,,,,,,,,,,,,520,18,Woman,Right,1,29,0.4,2,0,180,180,0.9527677000005497,['y'],0.9986514999982319,1.404,857.8426574999976,,,,,520,18,Woman,Right,
,,,,,,,,,,,,,,,,,520,18,Woman,Right,1,39,0.4,2,180,0,0,0.5161587000038708,['y'],0.9353460999991512,1.588,863.4592285000035,,,,,520,18,Woman,Right,
,,,,,,,,,,,,,,,,,520,18,Woman,Right,1,0,1,1,0,-,180,0.7059461000026204,['y'],0.9044095999997808,1.604,867.6593227999983,,,,,520,18,Woman,Right,
,,,,,,,,,,,,,,,,,520,18,Woman,Right,1,78,0.15,1,180,-,0,1.7120932000034372,['n'],0.7434432999943965,1.3860000000000001,872.9594761999979,,,,,520,18,Woman,Right,
,,,,,,,,,,,,,,,,,520,18,Woman,Right,1,67,0.15,2,180,0,0,0.3285182999970857,['y'],0.551715100002184,1.408,876.5101761000042,,,,,520,18,Woman,Right,
,,,,,,,,,,,,,,,,,520,18,Woman,Right,1,59,0.15,2,180,0,180,0.1295618000003742,['y'],0.6148973999952432,1.38,880.0259148000041,,,,,520,18,Woman,Right,
,,,,,,,,,,,,,,,,,520,18,Woman,Right,1,66,0.15,1,180,-,0,0.016784600004029926,['n'],0.7876030000043102,1.73,885.1928537999993,,,,,520,18,Woman,Right,
,,,,,,,,,,,,,,,,,520,18,Woman,Right,1,68,0.15,1,0,-,0,0.17306689999531955,['n'],1.4631993000002694,1.3719999999999999,889.7090226,,,,,520,18,Woman,Right,
,,,,,,,,,,,,,,,,,520,18,Woman,Right,1,75,0.15,2,180,0,0,0.5359459000028437,['y'],0.40748680000251625,1.234,893.6427780000013,,,,,520,18,Woman,Right,
,,,,,,,,,,,,,,,,,520,18,Woman,Right,1,64,0.15,1,0,-,180,1.5474802999960957,['y'],0.527004700001271,1.442,898.4255734000035,,,,,520,18,Woman,Right,
,,,,,,,,,,,,,,,,,520,18,Woman,Right,1,49,0.15,2,0,180,0,0.10285460000159219,['n'],0.6152387000038289,1.422,901.9757159000001,,,,,520,18,Woman,Right,
,,,,,,,,,,,,,,,,,520,18,Woman,Right,1,71,0.15,2,180,0,180,0.09138280000479426,['y'],0.40770250000059605,1.3980000000000001,905.2923108000032,,,,,520,18,Woman,Right,
,,,,,,,,,,,,,,,,,520,18,Woman,Right,1,31,0.4,2,180,0,0,0.9512512000001152,['y'],1.1194022999989102,1.6280000000000001,910.3422968000013,,,,,520,18,Woman,Right,
,,,,,,,,,,,,,,,,,520,18,Woman,Right,1,77,0.15,2,0,180,180,0.234306899998046,['n'],0.9197000999993179,1.532,914.758797399998,,,,,520,18,Woman,Right,
,,,,,,,,,,,,,,,,,520,18,Woman,Right,1,30,0.4,1,180,-,0,0.3194281999967643,['n'],0.542971300004865,1.3980000000000001,918.3596775000042,,,,,520,18,Woman,Right,
,,,,,,,,,,,,,,,,,520,18,Woman,Right,1,11,0.4,2,180,0,0,0.4315137000012328,['y'],0.6560408000004827,1.6360000000000001,921.8587344999978,,,,,520,18,Woman,Right,
,,,,,,,,,,,,,,,,,520,18,Woman,Right,1,52,0.15,1,0,-,0,0.4721382999996422,['y'],0.35942269999941345,1.436,925.4920305999985,,,,,520,18,Woman,Right,
,,,,,,,,,,,,,,,,,520,18,Woman,Right,1,70,0.15,1,180,-,0,0.8125855999969644,['n'],1.0240396000008332,1.3599999999999999,930.5919961000036,,,,,520,18,Woman,Right,
,,,,,,,,,,,,,,,,,520,18,Woman,Right,1,50,0.15,1,180,-,0,0.25619970000116155,['y'],0.4475252000047476,1.592,934.1089465999976,,,,,520,18,Woman,Right,
,,,,,,,,,,,,,,,,,520,18,Woman,Right,1,28,0.4,1,0,-,180,1.1231706000035047,['y'],0.4793558000019402,1.44,938.5422304000022,,,,,520,18,Woman,Right,
,,,,,,,,,,,,,,,,,520,18,Woman,Right,1,4,1,1,0,-,0,0.3846516000048723,['y'],0.6156921000001603,1.26,942.2590970000019,,,,,520,18,Woman,Right,
,,,,,,,,,,,,,,,,,520,18,Woman,Right,1,13,0.4,2,0,180,180,1.1019057000012253,['y'],0.839554500002123,1.52,946.6585305000044,,,,,520,18,Woman,Right,
,,,,,,,,,,,,,,,,,520,18,Woman,Right,1,60,0.15,1,0,-,180,0.4754923000000417,['y'],0.7585112000015215,1.53,950.3916962000003,,,,,520,18,Woman,Right,
,,,,,,,,,,,,,,,,,520,18,Woman,Right,1,36,0.4,1,0,-,180,1.3963157999969553,['n'],1.6557714999944437,1.3719999999999999,958.1756853999977,,,,,520,18,Woman,Right,
,,,,,,,,,,,,,,,,,520,18,Woman,Right,1,56,0.15,1,0,-,0,0.288434000001871,['y'],1.2790500999981305,1.3900000000000001,963.525011400001,,,,,520,18,Woman,Right,
,,,,,,,,,,,,,,,,,520,18,Woman,Right,1,2,1,1,180,-,0,0.4445971000022837,['y'],1.0957256000037887,1.286,967.9917188000036,,,,,520,18,Woman,Right,
,,,,,,,,,,,,,,,,,520,18,Woman,Right,1,61,0.15,2,0,180,0,1.7749055999956909,['n'],0.5113060000003316,1.26,973.0584337000037,,,,,520,18,Woman,Right,
,,,,,,,,,,,,,,,,,520,18,Woman,Right,1,76,0.15,1,0,-,0,0.017708800005493686,['y'],0.3913438000017777,1.296,976.9248826000039,,,,,520,18,Woman,Right,
,,,,,,,,,,,,,,,,,520,18,Woman,Right,1,73,0.15,2,0,180,0,0.39034849999734433,['y'],0.4478536999959033,1.3719999999999999,981.2583879000013,,,,,520,18,Woman,Right,
,,,,,,,,,,,,,,,,,520,18,Woman,Right,1,16,0.4,1,0,-,180,0.15725960000418127,['n'],0.7751923999967403,1.0,985.7081069999986,,,,,520,18,Woman,Right,
,,,,,,,,,,,,,,,,,520,18,Woman,Right,1,43,0.4,2,180,0,0,0.3630895000023884,['y'],0.6240823999978602,1.6320000000000001,989.208085600003,,,,,520,18,Woman,Right,
,,,,,,,,,,,,,,,,,520,18,Woman,Right,1,37,0.4,2,0,180,180,0.26960939999844413,['y'],0.7514177999983076,1.57,992.724658500003,,,,,520,18,Woman,Right,
,,,,,,,,,,,,,,,,,520,18,Woman,Right,1,34,0.4,1,180,-,0,0.10409800000343239,['n'],0.6472988999958034,1.5739999999999998,995.8912678999986,,,,,520,18,Woman,Right,
,,,,,,,,,,,,,,,,,520,18,Woman,Right,1,7,1,2,180,0,0,0.3935213999939151,['y'],0.663692499998433,1.564,999.7079042999976,,,,,520,18,Woman,Right,
,,,,,,,,,,,,,,,,,520,18,Woman,Right,1,57,0.15,2,0,180,180,0.3915058999991743,['y'],0.6398072999945725,1.702,1003.4414481999993,,,,,520,18,Woman,Right,
,,,,,,,,,,,,,,,,,520,18,Woman,Right,1,8,0.4,1,0,-,0,0.23132120000082068,['y'],0.6074870000011288,1.3940000000000001,1007.1415850999983,,,,,520,18,Woman,Right,
,,,,,,,,,,,,,,,,,520,18,Woman,Right,1,62,0.15,1,180,-,180,0.3725391000043601,['y'],1.487155700000585,1.306,1011.9079375000001,,,,,520,18,Woman,Right,
,,,,,,,,,,,,,,,,,520,18,Woman,Right,1,48,0.15,1,0,-,0,1.3189370999971288,['n'],0.8477328000008129,1.3519999999999999,1017.1078399000035,,,,,520,18,Woman,Right,
,,,,,,,,,,,,,,,,,520,18,Woman,Right,1,38,0.4,1,180,-,0,0.43368220000411384,['y'],1.023764099998516,1.464,1021.2245393999983,,,,,520,18,Woman,Right,
,,,,,,,,,,,,,,,,,520,18,Woman,Right,1,58,0.15,1,180,-,180,0.1246707999962382,['n'],0.6714797999957227,1.466,1024.6076431000038,,,,,520,18,Woman,Right,
,,,,,,,,,,,,,,,,,520,18,Woman,Right,1,72,0.15,1,0,-,0,0.23240500000247266,['y'],0.27989639999577776,1.466,1027.5409733999986,,,,,520,18,Woman,Right,
,,,,,,,,,,,,,,,,,520,18,Woman,Right,1,41,0.4,2,0,180,180,0.5915171999949962,['y'],0.6396629000009852,1.6019999999999999,1031.7578428999986,,,,,520,18,Woman,Right,
,,,,,,,,,,,,,,,,,520,18,Woman,Right,1,79,0.15,2,180,0,0,0.3559349999995902,['n'],0.6799116000038339,1.464,1035.7408949000019,,,,,520,18,Woman,Right,
,,,,,,,,,,,,,,,,,520,18,Woman,Right,1,45,0.15,2,0,180,0,0.49034450000181096,['n'],0.6242831999988994,1.436,1040.2079258000012,,,,,520,18,Woman,Right,
,,,,,,,,,,,,,,,,,520,18,Woman,Right,1,33,0.4,2,0,180,180,1.5542114000054426,['n'],1.4312410000056843,1.284,1046.2574505000011,,,,,520,18,Woman,Right,
,,,,,,,,,,,,,,,,,520,18,Woman,Right,1,17,0.4,2,0,180,180,2.1633277000000817,['n'],1.1356818999993266,1.612,1053.1073228000023,,,,,520,18,Woman,Right,
,,,,,,,,,,,,,,,,,520,18,Woman,Right,1,15,0.4,2,180,0,0,0.12295360000280198,['y'],0.5752852000005078,1.654,1056.7414070000013,,,,,520,18,Woman,Right,
,,,,,,,,,,,,,,,,,520,18,Woman,Right,1,23,0.4,2,180,0,0,0.8010505999991437,['y'],0.9597607999967295,1.584,1060.9406716000012,,,,,520,18,Woman,Right,
,,,,,,,,,,,,,,,,,520,18,Woman,Right,1,32,0.4,1,0,-,0,1.3698263999976916,['n'],3.3040946000037366,1.562,1068.1740117000008,,,,,520,18,Woman,Right,
,,,,,,,,,,,,,,,,,520,18,Woman,Right,1,25,0.4,2,0,180,0,0.016589099999691825,['y'],0.1901159999979427,1.432,1072.1739034999991,,,,,520,18,Woman,Right,
,,,,,,,,,,,,,,,,,520,18,Woman,Right,1,55,0.15,2,180,0,180,0.1845621000029496,['y'],0.9914232000010088,1.3479999999999999,1076.1405264999994,,,,,520,18,Woman,Right,
,,,,,,,,,,,,,,,,,520,18,Woman,Right,1,20,0.4,1,0,-,0,0.11035629999969387,['n'],0.8793648999999277,1.362,1079.6904982999986,,,,,520,18,Woman,Right,
,,,,,,,,,,,,,,,,,520,18,Woman,Right,1,19,0.4,2,180,0,0,1.7530107999991742,['n'],0.5277132000046549,1.4140000000000001,1084.6070672999995,,,,,520,18,Woman,Right,
,,,,,,,,,,,,,,,,,520,18,Woman,Right,1,1,1,2,0,180,180,0.8568176999979187,['y'],0.53592899999785,1.796,1089.1903865999993,,,,,520,18,Woman,Right,
,,,,,,,,,,,,,,,,,520,18,Woman,Right,1,54,0.15,1,180,-,180,0.3900204000019585,['y'],0.4316785999981221,1.576,1092.6070627000008,,,,,520,18,Woman,Right,
,,,,,,,,,,,,,,,,,520,18,Woman,Right,1,74,0.15,1,180,-,180,0.05994559999817284,['y'],0.703712299997278,1.302,1096.0911966999993,,,,,520,18,Woman,Right,
,,,,,,,,,,,,,,,,,520,18,Woman,Right,1,42,0.4,1,180,-,0,0.3781834999972489,['n'],0.6953960999962874,1.554,1099.6235699000026,,,,,520,18,Woman,Right,
,,,,,,,,,,,,,,,,,520,18,Woman,Right,1,27,0.4,2,180,0,0,0.016836299997521564,['n'],1.291741799999727,1.554,1103.473753600003,,,,,520,18,Woman,Right,
,,,,,,,,,,,,,,,,,520,18,Woman,Right,1,3,1,2,180,0,180,0.19557830000121612,['n'],1.3123145999998087,1.5779999999999998,1107.7069486000037,,,,,520,18,Woman,Right,
,,,,,,,,,,,,,,,,,520,18,Woman,Right,1,10,0.4,1,180,-,0,0.23307719999866094,['n'],0.591664599996875,1.5779999999999998,1110.6901570000045,,,,,520,18,Woman,Right,
,,,,,,,,,,,,,,,,,520,18,Woman,Right,1,46,0.15,1,180,-,0,0.24306090000027325,['y'],0.43955260000075214,1.5779999999999998,1114.0409298000013,,,,,520,18,Woman,Right,
,,,,,,,,,,,,,,,,,520,18,Woman,Right,1,21,0.4,2,0,180,180,0.8924331999951391,['y'],0.7526445999974385,1.5779999999999998,1118.2404878000016,,,,,520,18,Woman,Right,
,,,,,,,,,,,,,,,,,520,18,Woman,Right,1,6,1,1,180,-,180,0.8769585000045481,['n'],1.8075446000002557,2.0,1124.5399917000032,,,,,520,18,Woman,Right,
,,,,,,,,,,,,,,,,,520,18,Woman,Right,1,40,0.4,1,0,-,180,1.3157420999996248,['y'],0.3589140000040061,1.624,1129.040050800002,,,,,520,18,Woman,Right,
,,,,,,,,,,,,,,,,,520,18,Woman,Right,1,22,0.4,1,180,-,0,0.1614077999984147,['y'],0.7434950000024401,1.354,1132.823232900002,,,,,520,18,Woman,Right,
,,,,,,,,,,,,,,,,,520,18,Woman,Right,1,14,0.4,1,180,-,0,2.2415829000019585,['n'],0.7916967999990447,1.088,1139.339880600004,,,,,520,18,Woman,Right,
,,,,,,,,,,,,,,,,,520,18,Woman,Right,1,26,0.4,1,180,-,180,0.4194824999940465,['y'],0.7838696999970125,1.3479999999999999,1145.3732690000033,,,,,520,18,Woman,Right,
,,,,,,,,,,,,,,,,,520,18,Woman,Right,1,47,0.15,2,180,0,0,0.016684099995472934,['n'],0.7351283000025433,1.458,1149.0397866999992,,,,,520,18,Woman,Right,
,,,,,,,,,,,,,,,,,520,18,Woman,Right,1,35,0.4,2,180,0,180,0.08888789999764413,['n'],0.4954052999964915,1.5779999999999998,1157.3066575999983,,,,,520,18,Woman,Right,
,,,,,,,,,,,,,,,,,520,18,Woman,Right,1,9,0.4,2,0,180,0,0.036211200000252575,['y'],0.5039720999993733,1.358,1160.8396347000016,,,,,520,18,Woman,Right,
,,,,,,,,,,,,,,,,,520,18,Woman,Right,1,24,0.4,1,0,-,0,0.017978899995796382,['n'],0.7040497999987565,1.492,1163.9232544000042,,,,,520,18,Woman,Right,
,,,,,,,,,,,,,,,,,520,18,Woman,Right,1,63,0.15,2,180,0,0,0.3304433000012068,['n'],0.44002990000444697,1.304,1168.6732487000045,,,,,520,18,Woman,Right,
,,,,,,,,,,,,,,,,,520,18,Woman,Right,1,53,0.15,2,0,180,0,1.6655266000016127,['n'],1.0558430000019143,1.3719999999999999,1174.0235231999977,,,,,520,18,Woman,Right,
,,,,,,,,,,,,,,,,,520,18,Woman,Right,1,65,0.15,2,0,180,0,0.016682199995557312,['n'],0.5412450000003446,1.374,1177.1894594000041,,,,,520,18,Woman,Right,
,,,,,,,,,,,,,,,,,520,18,Woman,Right,1,69,0.15,2,0,180,180,0.5918210000018007,['n'],0.7925673999998253,1.388,1181.0403805000024,,,,,520,18,Woman,Right,
,,,,,,,,,,,,,,,,,520,18,Woman,Right,1,51,0.15,2,180,0,0,0.861511100003554,['y'],0.3751674000013736,1.388,1184.8893323000011,,,,,520,18,Woman,Right,
,,,,,,,,,,,,,,,,,520,18,Woman,Right,1,18,0.4,1,180,-,0,0.08501450000039767,['y'],0.26441540000087116,1.556,1188.1401740000001,,,,,520,18,Woman,Right,
,,,,,,,,,,,,,,,,,520,18,Woman,Right,2,19,0.4,2,180,0,0,0.6466449999934412,['y'],0.9195627000008244,1.588,1220.0223871999988,57.5,47.5,60.0,,520,18,Woman,Right,
,,,,,,,,,,,,,,,,,520,18,Woman,Right,2,25,0.4,2,0,180,180,0.7336293000043952,['y'],0.7324504999996861,1.6019999999999999,1224.539121599999,,,,,520,18,Woman,Right,
,,,,,,,,,,,,,,,,,520,18,Woman,Right,2,14,0.4,1,180,-,0,0.2677853999994113,['y'],1.8803206000011414,1.6019999999999999,1230.839076700002,,,,,520,18,Woman,Right,
,,,,,,,,,,,,,,,,,520,18,Woman,Right,2,58,0.15,1,180,-,0,0.2859366000047885,['n'],0.6321153000026243,1.6019999999999999,1234.2222927999974,,,,,520,18,Woman,Right,
,,,,,,,,,,,,,,,,,520,18,Woman,Right,2,51,0.15,2,180,0,180,0.3324382999999216,['y'],0.5439398000016809,1.314,1237.8722707999987,,,,,520,18,Woman,Right,
,,,,,,,,,,,,,,,,,520,18,Woman,Right,2,7,1,2,180,0,0,0.8285881999981939,['y'],0.6717734000048949,1.694,1241.8894059000013,,,,,520,18,Woman,Right,
,,,,,,,,,,,,,,,,,520,18,Woman,Right,2,6,1,1,180,-,180,0.4515536999970209,['n'],1.1280621999976574,1.5899999999999999,1246.173000499999,,,,,520,18,Woman,Right,
,,,,,,,,,,,,,,,,,520,18,Woman,Right,2,34,0.4,1,180,-,180,0.2507934000022942,['y'],0.7267784999930882,1.584,1249.622079300003,,,,,520,18,Woman,Right,
,,,,,,,,,,,,,,,,,520,18,Woman,Right,2,50,0.15,1,180,-,0,0.22309349999704864,['n'],1.1115715999985696,1.584,1253.5222838000045,,,,,520,18,Woman,Right,
,,,,,,,,,,,,,,,,,520,18,Woman,Right,2,12,0.4,1,0,-,180,0.4992659999988973,['n'],1.7594574999966426,1.584,1259.1220595999985,,,,,520,18,Woman,Right,
,,,,,,,,,,,,,,,,,520,18,Woman,Right,2,44,0.15,1,0,-,0,1.2951501999996253,['y'],0.47222470000269823,1.25,1263.7554842000027,,,,,520,18,Woman,Right,
,,,,,,,,,,,,,,,,,520,18,Woman,Right,2,40,0.4,1,0,-,0,1.8671103999949992,['n'],0.22344399999565212,1.418,1271.638547800001,,,,,520,18,Woman,Right,
,,,,,,,,,,,,,,,,,520,18,Woman,Right,2,29,0.4,2,0,180,0,0.3606742999982089,['n'],0.8479000000006636,1.286,1275.6385328000033,,,,,520,18,Woman,Right,
,,,,,,,,,,,,,,,,,520,18,Woman,Right,2,52,0.15,1,0,-,0,1.2285164000059012,['y'],0.5192399000006844,1.444,1279.8552108000003,,,,,520,18,Woman,Right,
,,,,,,,,,,,,,,,,,520,18,Woman,Right,2,23,0.4,2,180,0,0,1.0504720000026282,['y'],1.448204699998314,1.444,1279.8552108000003,,,,,520,18,Woman,Right,
,,,,,,,,,,,,,,,,,520,18,Woman,Right,2,26,0.4,1,180,-,0,1.9042094000033103,['n'],0.35179490000155056,1.522,1291.0718229999984,,,,,520,18,Woman,Right,
,,,,,,,,,,,,,,,,,520,18,Woman,Right,2,11,0.4,2,180,0,0,0.3292172000001301,['y'],0.6481051000009757,1.528,1294.3883057999992,,,,,520,18,Woman,Right,
,,,,,,,,,,,,,,,,,520,18,Woman,Right,2,33,0.4,2,0,180,180,0.33921120000013616,['y'],1.1281079000036698,1.528,1298.2049640999976,,,,,520,18,Woman,Right,
,,,,,,,,,,,,,,,,,520,18,Woman,Right,2,79,0.15,2,180,0,0,0.016766300002927892,['y'],0.5671587000033469,1.528,1301.3216178000002,,,,,520,18,Woman,Right,
,,,,,,,,,,,,,,,,,520,18,Woman,Right,2,75,0.15,2,180,0,0,0.27132800000254065,['n'],0.8477934999973513,1.28,1305.0717626999976,,,,,520,18,Woman,Right,
,,,,,,,,,,,,,,,,,520,18,Woman,Right,2,63,0.15,2,180,0,0,0.21174749999772757,['y'],1.1358113999958732,1.514,1308.888134599998,,,,,520,18,Woman,Right,
,,,,,,,,,,,,,,,,,520,18,Woman,Right,2,48,0.15,1,0,-,180,0.6877988999985973,['y'],0.3836189000066952,1.522,1312.4881330999997,,,,,520,18,Woman,Right,
,,,,,,,,,,,,,,,,,520,18,Woman,Right,2,37,0.4,2,0,180,0,2.4141720999978133,['y'],0.7199259999979404,1.552,1318.6721441000045,,,,,520,18,Woman,Right,
,,,,,,,,,,,,,,,,,520,18,Woman,Right,2,74,0.15,1,180,-,0,2.397528200002853,['n'],0.95954210000491,1.642,1325.3546798000025,,,,,520,18,Woman,Right,
,,,,,,,,,,,,,,,,,520,18,Woman,Right,2,20,0.4,1,0,-,180,0.4173709999959101,['y'],0.8474605000010342,1.642,1329.5379345000038,,,,,520,18,Woman,Right,
,,,,,,,,,,,,,,,,,520,18,Woman,Right,2,15,0.4,2,180,0,0,0.24673440000333358,['y'],0.6076132000016514,1.6680000000000001,1334.0382753000013,,,,,520,18,Woman,Right,
,,,,,,,,,,,,,,,,,520,18,Woman,Right,2,22,0.4,1,180,-,180,1.4314401000010548,['y'],0.39278080000076443,1.6680000000000001,1338.4378827000037,,,,,520,18,Woman,Right,
,,,,,,,,,,,,,,,,,520,18,Woman,Right,2,67,0.15,2,180,0,0,0.7771672000017134,['y'],1.3923678999999538,1.6560000000000001,1343.1714164000005,,,,,520,18,Woman,Right,
,,,,,,,,,,,,,,,,,520,18,Woman,Right,2,72,0.15,1,0,-,0,0.6561111999981222,['n'],0.6726188999964506,1.304,1347.287808699999,,,,,520,18,Woman,Right,
,,,,,,,,,,,,,,,,,520,18,Woman,Right,2,69,0.15,2,0,180,180,0.33681609999621287,['n'],0.7756768000035663,1.3860000000000001,1351.1377913000033,,,,,520,18,Woman,Right,
,,,,,,,,,,,,,,,,,520,18,Woman,Right,2,32,0.4,1,0,-,180,1.8168338000032236,['y'],0.5038337000005413,1.698,1356.3878494000019,,,,,520,18,Woman,Right,
,,,,,,,,,,,,,,,,,520,18,Woman,Right,2,57,0.15,2,0,180,0,0.3461721000057878,['n'],0.5117991000006441,1.596,1360.371031200004,,,,,520,18,Woman,Right,
,,,,,,,,,,,,,,,,,520,18,Woman,Right,2,38,0.4,1,180,-,180,0.45648789999540895,['n'],1.1997714999961318,1.738,1364.8542787999977,,,,,520,18,Woman,Right,
,,,,,,,,,,,,,,,,,520,18,Woman,Right,2,43,0.4,2,180,0,0,0.3044618999992963,['y'],1.1117130999991787,1.684,1368.670958200004,,,,,520,18,Woman,Right,
,,,,,,,,,,,,,,,,,520,18,Woman,Right,2,65,0.15,2,0,180,0,0.2477710000021034,['n'],0.8153524999943329,1.6360000000000001,1372.238440699999,,,,,520,18,Woman,Right,
,,,,,,,,,,,,,,,,,520,18,Woman,Right,2,21,0.4,2,0,180,180,0.3469335999980103,['n'],0.7680494999949588,1.6360000000000001,1376.3541690999991,,,,,520,18,Woman,Right,
,,,,,,,,,,,,,,,,,520,18,Woman,Right,2,27,0.4,2,180,0,0,0.20418510000308743,['y'],0.4082689999995637,1.6360000000000001,1379.3207583999974,,,,,520,18,Woman,Right,
,,,,,,,,,,,,,,,,,520,18,Woman,Right,2,61,0.15,2,0,180,0,1.2200907000005827,['n'],0.6073312000007718,1.634,1383.7875671000002,,,,,520,18,Woman,Right,
,,,,,,,,,,,,,,,,,520,18,Woman,Right,2,55,0.15,2,180,0,0,1.3482502999977442,['y'],0.9442866000026697,1.634,1388.7376128000033,,,,,520,18,Woman,Right,
,,,,,,,,,,,,,,,,,520,18,Woman,Right,2,66,0.15,1,180,-,0,1.3927961000008509,['n'],1.1761164000054123,1.634,1393.8040718999982,,,,,520,18,Woman,Right,
,,,,,,,,,,,,,,,,,520,18,Woman,Right,2,4,1,1,0,-,0,0.4627578999934485,['n'],1.0793197999955737,2.0,1398.7215505999993,,,,,520,18,Woman,Right,
,,,,,,,,,,,,,,,,,520,18,Woman,Right,2,28,0.4,1,0,-,180,0.3250246000025072,['y'],0.943910699999833,1.4020000000000001,1402.6873778000008,,,,,520,18,Woman,Right,
,,,,,,,,,,,,,,,,,520,18,Woman,Right,2,16,0.4,1,0,-,0,0.8886129000020446,['n'],0.4956936000016867,1.5779999999999998,1406.487169699998,,,,,520,18,Woman,Right,
,,,,,,,,,,,,,,,,,520,18,Woman,Right,2,17,0.4,2,0,180,0,0.763196899999457,['y'],0.9604612999974051,1.5779999999999998,1410.7038904,,,,,520,18,Woman,Right,
,,,,,,,,,,,,,,,,,520,18,Woman,Right,2,39,0.4,2,180,0,0,0.6359186000045156,['y'],2.2077915999980178,1.572,1416.053738100003,,,,,520,18,Woman,Right,
,,,,,,,,,,,,,,,,,520,18,Woman,Right,2,78,0.15,1,180,-,0,0.4307931000003009,['n'],0.4715714999983902,1.684,1419.220461099998,,,,,520,18,Woman,Right,
,,,,,,,,,,,,,,,,,520,18,Woman,Right,2,77,0.15,2,0,180,0,0.20148280000285013,['n'],0.35162400000263005,1.67,1422.204727700002,,,,,520,18,Woman,Right,
,,,,,,,,,,,,,,,,,520,18,Woman,Right,2,53,0.15,2,0,180,180,0.3751356999928248,['n'],0.2798709999988205,1.6600000000000001,1426.0540811000028,,,,,520,18,Woman,Right,
,,,,,,,,,,,,,,,,,520,18,Woman,Right,2,60,0.15,1,0,-,0,0.28774999999586726,['n'],0.47972260000096867,1.6360000000000001,1429.2369633999988,,,,,520,18,Woman,Right,
,,,,,,,,,,,,,,,,,520,18,Woman,Right,2,10,0.4,1,180,-,0,0.5007317000054172,['y'],0.6799058999968111,1.6360000000000001,1432.8703438000011,,,,,520,18,Woman,Right,
,,,,,,,,,,,,,,,,,520,18,Woman,Right,2,45,0.15,2,0,180,0,0.25986289999855217,['n'],0.3602136999979848,1.6320000000000001,1436.2703437000018,,,,,520,18,Woman,Right,
,,,,,,,,,,,,,,,,,520,18,Woman,Right,2,18,0.4,1,180,-,180,0.5330181999961496,['n'],0.9352977000016836,1.608,1441.3867326000036,,,,,520,18,Woman,Right,
,,,,,,,,,,,,,,,,,520,18,Woman,Right,2,42,0.4,1,180,-,180,1.28672060000099,['n'],0.7762700000021141,1.612,1446.4712946,,,,,520,18,Woman,Right,
,,,,,,,,,,,,,,,,,520,18,Woman,Right,2,24,0.4,1,0,-,0,1.2919792000029702,['n'],0.4158954000013182,1.44,1451.0368137999976,,,,,520,18,Woman,Right,
,,,,,,,,,,,,,,,,,520,18,Woman,Right,2,30,0.4,1,180,-,180,0.6819316000037361,['y'],0.5110143999991124,1.492,1454.9208908,,,,,520,18,Woman,Right,
,,,,,,,,,,,,,,,,,520,18,Woman,Right,2,64,0.15,1,0,-,0,0.6877957999968203,['n'],0.6229812000019592,1.624,1458.9200902000011,,,,,520,18,Woman,Right,
,,,,,,,,,,,,,,,,,520,18,Woman,Right,2,47,0.15,2,180,0,0,0.37650659999781055,['n'],0.47147140000015497,1.6059999999999999,1462.1699760999982,,,,,520,18,Woman,Right,
,,,,,,,,,,,,,,,,,520,18,Woman,Right,2,36,0.4,1,0,-,0,0.30206299999554176,['n'],0.6157573999953456,1.604,1465.6202190999975,,,,,520,18,Woman,Right,
,,,,,,,,,,,,,,,,,520,18,Woman,Right,2,1,1,2,0,180,180,1.824066999994102,['y'],0.2797310000023572,2.0,1470.553301699998,,,,,520,18,Woman,Right,
,,,,,,,,,,,,,,,,,520,18,Woman,Right,2,3,1,2,180,0,0,0.27376750000257744,['y'],0.8713155000004917,2.0,1474.5198745000016,,,,,520,18,Woman,Right,
,,,,,,,,,,,,,,,,,520,18,Woman,Right,2,35,0.4,2,180,0,0,0.2724586999975145,['y'],2.11179959999572,2.0,1479.2698469000024,,,,,520,18,Woman,Right,
,,,,,,,,,,,,,,,,,520,18,Woman,Right,2,62,0.15,1,180,-,0,0.8832980000006501,['n'],0.3033773999995901,1.95,1482.9866335999977,,,,,520,18,Woman,Right,
,,,,,,,,,,,,,,,,,520,18,Woman,Right,2,2,1,1,180,-,180,1.5837085000021034,['n'],0.8391692000004696,1.966,1488.169907800002,,,,,520,18,Woman,Right,
,,,,,,,,,,,,,,,,,520,18,Woman,Right,2,41,0.4,2,0,180,180,0.497446300003503,['y'],0.7913989000007859,1.714,1491.7030288000024,,,,,520,18,Woman,Right,
,,,,,,,,,,,,,,,,,520,18,Woman,Right,2,31,0.4,2,180,0,0,0.31152100000326755,['y'],0.927646399999503,1.71,1495.2031181999992,,,,,520,18,Woman,Right,
,,,,,,,,,,,,,,,,,520,18,Woman,Right,2,49,0.15,2,0,180,0,0.7142767999976058,['n'],0.3759515999990981,1.642,1498.7362082000036,,,,,520,18,Woman,Right,
,,,,,,,,,,,,,,,,,520,18,Woman,Right,2,54,0.15,1,180,-,0,0.1978839000003063,['n'],0.6399869000015315,1.642,1501.986361700001,,,,,520,18,Woman,Right,
,,,,,,,,,,,,,,,,,520,18,Woman,Right,2,70,0.15,1,180,-,0,0.7215234999966924,['n'],0.37509520000457997,1.642,1505.5546082,,,,,520,18,Woman,Right,
,,,,,,,,,,,,,,,,,520,18,Woman,Right,2,56,0.15,1,0,-,180,0.5353077999970992,['n'],0.2555395999952452,1.416,1508.9203621999986,,,,,520,18,Woman,Right,
,,,,,,,,,,,,,,,,,520,18,Woman,Right,2,46,0.15,1,180,-,0,1.6017181999995955,['n'],0.4717311999993399,1.3359999999999999,1513.319595699999,,,,,520,18,Woman,Right,
,,,,,,,,,,,,,,,,,520,18,Woman,Right,2,76,0.15,1,0,-,180,0.46465149999858113,['n'],0.5025531999999657,1.338,1516.6864541000032,,,,,520,18,Woman,Right,
,,,,,,,,,,,,,,,,,520,18,Woman,Right,2,0,1,1,0,-,0,1.3321611999999732,['n'],1.0477222999979858,1.558,1525.637107399998,,,,,520,18,Woman,Right,
,,,,,,,,,,,,,,,,,520,18,Woman,Right,2,71,0.15,2,180,0,180,0.9053653000009945,['y'],0.8235363999992842,1.544,1530.2692825999984,,,,,520,18,Woman,Right,
,,,,,,,,,,,,,,,,,520,18,Woman,Right,2,59,0.15,2,180,0,0,0.5740488000010373,['n'],0.3918606000006548,1.4140000000000001,1533.8526975999994,,,,,520,18,Woman,Right,
,,,,,,,,,,,,,,,,,520,18,Woman,Right,2,68,0.15,1,0,-,180,1.0720264000046882,['n'],0.7832140000027721,1.432,1538.1859595999995,,,,,520,18,Woman,Right,
,,,,,,,,,,,,,,,,,520,18,Woman,Right,2,9,0.4,2,0,180,180,1.7155778000014834,['y'],0.5598689999969793,1.432,1543.0691368000043,,,,,520,18,Woman,Right,
,,,,,,,,,,,,,,,,,520,18,Woman,Right,2,5,1,2,0,180,180,0.6932144999955199,['y'],0.6721449999968172,1.63,1547.019245800002,,,,,520,18,Woman,Right,
,,,,,,,,,,,,,,,,,520,18,Woman,Right,2,13,0.4,2,0,180,180,0.34964429999672575,['y'],0.9669418999983463,1.546,1551.8524689999977,,,,,520,18,Woman,Right,
,,,,,,,,,,,,,,,,,520,18,Woman,Right,2,73,0.15,2,0,180,0,0.43707089999952586,['n'],0.38354769999568816,1.462,1555.0024718999994,,,,,520,18,Woman,Right,
,,,,,,,,,,,,,,,,,520,18,Woman,Right,2,8,0.4,1,0,-,0,0.6488768999988679,['n'],0.783889199999976,1.462,1558.8690389999974,,,,,520,18,Woman,Right,
,,,,,,,,,,,,,,,,,520,18,Woman,Right,3,78,0.15,1,180,-,0,0.17346930000348948,['n'],0.5843905000001541,1.45,1580.718934299999,60.0,72.5,65.0,,520,18,Woman,Right,
,,,,,,,,,,,,,,,,,520,18,Woman,Right,3,61,0.15,2,0,180,0,0.08363210000243271,['y'],0.5579424000025028,1.3860000000000001,1583.768882700002,,,,,520,18,Woman,Right,
,,,,,,,,,,,,,,,,,520,18,Woman,Right,3,77,0.15,2,0,180,0,0.12847359999432229,['n'],0.6877170000007027,1.424,1586.9029951999983,,,,,520,18,Woman,Right,
,,,,,,,,,,,,,,,,,520,18,Woman,Right,3,29,0.4,2,0,180,180,0.3069150000010268,['y'],0.5996830000003683,1.462,1589.9854253000012,,,,,520,18,Woman,Right,
,,,,,,,,,,,,,,,,,520,18,Woman,Right,3,59,0.15,2,180,0,0,0.2634154999977909,['n'],0.5519501000017044,1.462,1593.0686615000013,,,,,520,18,Woman,Right,
,,,,,,,,,,,,,,,,,520,18,Woman,Right,3,13,0.4,2,0,180,180,0.29937530000461265,['y'],0.5281149000002188,1.462,1596.2853590000013,,,,,520,18,Woman,Right,
,,,,,,,,,,,,,,,,,520,18,Woman,Right,3,21,0.4,2,0,180,180,0.2957539999988512,['y'],0.5121787000025506,2.0,1599.9854963000034,,,,,520,18,Woman,Right,
,,,,,,,,,,,,,,,,,520,18,Woman,Right,3,31,0.4,2,180,0,0,0.2394346000000951,['y'],0.9908485999985714,1.568,1603.935555600001,,,,,520,18,Woman,Right,
,,,,,,,,,,,,,,,,,520,18,Woman,Right,3,12,0.4,1,0,-,180,0.48308540000289213,['y'],0.8556897999951616,1.4020000000000001,1607.8352746000019,,,,,520,18,Woman,Right,
,,,,,,,,,,,,,,,,,520,18,Woman,Right,3,71,0.15,2,180,0,0,1.364667499998177,['n'],0.4315915000042878,1.4020000000000001,1612.0018606000012,,,,,520,18,Woman,Right,
,,,,,,,,,,,,,,,,,520,18,Woman,Right,3,27,0.4,2,180,0,0,1.2870718999984092,['y'],0.5439100000003236,1.4020000000000001,1616.3851458999998,,,,,520,18,Woman,Right,
,,,,,,,,,,,,,,,,,520,18,Woman,Right,3,35,0.4,2,180,0,0,1.4719754999969155,['y'],0.5360139999975218,1.702,1621.0018292000022,,,,,520,18,Woman,Right,
,,,,,,,,,,,,,,,,,520,18,Woman,Right,3,67,0.15,2,180,0,180,1.2753611000007368,['n'],0.9036691000001156,1.316,1625.7183533999996,,,,,520,18,Woman,Right,
,,,,,,,,,,,,,,,,,520,18,Woman,Right,3,17,0.4,2,0,180,180,0.5083775999955833,['y'],0.6719449000011082,1.316,1629.235650900002,,,,,520,18,Woman,Right,
,,,,,,,,,,,,,,,,,520,18,Woman,Right,3,56,0.15,1,0,-,0,0.567529599997215,['n'],0.39998409999680007,1.316,1633.0516002000004,,,,,520,18,Woman,Right,
,,,,,,,,,,,,,,,,,520,18,Woman,Right,3,40,0.4,1,0,-,0,0.616708399997151,['y'],0.6160111999997753,1.316,1636.6182262000002,,,,,520,18,Woman,Right,
,,,,,,,,,,,,,,,,,520,18,Woman,Right,3,72,0.15,1,0,-,0,0.3226377000028151,['n'],0.5448768999995082,1.3860000000000001,1642.5681476000027,,,,,520,18,Woman,Right,
,,,,,,,,,,,,,,,,,520,18,Woman,Right,3,8,0.4,1,0,-,0,0.31223030000546714,['n'],0.431576099996164,1.46,1646.0848579000012,,,,,520,18,Woman,Right,
,,,,,,,,,,,,,,,,,520,18,Woman,Right,3,63,0.15,2,180,0,0,0.3878218999961973,['n'],0.5915259000030346,1.458,1649.4847483999984,,,,,520,18,Woman,Right,
,,,,,,,,,,,,,,,,,520,18,Woman,Right,3,20,0.4,1,0,-,0,0.2593879000050947,['n'],0.3760277999972459,1.458,1652.401445100004,,,,,520,18,Woman,Right,
,,,,,,,,,,,,,,,,,520,18,Woman,Right,3,69,0.15,2,0,180,180,0.24741179999546148,['n'],0.9519471999956295,1.458,1656.3180332999982,,,,,520,18,Woman,Right,
,,,,,,,,,,,,,,,,,520,18,Woman,Right,3,58,0.15,1,180,-,0,0.6571304999961285,['n'],0.296111399999063,1.458,1659.518088900004,,,,,520,18,Woman,Right,
,,,,,,,,,,,,,,,,,520,18,Woman,Right,3,79,0.15,2,180,0,0,0.11836730000504758,['n'],0.22411660000216216,1.458,1659.518088900004,,,,,520,18,Woman,Right,
,,,,,,,,,,,,,,,,,520,18,Woman,Right,3,7,1,2,180,0,0,0.4473311999972793,['y'],0.8797938999996404,1.696,1665.468142400001,,,,,520,18,Woman,Right,
,,,,,,,,,,,,,,,,,520,18,Woman,Right,3,6,1,1,180,-,180,0.7671267999976408,['n'],0.4055681999961962,1.65,1669.084697600003,,,,,520,18,Woman,Right,
,,,,,,,,,,,,,,,,,520,18,Woman,Right,3,75,0.15,2,180,0,180,0.3759162999995169,['n'],0.33560259999649134,1.65,1672.1679193000018,,,,,520,18,Woman,Right,
,,,,,,,,,,,,,,,,,520,18,Woman,Right,3,49,0.15,2,0,180,180,0.21847889999480685,['n'],0.2868077000021003,1.6480000000000001,1676.2178392999995,,,,,520,18,Woman,Right,
,,,,,,,,,,,,,,,,,520,18,Woman,Right,3,44,0.15,1,0,-,0,0.45509709999896586,['n'],0.35969260000274517,1.6480000000000001,1676.2178392999995,,,,,520,18,Woman,Right,
,,,,,,,,,,,,,,,,,520,18,Woman,Right,3,65,0.15,2,0,180,180,0.6033323000010569,['n'],0.2875251000004937,1.498,1683.6513189000034,,,,,520,18,Woman,Right,
,,,,,,,,,,,,,,,,,520,18,Woman,Right,3,11,0.4,2,180,0,0,0.6570873999953619,['y'],0.7444914000006975,1.496,1687.3177662000016,,,,,520,18,Woman,Right,
,,,,,,,,,,,,,,,,,520,18,Woman,Right,3,47,0.15,2,180,0,0,0.8474035000035656,['n'],0.3039481999949203,1.496,1691.167858300003,,,,,520,18,Woman,Right,
,,,,,,,,,,,,,,,,,520,18,Woman,Right,3,50,0.15,1,180,-,180,0.5377952999988338,['n'],0.9200047999984236,1.51,1695.351106000002,,,,,520,18,Woman,Right,
,,,,,,,,,,,,,,,,,520,18,Woman,Right,3,74,0.15,1,180,-,0,0.2640259000036167,['n'],0.4796638999978313,1.51,1697.8510674999998,,,,,520,18,Woman,Right,
,,,,,,,,,,,,,,,,,520,18,Woman,Right,3,57,0.15,2,0,180,180,0.13901130000158446,['n'],2.7519711999993888,1.51,1697.8510674999998,,,,,520,18,Woman,Right,
,,,,,,,,,,,,,,,,,520,18,Woman,Right,3,2,1,1,180,-,180,0.3827051000043866,['n'],0.6875992999994196,1.8719999999999999,1706.2676120000033,,,,,520,18,Woman,Right,
,,,,,,,,,,,,,,,,,520,18,Woman,Right,3,32,0.4,1,0,-,0,0.326067800000601,['n'],0.5440506999948411,1.818,1709.3516345000025,,,,,520,18,Woman,Right,
,,,,,,,,,,,,,,,,,520,18,Woman,Right,3,43,0.4,2,180,0,0,0.7916976999986218,['y'],0.6478704000037396,1.818,1713.1008296,,,,,520,18,Woman,Right,
,,,,,,,,,,,,,,,,,520,18,Woman,Right,3,34,0.4,1,180,-,180,0.49836990000039805,['n'],0.3356936000054702,1.796,1716.5508874000006,,,,,520,18,Woman,Right,
,,,,,,,,,,,,,,,,,520,18,Woman,Right,3,68,0.15,1,0,-,180,0.3509191000048304,['n'],0.3591753000000608,1.804,1719.5007342000026,,,,,520,18,Woman,Right,
,,,,,,,,,,,,,,,,,520,18,Woman,Right,3,18,0.4,1,180,-,180,0.8995941999964998,['n'],1.3835550000003423,1.404,1724.3840131000034,,,,,520,18,Woman,Right,
,,,,,,,,,,,,,,,,,520,18,Woman,Right,3,19,0.4,2,180,0,0,0.39537489999929676,['n'],0.6711856999972952,1.0,1728.7341283999995,,,,,520,18,Woman,Right,
,,,,,,,,,,,,,,,,,520,18,Woman,Right,3,15,0.4,2,180,0,0,0.635989200003678,['y'],0.43982580000010785,1.522,1732.0672924000028,,,,,520,18,Woman,Right,
,,,,,,,,,,,,,,,,,520,18,Woman,Right,3,70,0.15,1,180,-,180,0.147824200001196,['n'],1.5358206999953836,1.542,1736.1506102999992,,,,,520,18,Woman,Right,
,,,,,,,,,,,,,,,,,520,18,Woman,Right,3,38,0.4,1,180,-,180,0.4044521999967401,['n'],0.6473174999991897,1.544,1740.2172401999997,,,,,520,18,Woman,Right,
,,,,,,,,,,,,,,,,,520,18,Woman,Right,3,48,0.15,1,0,-,0,0.4430041000014171,['y'],0.6080339999971329,1.3780000000000001,1745.767421000004,,,,,520,18,Woman,Right,
,,,,,,,,,,,,,,,,,520,18,Woman,Right,3,54,0.15,1,180,-,0,0.335455100001127,['n'],0.5280649999986053,1.324,1749.0014872000029,,,,,520,18,Woman,Right,
,,,,,,,,,,,,,,,,,520,18,Woman,Right,3,64,0.15,1,0,-,0,0.016815900002256967,['n'],0.45276869999361224,1.4060000000000001,1751.8007476999992,,,,,520,18,Woman,Right,
,,,,,,,,,,,,,,,,,520,18,Woman,Right,3,28,0.4,1,0,-,180,0.4836840000061784,['y'],1.8078326000031666,1.424,1756.4004416000025,,,,,520,18,Woman,Right,
,,,,,,,,,,,,,,,,,520,18,Woman,Right,3,62,0.15,1,180,-,180,0.9055325000008452,['y'],0.6235969999979716,1.424,1760.4503499999992,,,,,520,18,Woman,Right,
,,,,,,,,,,,,,,,,,520,18,Woman,Right,3,76,0.15,1,0,-,0,0.49210239999956684,['n'],1.1996915999989142,1.722,1764.3336376000007,,,,,520,18,Woman,Right,
,,,,,,,,,,,,,,,,,520,18,Woman,Right,3,45,0.15,2,0,180,180,0.38467040000250563,['y'],1.3995713999975123,1.718,1768.4169467000029,,,,,520,18,Woman,Right,
,,,,,,,,,,,,,,,,,520,18,Woman,Right,3,66,0.15,1,180,-,180,0.5955539999995381,['y'],0.6562708999990718,1.718,1772.166930600004,,,,,520,18,Woman,Right,
,,,,,,,,,,,,,,,,,520,18,Woman,Right,3,9,0.4,2,0,180,180,1.698052200001257,['y'],0.7356452000021818,1.6360000000000001,1780.8835031999988,,,,,520,18,Woman,Right,
,,,,,,,,,,,,,,,,,520,18,Woman,Right,3,10,0.4,1,180,-,0,0.3836109999974724,['y'],0.31937789999938104,1.0,1784.6168665000005,,,,,520,18,Woman,Right,
,,,,,,,,,,,,,,,,,520,18,Woman,Right,3,26,0.4,1,180,-,180,1.1541979999965406,['y'],0.655574099997466,1.642,1789.2673072000034,,,,,520,18,Woman,Right,
,,,,,,,,,,,,,,,,,520,18,Woman,Right,3,24,0.4,1,0,-,180,0.3358086000007461,['y'],0.511545199995453,1.616,1792.4334381000008,,,,,520,18,Woman,Right,
,,,,,,,,,,,,,,,,,520,18,Woman,Right,3,46,0.15,1,180,-,180,0.2876548999993247,['y'],0.36755730000004405,1.6179999999999999,1795.4167257000008,,,,,520,18,Woman,Right,
,,,,,,,,,,,,,,,,,520,18,Woman,Right,3,5,1,2,0,180,180,0.5863043999997899,['y'],1.2958056999996188,1.6179999999999999,1799.9338973999984,,,,,520,18,Woman,Right,
,,,,,,,,,,,,,,,,,520,18,Woman,Right,3,3,1,2,180,0,0,0.296373199998925,['y'],0.5119501000008313,1.6179999999999999,1803.1507896999974,,,,,520,18,Woman,Right,
,,,,,,,,,,,,,,,,,520,18,Woman,Right,3,33,0.4,2,0,180,0,0.5323723999972572,['n'],0.37600599999859696,1.6179999999999999,1806.249983900001,,,,,520,18,Woman,Right,
,,,,,,,,,,,,,,,,,520,18,Woman,Right,3,0,1,1,0,-,0,0.6033031999977538,['n'],0.5281462000057218,1.6179999999999999,1809.816825300004,,,,,520,18,Woman,Right,
,,,,,,,,,,,,,,,,,520,18,Woman,Right,3,73,0.15,2,0,180,180,0.10732290000305511,['n'],0.23986700000386918,1.6179999999999999,1812.633313899998,,,,,520,18,Woman,Right,
,,,,,,,,,,,,,,,,,520,18,Woman,Right,3,55,0.15,2,180,0,180,0.47283839999727206,['n'],0.20804810000117868,1.6179999999999999,1816.349792400004,,,,,520,18,Woman,Right,
,,,,,,,,,,,,,,,,,520,18,Woman,Right,3,4,1,1,0,-,0,0.43202990000281716,['n'],0.4319563999961247,1.6179999999999999,1819.7165166999985,,,,,520,18,Woman,Right,
,,,,,,,,,,,,,,,,,520,18,Woman,Right,3,41,0.4,2,0,180,180,1.5336009000020567,['y'],0.5252767000056338,1.616,1823.9837967999993,,,,,520,18,Woman,Right,
,,,,,,,,,,,,,,,,,520,18,Woman,Right,3,60,0.15,1,0,-,180,0.13503510000009555,['n'],0.15132270000322023,1.6179999999999999,1827.0837800000008,,,,,520,18,Woman,Right,
,,,,,,,,,,,,,,,,,520,18,Woman,Right,3,42,0.4,1,180,-,180,0.7994393000044511,['n'],0.48793700000533136,1.6179999999999999,1830.6499650000042,,,,,520,18,Woman,Right,
,,,,,,,,,,,,,,,,,520,18,Woman,Right,3,23,0.4,2,180,0,0,0.4611966000011307,['y'],0.9443352000016603,1.6179999999999999,1834.2665143999984,,,,,520,18,Woman,Right,
,,,,,,,,,,,,,,,,,520,18,Woman,Right,3,22,0.4,1,180,-,180,0.6776538999984041,['n'],0.3835607000000891,1.6179999999999999,1837.6005939000024,,,,,520,18,Woman,Right,
,,,,,,,,,,,,,,,,,520,18,Woman,Right,3,39,0.4,2,180,0,0,0.5047778000007384,['y'],0.7602507000046899,1.6179999999999999,1841.0661709999986,,,,,520,18,Woman,Right,
,,,,,,,,,,,,,,,,,520,18,Woman,Right,3,52,0.15,1,0,-,180,0.9549757999993744,['n'],0.2796264000062365,1.6179999999999999,1844.6495681000015,,,,,520,18,Woman,Right,
,,,,,,,,,,,,,,,,,520,18,Woman,Right,3,16,0.4,1,0,-,0,0.8292462999961572,['n'],0.9433650999999372,1.6280000000000001,1848.8161056000026,,,,,520,18,Woman,Right,
,,,,,,,,,,,,,,,,,520,18,Woman,Right,3,30,0.4,1,180,-,180,0.6084620999972685,['y'],0.5920239999977639,1.062,1854.1161809999976,,,,,520,18,Woman,Right,
,,,,,,,,,,,,,,,,,520,18,Woman,Right,3,53,0.15,2,0,180,180,0.48778840000159107,['y'],1.024458499996399,1.5819999999999999,1857.933511299998,,,,,520,18,Woman,Right,
,,,,,,,,,,,,,,,,,520,18,Woman,Right,3,51,0.15,2,180,0,0,0.31756379999569617,['n'],0.7932492000036291,1.566,1861.866631099998,,,,,520,18,Woman,Right,
,,,,,,,,,,,,,,,,,520,18,Woman,Right,3,1,1,2,0,180,180,0.41599020000285236,['n'],0.767499499997939,1.0,1865.8494107000006,,,,,520,18,Woman,Right,
,,,,,,,,,,,,,,,,,520,18,Woman,Right,3,37,0.4,2,0,180,180,1.7007893000045442,['y'],0.4954529000024195,1.73,1870.9993255000009,,,,,520,18,Woman,Right,
,,,,,,,,,,,,,,,,,520,18,Woman,Right,3,14,0.4,1,180,-,180,0.8501407000003383,['y'],0.23958809999749064,1.722,1875.2327108000027,,,,,520,18,Woman,Right,
,,,,,,,,,,,,,,,,,520,18,Woman,Right,3,25,0.4,2,0,180,0,0.3678158999973675,['n'],0.48811990000103833,1.658,1878.932604499998,,,,,520,18,Woman,Right,
,,,,,,,,,,,,,,,,,520,18,Woman,Right,3,36,0.4,1,0,-,180,0.7896079999991343,['y'],0.18396009999560192,1.608,1882.6159847000017,,,,,520,18,Woman,Right,
,,,,,,,,,,,,,,,,,520,18,Woman,Right,4,48,0.15,1,0,-,0,0.34714489999896614,['n'],0.40754089999973075,1.49,1904.3155688999977,76.25,67.5,52.5,,520,18,Woman,Right,
,,,,,,,,,,,,,,,,,520,18,Woman,Right,4,37,0.4,2,0,180,180,0.5321408000017982,['y'],0.6955089999974007,1.35,1908.0996599999999,,,,,520,18,Woman,Right,
,,,,,,,,,,,,,,,,,520,18,Woman,Right,4,29,0.4,2,0,180,180,2.2892712999964715,['y'],0.7033070000034058,1.354,1913.3489384999993,,,,,520,18,Woman,Right,
,,,,,,,,,,,,,,,,,520,18,Woman,Right,4,9,0.4,2,0,180,0,0.38284549999661976,['n'],0.2564263999956893,1.62,1916.9654504999999,,,,,520,18,Woman,Right,
,,,,,,,,,,,,,,,,,520,18,Woman,Right,4,22,0.4,1,180,-,0,1.3779783000063617,['n'],0.31193250000069384,1.58,1921.215529000001,,,,,520,18,Woman,Right,
,,,,,,,,,,,,,,,,,520,18,Woman,Right,4,56,0.15,1,0,-,180,3.3576752000008128,['n'],0.4473489000010886,1.576,1927.3321406000032,,,,,520,18,Woman,Right,
,,,,,,,,,,,,,,,,,520,18,Woman,Right,4,38,0.4,1,180,-,180,0.7281671999953687,['n'],0.7275257000001147,1.568,1931.7320210000034,,,,,520,18,Woman,Right,
,,,,,,,,,,,,,,,,,520,18,Woman,Right,4,52,0.15,1,0,-,0,0.47258229999715695,['n'],0.47139469999819994,1.65,1939.8985861000037,,,,,520,18,Woman,Right,
,,,,,,,,,,,,,,,,,520,18,Woman,Right,4,72,0.15,1,0,-,0,0.47497979999752715,['n'],0.6800211999943713,1.65,1943.7485759999981,,,,,520,18,Woman,Right,
,,,,,,,,,,,,,,,,,520,18,Woman,Right,4,26,0.4,1,180,-,180,0.5288000000000466,['n'],0.5846868000007817,1.65,1947.2332843999975,,,,,520,18,Woman,Right,
,,,,,,,,,,,,,,,,,520,18,Woman,Right,4,75,0.15,2,180,0,0,0.603611099999398,['y'],0.3998665000035544,1.65,1950.4984521000006,,,,,520,18,Woman,Right,
,,,,,,,,,,,,,,,,,520,18,Woman,Right,4,23,0.4,2,180,0,0,0.5859328000005917,['n'],0.6239669999995385,1.65,1954.8317209000015,,,,,520,18,Woman,Right,
,,,,,,,,,,,,,,,,,520,18,Woman,Right,4,47,0.15,2,180,0,0,0.4234102999980678,['y'],0.5043292000045767,1.65,1957.9660965000003,,,,,520,18,Woman,Right,
,,,,,,,,,,,,,,,,,520,18,Woman,Right,4,51,0.15,2,180,0,180,0.7542205999998259,['n'],0.33534030000009807,1.65,1961.4150510000036,,,,,520,18,Woman,Right,
,,,,,,,,,,,,,,,,,520,18,Woman,Right,4,11,0.4,2,180,0,0,0.3828769000028842,['y'],0.5120797999989009,1.65,1964.5659135000024,,,,,520,18,Woman,Right,
,,,,,,,,,,,,,,,,,520,18,Woman,Right,4,64,0.15,1,0,-,0,0.016919500005315058,['n'],0.3599030000041239,1.65,1967.2483699000004,,,,,520,18,Woman,Right,
,,,,,,,,,,,,,,,,,520,18,Woman,Right,4,1,1,2,0,180,180,0.3500657000040519,['y'],0.6021976999982144,1.65,1971.031640400004,,,,,520,18,Woman,Right,
,,,,,,,,,,,,,,,,,520,18,Woman,Right,4,25,0.4,2,0,180,180,0.40059520000068005,['y'],1.7920373000015388,1.65,1975.5482302000019,,,,,520,18,Woman,Right,
,,,,,,,,,,,,,,,,,520,18,Woman,Right,4,63,0.15,2,180,0,180,0.8532449999984237,['n'],0.3436414999960107,1.642,1978.9149914000009,,,,,520,18,Woman,Right,
,,,,,,,,,,,,,,,,,520,18,Woman,Right,4,66,0.15,1,180,-,0,0.36361969999416033,['n'],0.6953875000035623,1.6139999999999999,1982.5648449,,,,,520,18,Woman,Right,
,,,,,,,,,,,,,,,,,520,18,Woman,Right,4,2,1,1,180,-,180,0.9134242000000086,['n'],0.47190260000206763,1.608,1986.1147894000023,,,,,520,18,Woman,Right,
,,,,,,,,,,,,,,,,,520,18,Woman,Right,4,41,0.4,2,0,180,180,0.8313237000038498,['y'],0.6797338999967906,1.608,1989.931405299998,,,,,520,18,Woman,Right,
,,,,,,,,,,,,,,,,,520,18,Woman,Right,4,4,1,1,0,-,0,1.5169594000035431,['n'],1.1996457999994163,1.638,1995.1813617000007,,,,,520,18,Woman,Right,
,,,,,,,,,,,,,,,,,520,18,Woman,Right,4,42,0.4,1,180,-,180,1.5031678000013926,['n'],0.5836122999971849,1.65,2001.4479761999974,,,,,520,18,Woman,Right,
,,,,,,,,,,,,,,,,,520,18,Woman,Right,4,62,0.15,1,180,-,180,0.3633761000019149,['n'],0.5115638999996008,1.738,2005.5818960000033,,,,,520,18,Woman,Right,
,,,,,,,,,,,,,,,,,520,18,Woman,Right,4,59,0.15,2,180,0,0,0.38512579999951413,['y'],1.1758343999972567,1.714,2009.4645670000027,,,,,520,18,Woman,Right,
,,,,,,,,,,,,,,,,,520,18,Woman,Right,4,8,0.4,1,0,-,180,0.48743739999918034,['n'],0.3595930000010412,1.412,2014.9978571000029,,,,,520,18,Woman,Right,
,,,,,,,,,,,,,,,,,520,18,Woman,Right,4,79,0.15,2,180,0,180,0.4586070999939693,['n'],0.4952231999996002,1.498,2018.564413400003,,,,,520,18,Woman,Right,
,,,,,,,,,,,,,,,,,520,18,Woman,Right,4,27,0.4,2,180,0,0,0.4053942000027746,['n'],0.5278485000017099,1.498,2021.5977716999987,,,,,520,18,Woman,Right,
,,,,,,,,,,,,,,,,,520,18,Woman,Right,4,33,0.4,2,0,180,180,0.4272335999994539,['y'],1.136106899997685,1.498,2025.265290000003,,,,,520,18,Woman,Right,
,,,,,,,,,,,,,,,,,520,18,Woman,Right,4,17,0.4,2,0,180,180,1.128206900000805,['y'],0.3040108999994118,1.498,2029.1143993000005,,,,,520,18,Woman,Right,
,,,,,,,,,,,,,,,,,520,18,Woman,Right,4,43,0.4,2,180,0,0,0.3501429000025382,['y'],0.8956713000006857,1.496,2032.6309961000006,,,,,520,18,Woman,Right,
,,,,,,,,,,,,,,,,,520,18,Woman,Right,4,78,0.15,1,180,-,0,0.33384819999628235,['n'],0.44015009999566246,1.496,2035.8476986000023,,,,,520,18,Woman,Right,
,,,,,,,,,,,,,,,,,520,18,Woman,Right,4,50,0.15,1,180,-,180,1.1107030999992276,['y'],0.5195572000011452,1.482,2040.115007100001,,,,,520,18,Woman,Right,
,,,,,,,,,,,,,,,,,520,18,Woman,Right,4,14,0.4,1,180,-,0,0.1454572999937227,['n'],0.4241775000045891,1.482,2040.115007100001,,,,,520,18,Woman,Right,
,,,,,,,,,,,,,,,,,520,18,Woman,Right,4,24,0.4,1,0,-,0,0.5297208000047249,['n'],0.7040991999965627,1.482,2046.0141963999995,,,,,520,18,Woman,Right,
,,,,,,,,,,,,,,,,,520,18,Woman,Right,4,61,0.15,2,0,180,180,0.5094905000005383,['y'],0.3840485000037006,1.558,2050.764116700004,,,,,520,18,Woman,Right,
,,,,,,,,,,,,,,,,,520,18,Woman,Right,4,10,0.4,1,180,-,180,1.1823007999992114,['y'],0.7111298999952851,1.572,2055.2477577000027,,,,,520,18,Woman,Right,
,,,,,,,,,,,,,,,,,520,18,Woman,Right,4,55,0.15,2,180,0,0,0.5588384000002407,['n'],0.7116965999957756,1.572,2058.997617699999,,,,,520,18,Woman,Right,
,,,,,,,,,,,,,,,,,520,18,Woman,Right,4,53,0.15,2,0,180,180,0.607170600000245,['n'],0.5755046000049333,1.494,2062.4141014999987,,,,,520,18,Woman,Right,
,,,,,,,,,,,,,,,,,520,18,Woman,Right,4,31,0.4,2,180,0,180,0.016726200003176928,['n'],0.830829000005906,1.494,2065.8474313000042,,,,,520,18,Woman,Right,
,,,,,,,,,,,,,,,,,520,18,Woman,Right,4,3,1,2,180,0,0,0.48477449999336386,['y'],1.0880837000004249,1.494,2069.813941500004,,,,,520,18,Woman,Right,
,,,,,,,,,,,,,,,,,520,18,Woman,Right,4,57,0.15,2,0,180,0,0.3864363999964553,['n'],0.34371050000481773,1.52,2073.1320543999973,,,,,520,18,Woman,Right,
,,,,,,,,,,,,,,,,,520,18,Woman,Right,4,49,0.15,2,0,180,180,0.4498944999941159,['n'],0.26312509999843314,1.514,2076.1481400999983,,,,,520,18,Woman,Right,
,,,,,,,,,,,,,,,,,520,18,Woman,Right,4,74,0.15,1,180,-,180,1.0365001000027405,['n'],0.7042078000013134,1.506,2081.5139334999985,,,,,520,18,Woman,Right,
,,,,,,,,,,,,,,,,,520,18,Woman,Right,4,58,0.15,1,180,-,0,0.18151860000216402,['n'],0.41556560000026366,1.596,2086.131280900001,,,,,520,18,Woman,Right,
,,,,,,,,,,,,,,,,,520,18,Woman,Right,4,5,1,2,0,180,180,0.40867480000451906,['y'],0.5356982000012067,1.596,2086.131280900001,,,,,520,18,Woman,Right,
,,,,,,,,,,,,,,,,,520,18,Woman,Right,4,77,0.15,2,0,180,0,0.10484960000030696,['n'],0.9599391000010655,1.608,2092.914690400001,,,,,520,18,Woman,Right,
,,,,,,,,,,,,,,,,,520,18,Woman,Right,4,65,0.15,2,0,180,180,0.019964799997978844,['n'],0.41595519999827957,1.608,2095.5637069000004,,,,,520,18,Woman,Right,
,,,,,,,,,,,,,,,,,520,18,Woman,Right,4,6,1,1,180,-,180,0.39325670000107493,['y'],0.7436928999959491,1.608,2099.3976841999975,,,,,520,18,Woman,Right,
,,,,,,,,,,,,,,,,,520,18,Woman,Right,4,13,0.4,2,0,180,180,0.9316136999987066,['y'],1.6476044000010006,1.45,2105.730451800002,,,,,520,18,Woman,Right,
,,,,,,,,,,,,,,,,,520,18,Woman,Right,4,36,0.4,1,0,-,0,0.5672665999954916,['n'],0.43168149999837624,1.6680000000000001,2109.330226899998,,,,,520,18,Woman,Right,
,,,,,,,,,,,,,,,,,520,18,Woman,Right,4,15,0.4,2,180,0,0,0.6345465000049444,['y'],0.5767826000010245,1.6680000000000001,2112.596829599999,,,,,520,18,Woman,Right,
,,,,,,,,,,,,,,,,,520,18,Woman,Right,4,12,0.4,1,0,-,0,0.4729211000012583,['n'],0.2559745999969891,1.666,2115.6811476000003,,,,,520,18,Woman,Right,
,,,,,,,,,,,,,,,,,520,18,Woman,Right,4,60,0.15,1,0,-,180,0.20382600000448292,['n'],0.3277987000037683,1.6600000000000001,2119.1135732999974,,,,,520,18,Woman,Right,
,,,,,,,,,,,,,,,,,520,18,Woman,Right,4,46,0.15,1,180,-,180,0.016698599996743724,['n'],0.46461489999637706,1.544,2121.9801093999995,,,,,520,18,Woman,Right,
,,,,,,,,,,,,,,,,,520,18,Woman,Right,4,35,0.4,2,180,0,0,0.26595829999860143,['y'],0.6155870000002324,1.532,2125.163429,,,,,520,18,Woman,Right,
,,,,,,,,,,,,,,,,,520,18,Woman,Right,4,30,0.4,1,180,-,180,0.5923558000067715,['n'],0.27961160000268137,1.528,2129.0471548999994,,,,,520,18,Woman,Right,
,,,,,,,,,,,,,,,,,520,18,Woman,Right,4,54,0.15,1,180,-,0,0.23803229999612086,['n'],0.6399135000028764,1.526,2131.9467120000045,,,,,520,18,Woman,Right,
,,,,,,,,,,,,,,,,,520,18,Woman,Right,4,7,1,2,180,0,0,0.7209812999935821,['y'],0.3122247999999672,1.526,2135.3133155000032,,,,,520,18,Woman,Right,
,,,,,,,,,,,,,,,,,520,18,Woman,Right,4,20,0.4,1,0,-,0,0.5199897999991663,['n'],0.351951899996493,1.526,2138.846625899998,,,,,520,18,Woman,Right,
,,,,,,,,,,,,,,,,,520,18,Woman,Right,4,44,0.15,1,0,-,0,0.10578730000270298,['y'],0.38399520000530174,1.526,2142.2475089,,,,,520,18,Woman,Right,
,,,,,,,,,,,,,,,,,520,18,Woman,Right,4,18,0.4,1,180,-,180,0.44984150000527734,['y'],1.0720212000014726,1.526,2146.2309177999996,,,,,520,18,Woman,Right,
,,,,,,,,,,,,,,,,,520,18,Woman,Right,4,32,0.4,1,0,-,180,1.007741100002022,['y'],1.8482145999951172,1.576,2151.446505400003,,,,,520,18,Woman,Right,
,,,,,,,,,,,,,,,,,520,18,Woman,Right,4,16,0.4,1,0,-,0,1.2631550999940373,['n'],0.4720298999964143,1.576,2155.4797728999984,,,,,520,18,Woman,Right,
,,,,,,,,,,,,,,,,,520,18,Woman,Right,4,39,0.4,2,180,0,180,0.156161399994744,['n'],0.5119449999983772,1.576,2158.6299960000033,,,,,520,18,Woman,Right,
,,,,,,,,,,,,,,,,,520,18,Woman,Right,4,40,0.4,1,0,-,180,1.135925299997325,['n'],0.7199985999977798,1.576,2162.780375100003,,,,,520,18,Woman,Right,
,,,,,,,,,,,,,,,,,520,18,Woman,Right,4,19,0.4,2,180,0,0,0.23980350000056205,['n'],0.7120722000036039,1.576,2166.3138867000016,,,,,520,18,Woman,Right,
,,,,,,,,,,,,,,,,,520,18,Woman,Right,4,73,0.15,2,0,180,0,0.08792309999989811,['n'],0.42382809999980964,1.468,2169.6132684999975,,,,,520,18,Woman,Right,
,,,,,,,,,,,,,,,,,520,18,Woman,Right,4,67,0.15,2,180,0,0,0.01660730000003241,['y'],1.154296599997906,1.468,2169.6132684999975,,,,,520,18,Woman,Right,
,,,,,,,,,,,,,,,,,520,18,Woman,Right,4,21,0.4,2,0,180,180,1.7362013000019942,['y'],0.463962800000445,1.6640000000000001,2178.3133768000043,,,,,520,18,Woman,Right,
,,,,,,,,,,,,,,,,,520,18,Woman,Right,4,0,1,1,0,-,0,0.817215800001577,['n'],0.7757118000008631,1.6640000000000001,2178.3133768000043,,,,,520,18,Woman,Right,
,,,,,,,,,,,,,,,,,520,18,Woman,Right,4,76,0.15,1,0,-,180,0.016720200001145713,['n'],0.38373710000450956,1.646,2186.1961568000042,,,,,520,18,Woman,Right,
,,,,,,,,,,,,,,,,,520,18,Woman,Right,4,68,0.15,1,0,-,180,0.5704745999973966,['n'],0.8717547999985982,1.658,2190.512821000004,,,,,520,18,Woman,Right,
,,,,,,,,,,,,,,,,,520,18,Woman,Right,4,71,0.15,2,180,0,180,0.5076788000005763,['n'],0.319665700000769,1.63,2193.596092400003,,,,,520,18,Woman,Right,
,,,,,,,,,,,,,,,,,520,18,Woman,Right,4,45,0.15,2,0,180,180,0.3399580999976024,['y'],1.0481052999966778,1.6280000000000001,2197.3628098000045,,,,,520,18,Woman,Right,
,,,,,,,,,,,,,,,,,520,18,Woman,Right,4,69,0.15,2,0,180,180,0.016427700000349432,['n'],0.2789690999998129,1.6280000000000001,2199.9628551999995,,,,,520,18,Woman,Right,
,,,,,,,,,,,,,,,,,520,18,Woman,Right,4,28,0.4,1,0,-,180,0.3952941999959876,['n'],2.320259200001601,1.596,2205.345961500003,,,,,520,18,Woman,Right,
,,,,,,,,,,,,,,,,,520,18,Woman,Right,4,34,0.4,1,180,-,180,0.34078020000015385,['n'],0.592267100000754,1.596,2205.345961500003,,,,,520,18,Woman,Right,
,,,,,,,,,,,,,,,,,520,18,Woman,Right,4,70,0.15,1,180,-,0,0.08373019999999087,['n'],0.31930970000394154,1.728,2211.379230899998,,,,,520,18,Woman,Right,
,,,,,,,,,,,,,,,,,520,18,Woman,Right,5,41,0.4,2,0,180,180,1.0703919000006863,['y'],0.48725240000203485,1.728,2211.379230899998,68.75,85.0,55.0,,520,18,Woman,Right,
,,,,,,,,,,,,,,,,,520,18,Woman,Right,5,66,0.15,1,180,-,180,0.11621820000436855,['n'],0.35187540000333684,1.6099999999999999,2224.195916000004,,,,,520,18,Woman,Right,
,,,,,,,,,,,,,,,,,520,18,Woman,Right,5,54,0.15,1,180,-,0,0.016446900001028553,['n'],1.2155168000026606,1.572,2227.9625382000013,,,,,520,18,Woman,Right,
,,,,,,,,,,,,,,,,,520,18,Woman,Right,5,12,0.4,1,0,-,180,0.15919230000145035,['y'],0.7838625000003958,1.572,2231.1465159,,,,,520,18,Woman,Right,
,,,,,,,,,,,,,,,,,520,18,Woman,Right,5,3,1,2,180,0,0,0.38820779999514343,['y'],0.6162279999989551,1.572,2234.3290152000045,,,,,520,18,Woman,Right,
,,,,,,,,,,,,,,,,,520,18,Woman,Right,5,11,0.4,2,180,0,0,0.32531960000051185,['y'],0.7673398999977508,1.572,2237.6133020999987,,,,,520,18,Woman,Right,
,,,,,,,,,,,,,,,,,520,18,Woman,Right,5,35,0.4,2,180,0,0,0.20702439999877242,['y'],0.5196180999992066,1.624,2241.0622982999994,,,,,520,18,Woman,Right,
,,,,,,,,,,,,,,,,,520,18,Woman,Right,5,16,0.4,1,0,-,0,0.6778695999964839,['n'],0.42352050000044983,1.63,2244.2955359000043,,,,,520,18,Woman,Right,
,,,,,,,,,,,,,,,,,520,18,Woman,Right,5,62,0.15,1,180,-,0,0.016755399999965448,['n'],0.33990840000478784,1.63,2246.9788744000034,,,,,520,18,Woman,Right,
,,,,,,,,,,,,,,,,,520,18,Woman,Right,5,56,0.15,1,0,-,0,0.24252409999462543,['n'],0.3119409999999334,1.63,2249.2290584,,,,,520,18,Woman,Right,
,,,,,,,,,,,,,,,,,520,18,Woman,Right,5,43,0.4,2,180,0,0,0.29353649999393383,['y'],0.5679738999970141,1.63,2249.2290584,,,,,520,18,Woman,Right,
,,,,,,,,,,,,,,,,,520,18,Woman,Right,5,65,0.15,2,0,180,0,0.34326680000231136,['y'],1.1599658000050113,1.63,2255.7454727000004,,,,,520,18,Woman,Right,
,,,,,,,,,,,,,,,,,520,18,Woman,Right,5,15,0.4,2,180,0,0,0.20136610000190558,['n'],0.43966029999864986,1.63,2259.529442799998,,,,,520,18,Woman,Right,
,,,,,,,,,,,,,,,,,520,18,Woman,Right,5,8,0.4,1,0,-,0,0.4518744000015431,['n'],0.6313825999968685,1.63,2262.6954294000025,,,,,520,18,Woman,Right,
,,,,,,,,,,,,,,,,,520,18,Woman,Right,5,75,0.15,2,180,0,180,0.5204473999983747,['n'],0.10394090000045253,1.63,2265.7622440999985,,,,,520,18,Woman,Right,
,,,,,,,,,,,,,,,,,520,18,Woman,Right,5,30,0.4,1,180,-,180,0.1896197000023676,['y'],0.8629451999950106,1.608,2269.2126489,,,,,520,18,Woman,Right,
,,,,,,,,,,,,,,,,,520,18,Woman,Right,5,78,0.15,1,180,-,180,0.01662419999775011,['n'],0.5398901000007754,1.5979999999999999,2271.928640600003,,,,,520,18,Woman,Right,
,,,,,,,,,,,,,,,,,520,18,Woman,Right,5,73,0.15,2,0,180,0,0.030235199999879114,['n'],0.6554361000016797,1.5979999999999999,2274.6286083000014,,,,,520,18,Woman,Right,
,,,,,,,,,,,,,,,,,520,18,Woman,Right,5,72,0.15,1,0,-,180,0.016751299997849856,['n'],0.15845439999975497,1.5979999999999999,2277.1953751000037,,,,,520,18,Woman,Right,
,,,,,,,,,,,,,,,,,520,18,Woman,Right,5,57,0.15,2,0,180,0,0.016622999995888676,['n'],0.3855785000050673,1.5979999999999999,2279.9786846999996,,,,,520,18,Woman,Right,
,,,,,,,,,,,,,,,,,520,18,Woman,Right,5,60,0.15,1,0,-,0,0.016942800000833813,['n'],0.8627014000012423,1.5979999999999999,2283.0951159000033,,,,,520,18,Woman,Right,
,,,,,,,,,,,,,,,,,520,18,Woman,Right,5,18,0.4,1,180,-,180,0.6606673000060255,['y'],0.6001175999990664,1.5979999999999999,2286.6785031000036,,,,,520,18,Woman,Right,
,,,,,,,,,,,,,,,,,520,18,Woman,Right,5,1,1,2,0,180,180,1.0721978999936255,['y'],1.423721099999966,1.5939999999999999,2291.3784472000043,,,,,520,18,Woman,Right,
,,,,,,,,,,,,,,,,,520,18,Woman,Right,5,77,0.15,2,0,180,180,0.05134159999579424,['n'],1.8958832999996957,1.548,2298.7625591000033,,,,,520,18,Woman,Right,
,,,,,,,,,,,,,,,,,520,18,Woman,Right,5,38,0.4,1,180,-,0,0.1573158000028343,['n'],0.40759309999702964,1.5819999999999999,2301.995023000003,,,,,520,18,Woman,Right,
,,,,,,,,,,,,,,,,,520,18,Woman,Right,5,9,0.4,2,0,180,180,0.30445890000555664,['y'],1.4242582000006223,1.524,2306.0785179000013,,,,,520,18,Woman,Right,
,,,,,,,,,,,,,,,,,520,18,Woman,Right,5,22,0.4,1,180,-,0,0.20274829999834765,['n'],0.5835805000024266,1.584,2309.8783777999997,,,,,520,18,Woman,Right,
,,,,,,,,,,,,,,,,,520,18,Woman,Right,5,27,0.4,2,180,0,0,0.28065719999722205,['n'],0.7836712000062107,1.576,2313.2949759999974,,,,,520,18,Woman,Right,
,,,,,,,,,,,,,,,,,520,18,Woman,Right,5,42,0.4,1,180,-,180,3.044403899999452,['y'],0.4239727000021958,1.564,2319.1449925999987,,,,,520,18,Woman,Right,
,,,,,,,,,,,,,,,,,520,18,Woman,Right,5,49,0.15,2,0,180,0,0.016734700002416503,['n'],0.7321464000051492,1.56,2322.5781282000025,,,,,520,18,Woman,Right,
,,,,,,,,,,,,,,,,,520,18,Woman,Right,5,47,0.15,2,180,0,180,0.30462619999889284,['y'],0.18430559999978868,1.558,2325.478109399999,,,,,520,18,Woman,Right,
,,,,,,,,,,,,,,,,,520,18,Woman,Right,5,39,0.4,2,180,0,180,0.01600000000325963,['y'],0.10215550000430085,1.554,2328.378096799999,,,,,520,18,Woman,Right,
,,,,,,,,,,,,,,,,,520,18,Woman,Right,5,13,0.4,2,0,180,180,0.4285719000035897,['y'],0.6874944000010146,1.608,2331.828055800004,,,,,520,18,Woman,Right,
,,,,,,,,,,,,,,,,,520,18,Woman,Right,5,6,1,1,180,-,180,0.35844969999743626,['y'],0.4161493999999948,1.608,2335.0780151,,,,,520,18,Woman,Right,
,,,,,,,,,,,,,,,,,520,18,Woman,Right,5,4,1,1,0,-,0,0.8236315000031027,['n'],0.5682251999969594,1.608,2339.0446285,,,,,520,18,Woman,Right,
,,,,,,,,,,,,,,,,,520,18,Woman,Right,5,37,0.4,2,0,180,180,0.44486719999986235,['y'],0.47143140000116546,1.608,2341.9612466000035,,,,,520,18,Woman,Right,
,,,,,,,,,,,,,,,,,520,18,Woman,Right,5,26,0.4,1,180,-,180,0.41807020000123885,['y'],1.1038754999972298,1.608,2345.894525399999,,,,,520,18,Woman,Right,
,,,,,,,,,,,,,,,,,520,18,Woman,Right,5,79,0.15,2,180,0,180,0.09489210000174353,['n'],0.45601880000322126,1.604,2349.0449722999983,,,,,520,18,Woman,Right,
,,,,,,,,,,,,,,,,,520,18,Woman,Right,5,55,0.15,2,180,0,180,0.01668930000596447,['n'],0.11174180000671186,1.584,2351.4111864000006,,,,,520,18,Woman,Right,
,,,,,,,,,,,,,,,,,520,18,Woman,Right,5,21,0.4,2,0,180,180,0.01671199999691453,['n'],0.4039219999976922,1.584,2353.861308899999,,,,,520,18,Woman,Right,
,,,,,,,,,,,,,,,,,520,18,Woman,Right,5,5,1,2,0,180,180,0.22393780000129482,['n'],0.6315897000022233,1.584,2357.3783336999986,,,,,520,18,Woman,Right,
,,,,,,,,,,,,,,,,,520,18,Woman,Right,5,25,0.4,2,0,180,0,0.016847599996253848,['n'],0.6282186000025831,1.584,2360.277777299998,,,,,520,18,Woman,Right,
,,,,,,,,,,,,,,,,,520,18,Woman,Right,5,31,0.4,2,180,0,180,0.016612400002486538,['n'],0.13685820000682725,1.5859999999999999,2362.6111442000038,,,,,520,18,Woman,Right,
,,,,,,,,,,,,,,,,,520,18,Woman,Right,5,40,0.4,1,0,-,180,0.23491159999684896,['n'],0.35997869999846444,1.5859999999999999,2362.6111442000038,,,,,520,18,Woman,Right,
,,,,,,,,,,,,,,,,,520,18,Woman,Right,5,58,0.15,1,180,-,180,0.3035304000004544,['n'],0.5841727000006358,1.5859999999999999,2368.6944237999996,,,,,520,18,Woman,Right,
,,,,,,,,,,,,,,,,,520,18,Woman,Right,5,67,0.15,2,180,0,180,0.1053094000017154,['n'],0.3116485999998986,1.5859999999999999,2371.427684000002,,,,,520,18,Woman,Right,
,,,,,,,,,,,,,,,,,520,18,Woman,Right,5,44,0.15,1,0,-,180,0.037801099999342114,['n'],0.3359009999985574,1.5859999999999999,2373.9950769999996,,,,,520,18,Woman,Right,
,,,,,,,,,,,,,,,,,520,18,Woman,Right,5,19,0.4,2,180,0,0,0.28619610000168905,['n'],0.40714009999646805,1.5859999999999999,2376.9610229000027,,,,,520,18,Woman,Right,
,,,,,,,,,,,,,,,,,520,18,Woman,Right,5,68,0.15,1,0,-,0,0.03258369999821298,['n'],0.31144510000012815,1.646,2380.5111032999994,,,,,520,18,Woman,Right,
,,,,,,,,,,,,,,,,,520,18,Woman,Right,5,76,0.15,1,0,-,180,0.08596830000169575,['y'],0.30334339999535587,1.654,2383.1108791000006,,,,,520,18,Woman,Right,
,,,,,,,,,,,,,,,,,520,18,Woman,Right,5,61,0.15,2,0,180,180,0.1791573000009521,['n'],0.25611080000089714,1.6,2386.094107099998,,,,,520,18,Woman,Right,
,,,,,,,,,,,,,,,,,520,18,Woman,Right,5,51,0.15,2,180,0,0,0.14861009999731323,['n'],0.6315511000066181,1.6280000000000001,2389.661805900003,,,,,520,18,Woman,Right,
,,,,,,,,,,,,,,,,,520,18,Woman,Right,5,50,0.15,1,180,-,180,0.01659980000113137,['n'],0.20933209999930114,1.542,2392.0608342999985,,,,,520,18,Woman,Right,
,,,,,,,,,,,,,,,,,520,18,Woman,Right,5,17,0.4,2,0,180,0,0.0844617000038852,['n'],0.6639577000023564,1.568,2395.7277267000027,,,,,520,18,Woman,Right,
,,,,,,,,,,,,,,,,,520,18,Woman,Right,5,70,0.15,1,180,-,0,0.016732000003685243,['n'],0.5013040999983787,1.568,2398.394120900004,,,,,520,18,Woman,Right,
,,,,,,,,,,,,,,,,,520,18,Woman,Right,5,23,0.4,2,180,0,180,0.5045967000041855,['n'],0.8160374999933993,1.568,2401.8773102999985,,,,,520,18,Woman,Right,
,,,,,,,,,,,,,,,,,520,18,Woman,Right,5,63,0.15,2,180,0,0,0.016639300003589597,['n'],0.330066499998793,1.568,2404.5443385000035,,,,,520,18,Woman,Right,
,,,,,,,,,,,,,,,,,520,18,Woman,Right,5,2,1,1,180,-,180,0.30974020000576274,['y'],0.7997276000023703,1.568,2407.944458500002,,,,,520,18,Woman,Right,
,,,,,,,,,,,,,,,,,520,18,Woman,Right,5,59,0.15,2,180,0,180,0.08392680000542896,['n'],1.040036999998847,1.568,2411.544723500003,,,,,520,18,Woman,Right,
,,,,,,,,,,,,,,,,,520,18,Woman,Right,5,71,0.15,2,180,0,180,0.28509540000231937,['n'],1.1281394000034197,1.54,2415.745660300003,,,,,520,18,Woman,Right,
,,,,,,,,,,,,,,,,,520,18,Woman,Right,5,29,0.4,2,0,180,180,0.7695268999959808,['y'],0.37555560000328114,1.5979999999999999,2419.8944857000024,,,,,520,18,Woman,Right,
,,,,,,,,,,,,,,,,,520,18,Woman,Right,5,33,0.4,2,0,180,180,0.016668800002662465,['y'],0.8363320999997086,1.436,2423.3440550000014,,,,,520,18,Woman,Right,
,,,,,,,,,,,,,,,,,520,18,Woman,Right,5,20,0.4,1,0,-,180,0.265128500002902,['n'],0.23154839999915566,1.436,2426.261570900002,,,,,520,18,Woman,Right,
,,,,,,,,,,,,,,,,,520,18,Woman,Right,5,36,0.4,1,0,-,180,0.016639499997836538,['n'],3.1195378999982495,1.5899999999999999,2432.1437904999984,,,,,520,18,Woman,Right,
,,,,,,,,,,,,,,,,,520,18,Woman,Right,5,46,0.15,1,180,-,180,0.01665379999758443,['n'],0.5914037999973516,1.5819999999999999,2436.5103241000033,,,,,520,18,Woman,Right,
,,,,,,,,,,,,,,,,,520,18,Woman,Right,5,24,0.4,1,0,-,180,0.07575400000496302,['n'],0.11996619999990799,1.6019999999999999,2438.8771656000026,,,,,520,18,Woman,Right,
,,,,,,,,,,,,,,,,,520,18,Woman,Right,5,10,0.4,1,180,-,180,0.720192799999495,['n'],0.6560032999987016,1.512,2442.3604629000038,,,,,520,18,Woman,Right,
,,,,,,,,,,,,,,,,,520,18,Woman,Right,5,48,0.15,1,0,-,180,0.2881783999982872,['n'],0.4959322000067914,1.454,2445.7602936999974,,,,,520,18,Woman,Right,
,,,,,,,,,,,,,,,,,520,18,Woman,Right,5,74,0.15,1,180,-,0,0.275580199995602,['n'],0.3359827999956906,1.46,2448.593614700003,,,,,520,18,Woman,Right,
,,,,,,,,,,,,,,,,,520,18,Woman,Right,5,52,0.15,1,0,-,0,0.8598886000036146,['n'],0.3596266000022297,1.53,2452.0435480000015,,,,,520,18,Woman,Right,
,,,,,,,,,,,,,,,,,520,18,Woman,Right,5,7,1,2,180,0,180,0.016714400000637397,['n'],0.07853549999708775,1.538,2454.443574500001,,,,,520,18,Woman,Right,
,,,,,,,,,,,,,,,,,520,18,Woman,Right,5,53,0.15,2,0,180,0,0.1509734000064782,['n'],0.2798350999946706,1.538,2459.1438208000036,,,,,520,18,Woman,Right,
,,,,,,,,,,,,,,,,,520,18,Woman,Right,5,34,0.4,1,180,-,180,0.4760963000007905,['n'],0.039465200003178325,1.54,2462.1767752000014,,,,,520,18,Woman,Right,
,,,,,,,,,,,,,,,,,520,18,Woman,Right,5,45,0.15,2,0,180,180,0.21056279999902472,['n'],0.5840677000014693,1.544,2465.060155899999,,,,,520,18,Woman,Right,
,,,,,,,,,,,,,,,,,520,18,Woman,Right,5,14,0.4,1,180,-,0,0.4261098999995738,['y'],1.3037028000035207,1.338,2469.6943017000012,,,,,520,18,Woman,Right,
,,,,,,,,,,,,,,,,,520,18,Woman,Right,5,0,1,1,0,-,0,0.09851480000361335,['n'],0.9517747999998392,1.428,2472.843239499998,,,,,520,18,Woman,Right,
,,,,,,,,,,,,,,,,,520,18,Woman,Right,5,28,0.4,1,0,-,180,0.07793169999786187,['n'],0.4239633000033791,1.428,2475.4433910000007,,,,,520,18,Woman,Right,
,,,,,,,,,,,,,,,,,520,18,Woman,Right,5,69,0.15,2,0,180,180,0.2684942000050796,['n'],0.22394689999782713,1.428,2478.0765679000033,,,,,520,18,Woman,Right,
,,,,,,,,,,,,,,,,,520,18,Woman,Right,5,64,0.15,1,0,-,180,0.08141569999861531,['n'],0.17601819999981672,1.428,2480.5099778000003,,,,,520,18,Woman,Right,
,,,,,,,,,,,,,,,,,520,18,Woman,Right,5,32,0.4,1,0,-,180,0.06373849999363301,['n'],0.2560474999991129,1.428,2483.0265996000016,,,,,520,18,Woman,Right,
,,,,,,,,,,,,,,,,,,,,,,,,,,,,,,,,,53.75,77.5,35.0,2065.744488299999,,,,,
