p_block,p_section,p_coherence,p_direction1,p_direction2,p_direction_response,p_direction_RT,p_change_response,p_change_RT,p_confidence,p_full_correct,p_without5_correct,p_full_total,p_without5_total,p_full_avg,p_witout5_avg,p_total_time,sub,age,sex,handedness,loop,trial randomization,coherence,condition,direction1,direction2,direction_response,direction_RT,change_response,change_RT,change_confidence,change_confidence_RT,block_direction_avg,block_stable_avg,block_change_avg,total_time,sub,age,sex,handedness,
1,1,1.0,0,-,0,2.297775200000615,-,-,-,,,,,,,,510,19,Woman,Right,,,,,,,,,,,,,,,,,510,19,Woman,Right,
1,1,1.0,180,-,180,0.01662699999724282,-,-,-,,,,,,,,510,19,Woman,Right,,,,,,,,,,,,,,,,,510,19,Woman,Right,
1,1,1.0,180,-,180,0.09028020000550896,-,-,-,,,,,,,,510,19,Woman,Right,,,,,,,,,,,,,,,,,510,19,Woman,Right,
1,1,1.0,180,-,180,0.03018090000114171,-,-,-,,,,,,,,510,19,Woman,Right,,,,,,,,,,,,,,,,,510,19,Woman,Right,
1,1,1.0,180,-,180,4.253384700001334,-,-,-,,,,,,,,510,19,Woman,Right,,,,,,,,,,,,,,,,,510,19,Woman,Right,
1,1,1.0,180,-,180,0.44685649999883026,-,-,-,,,,,,,,510,19,Woman,Right,,,,,,,,,,,,,,,,,510,19,Woman,Right,
1,1,1.0,0,-,0,0.01656679999723565,-,-,-,,,,,,,,510,19,Woman,Right,,,,,,,,,,,,,,,,,510,19,Woman,Right,
1,1,1.0,180,-,180,0.2758324000024004,-,-,-,,,,,,,,510,19,Woman,Right,,,,,,,,,,,,,,,,,510,19,Woman,Right,
1,1,1.0,180,-,180,0.3833654999980354,-,-,-,,,,,,,,510,19,Woman,Right,,,,,,,,,,,,,,,,,510,19,Woman,Right,
1,1,1.0,180,-,180,0.29603660000429954,-,-,-,10,10,10,10,1.0,1.0,,510,19,Woman,Right,,,,,,,,,,,,,,,,,510,19,Woman,Right,
2,1,0.4,180,-,180,0.596861700003501,-,-,-,,,,,,,,510,19,Woman,Right,,,,,,,,,,,,,,,,,510,19,Woman,Right,
2,1,0.4,180,-,180,0.21205200000258628,-,-,-,,,,,,,,510,19,Woman,Right,,,,,,,,,,,,,,,,,510,19,Woman,Right,
2,1,0.4,180,-,0,0.4194047000055434,-,-,-,,,,,,,,510,19,Woman,Right,,,,,,,,,,,,,,,,,510,19,Woman,Right,
2,1,0.15,0,-,0,1.1455801000047359,-,-,-,,,,,,,,510,19,Woman,Right,,,,,,,,,,,,,,,,,510,19,Woman,Right,
2,1,0.15,0,-,180,0.7003996000057668,-,-,-,,,,,,,,510,19,Woman,Right,,,,,,,,,,,,,,,,,510,19,Woman,Right,
2,1,0.4,180,-,180,0.21371450000151526,-,-,-,,,,,,,,510,19,Woman,Right,,,,,,,,,,,,,,,,,510,19,Woman,Right,
2,1,0.15,0,-,0,0.24448259999917354,-,-,-,,,,,,,,510,19,Woman,Right,,,,,,,,,,,,,,,,,510,19,Woman,Right,
2,1,0.4,0,-,0,0.3835077999974601,-,-,-,,,,,,,,510,19,Woman,Right,,,,,,,,,,,,,,,,,510,19,Woman,Right,
2,1,0.15,0,-,180,0.4346905999991577,-,-,-,,,,,,,,510,19,Woman,Right,,,,,,,,,,,,,,,,,510,19,Woman,Right,
2,1,0.15,180,-,180,0.17665220000344561,-,-,-,7,4,10,5,0.7,0.8,,510,19,Woman,Right,,,,,,,,,,,,,,,,,510,19,Woman,Right,
3,2,1.0,180,0,0,2.2710978999966756,['y'],4.732319700000517,2,,,,,,,,510,19,Woman,Right,,,,,,,,,,,,,,,,,510,19,Woman,Right,
3,2,1.0,180,0,0,1.3717757999984315,['y'],3.0209977999984403,2.0,,,,,,,,510,19,Woman,Right,,,,,,,,,,,,,,,,,510,19,Woman,Right,
3,2,1.0,0,180,180,1.0899996999942232,['y'],1.3211874999979045,2.0,,,,,,,,510,19,Woman,Right,,,,,,,,,,,,,,,,,510,19,Woman,Right,
3,2,1.0,0,180,180,0.9469636000067112,['y'],1.0473047999985283,2.0,,,,,,,,510,19,Woman,Right,,,,,,,,,,,,,,,,,510,19,Woman,Right,
3,2,1.0,180,0,0,0.9715332000050694,['y'],0.31058150000171736,2.0,,,,,,,,510,19,Woman,Right,,,,,,,,,,,,,,,,,510,19,Woman,Right,
3,2,1.0,180,0,0,0.602128200000152,['y'],0.4442834000001312,2.0,,,,,,,,510,19,Woman,Right,,,,,,,,,,,,,,,,,510,19,Woman,Right,
3,2,1.0,180,0,0,0.5030421999981627,['y'],0.549393000001146,2.0,,,,,,,,510,19,Woman,Right,,,,,,,,,,,,,,,,,510,19,Woman,Right,
3,2,1.0,0,180,180,0.9305210000020452,['y'],0.2713203000021167,2.0,,,,,,,,510,19,Woman,Right,,,,,,,,,,,,,,,,,510,19,Woman,Right,
3,2,1.0,180,0,0,0.4687100000010105,['y'],0.44390800000110175,2.0,,,,,,,,510,19,Woman,Right,,,,,,,,,,,,,,,,,510,19,Woman,Right,
3,2,1.0,180,0,0,0.6012558000002173,['y'],0.3188661999956821,2.0,10,10,10,10,1.0,1.0,,510,19,Woman,Right,,,,,,,,,,,,,,,,,510,19,Woman,Right,
4,2,0.15,0,180,180,1.8480551999964518,['y'],0.872048299999733,1.732,,,,,,,,510,19,Woman,Right,,,,,,,,,,,,,,,,,510,19,Woman,Right,
4,2,0.15,180,0,0,1.3424422000025515,['y'],6.4181163999965065,1.55,,,,,,,,510,19,Woman,Right,,,,,,,,,,,,,,,,,510,19,Woman,Right,
4,2,0.4,180,0,0,0.8949830999990809,['y'],0.3008253000007244,1.8860000000000001,,,,,,,,510,19,Woman,Right,,,,,,,,,,,,,,,,,510,19,Woman,Right,
4,2,0.4,180,0,0,2.530042300000787,['y'],0.3014446000015596,1.764,,,,,,,,510,19,Woman,Right,,,,,,,,,,,,,,,,,510,19,Woman,Right,
4,2,0.15,180,0,0,1.8158637000015005,['y'],0.24862299999949755,1.686,,,,,,,,510,19,Woman,Right,,,,,,,,,,,,,,,,,510,19,Woman,Right,
4,2,0.15,180,0,0,3.6437819999991916,['y'],1.0091836999999941,1.532,,,,,,,,510,19,Woman,Right,,,,,,,,,,,,,,,,,510,19,Woman,Right,
4,2,0.15,0,180,180,2.400783199998841,['y'],1.040273900005559,1.56,,,,,,,,510,19,Woman,Right,,,,,,,,,,,,,,,,,510,19,Woman,Right,
4,2,0.4,0,180,180,0.754387000000861,['y'],1.0382691999984672,1.6,,,,,,,,510,19,Woman,Right,,,,,,,,,,,,,,,,,510,19,Woman,Right,
4,2,0.15,180,0,0,2.4022374999985914,['y'],0.9303805999952601,1.568,,,,,,,,510,19,Woman,Right,,,,,,,,,,,,,,,,,510,19,Woman,Right,
4,2,0.15,180,0,180,2.757311399996979,['y'],0.9265589999995427,1.512,9,3,10,3,0.9,1.0,,510,19,Woman,Right,,,,,,,,,,,,,,,,,510,19,Woman,Right,
5,3,0.4,0,180,180,0.8375431000022218,['y'],0.4529857000015909,1.6320000000000001,,,,,,,,510,19,Woman,Right,,,,,,,,,,,,,,,,,510,19,Woman,Right,
5,3,0.4,0,180,0,1.8574652999959653,['y'],1.1767361000020173,1.544,,,,,,,,510,19,Woman,Right,,,,,,,,,,,,,,,,,510,19,Woman,Right,
5,3,0.15,0,-,180,1.9456256000048597,['y'],0.8769504000010784,1.542,,,,,,,,510,19,Woman,Right,,,,,,,,,,,,,,,,,510,19,Woman,Right,
5,3,0.4,180,0,180,1.814441499998793,['y'],1.8316044000021066,1.536,,,,,,,,510,19,Woman,Right,,,,,,,,,,,,,,,,,510,19,Woman,Right,
5,3,0.4,180,-,180,2.156169100002444,['y'],0.8703212999971583,1.53,,,,,,,,510,19,Woman,Right,,,,,,,,,,,,,,,,,510,19,Woman,Right,
5,3,1.0,0,180,180,2.0696948999975575,['y'],0.09186069999850588,1.934,,,,,,,,510,19,Woman,Right,,,,,,,,,,,,,,,,,510,19,Woman,Right,
5,3,0.15,0,-,0,0.6000490000005811,['n'],7.050307800003793,1.6179999999999999,,,,,,,,510,19,Woman,Right,,,,,,,,,,,,,,,,,510,19,Woman,Right,
5,3,0.4,0,180,180,2.5158468000008725,['y'],1.1752492000014172,1.572,,,,,,,,510,19,Woman,Right,,,,,,,,,,,,,,,,,510,19,Woman,Right,
5,3,1.0,0,-,0,0.7219425000002957,['n'],0.34915050000563497,1.572,,,,,,,,510,19,Woman,Right,,,,,,,,,,,,,,,,,510,19,Woman,Right,
5,3,0.4,0,180,180,0.6841505000047619,['y'],0.39378080000460614,1.634,,,,,,,,510,19,Woman,Right,,,,,,,,,,,,,,,,,510,19,Woman,Right,
5,3,0.15,180,-,180,2.1351327000011224,['n'],0.41932120000274153,1.572,,,,,,,,510,19,Woman,Right,,,,,,,,,,,,,,,,,510,19,Woman,Right,
5,3,0.15,180,0,180,0.8511996000015642,['n'],0.742457899999863,1.576,,,,,,,,510,19,Woman,Right,,,,,,,,,,,,,,,,,510,19,Woman,Right,
5,3,1.0,180,0,0,1.130511099996511,['y'],3.2000019999977667,1.74,,,,,,,,510,19,Woman,Right,,,,,,,,,,,,,,,,,510,19,Woman,Right,
5,3,0.4,180,-,180,0.8465515999996569,['n'],1.8545036000068649,1.568,,,,,,,,510,19,Woman,Right,,,,,,,,,,,,,,,,,510,19,Woman,Right,
5,3,0.15,0,180,0,1.8288514000014402,['n'],0.3162827999985893,1.54,,,,,,,,510,19,Woman,Right,,,,,,,,,,,,,,,,,510,19,Woman,Right,
5,3,1.0,180,-,180,1.0905348000014783,['y'],0.5214943000028143,1.6680000000000001,,,,,,,,510,19,Woman,Right,,,,,,,,,,,,,,,,,510,19,Woman,Right,
5,3,0.4,0,-,0,1.221360099996673,['n'],1.9739779999945313,1.6,,,,,,,,510,19,Woman,Right,,,,,,,,,,,,,,,,,510,19,Woman,Right,
5,3,1.0,180,0,0,0.642411999993783,['y'],1.9460298999983934,1.6440000000000001,,,,,,,,510,19,Woman,Right,,,,,,,,,,,,,,,,,510,19,Woman,Right,
5,3,0.4,180,-,180,0.93458069999906,['n'],0.40221130000281846,1.572,,,,,,,,510,19,Woman,Right,,,,,,,,,,,,,,,,,510,19,Woman,Right,
5,3,0.4,0,180,180,0.7380071000006865,['y'],0.6143364000017755,1.568,8,7,10,7,0.8,1.0,,510,19,Woman,Right,,,,,,,,,,,,,,,,,510,19,Woman,Right,
,,,,,,,,,,,,,,,,6.199996278155595e-06,510,19,Woman,Right,,,,,,,,,,,,,,,,,510,19,Woman,Right,
,,,,,,,,,,,,,,,,,510,19,Woman,Right,0,4,1,1,0,-,0,0.6769847000032314,['y'],2.447750899998937,1.642,422.9377084000007,,,,,510,19,Woman,Right,
,,,,,,,,,,,,,,,,,510,19,Woman,Right,0,3,1,2,180,0,0,1.0882309000007808,['y'],1.0717210000002524,1.874,428.37654000000475,,,,,510,19,Woman,Right,
,,,,,,,,,,,,,,,,,510,19,Woman,Right,0,11,0.4,2,180,0,0,0.7909140999981901,['y'],0.7353790000051958,1.8559999999999999,432.863511800002,,,,,510,19,Woman,Right,
,,,,,,,,,,,,,,,,,510,19,Woman,Right,0,31,0.4,2,180,0,0,0.751070799997251,['y'],1.2159023999993224,1.702,438.802786500004,,,,,510,19,Woman,Right,
,,,,,,,,,,,,,,,,,510,19,Woman,Right,0,15,0.4,2,180,0,0,1.001183400003356,['y'],0.5608091999965836,1.5939999999999999,443.373897700003,,,,,510,19,Woman,Right,
,,,,,,,,,,,,,,,,,510,19,Woman,Right,0,71,0.15,2,180,0,0,7.986507299996447,['n'],1.3762715000048047,1.566,456.23670180000045,,,,,510,19,Woman,Right,
,,,,,,,,,,,,,,,,,510,19,Woman,Right,0,35,0.4,2,180,0,180,1.0736656000008225,['y'],5.7918682000017725,1.566,466.2132841000057,,,,,510,19,Woman,Right,
,,,,,,,,,,,,,,,,,510,19,Woman,Right,0,68,0.15,1,0,-,0,4.472200399999565,['n'],0.8320024000058766,1.51,474.77241750000394,,,,,510,19,Woman,Right,
,,,,,,,,,,,,,,,,,510,19,Woman,Right,0,26,0.4,1,180,-,180,2.795931999993627,['n'],0.8317281999989063,1.504,481.11217050000414,,,,,510,19,Woman,Right,
,,,,,,,,,,,,,,,,,510,19,Woman,Right,0,40,0.4,1,0,-,0,1.9622755000018515,['n'],0.3912261000004946,1.54,487.06718730000284,,,,,510,19,Woman,Right,
,,,,,,,,,,,,,,,,,510,19,Woman,Right,0,60,0.15,1,0,-,0,1.7573000000047614,['n'],3.7275909999953,1.534,496.44337920000544,,,,,510,19,Woman,Right,
,,,,,,,,,,,,,,,,,510,19,Woman,Right,0,22,0.4,1,180,-,180,1.0448256999952719,['n'],1.5602702999967732,1.534,501.76535010000225,,,,,510,19,Woman,Right,
,,,,,,,,,,,,,,,,,510,19,Woman,Right,0,73,0.15,2,0,180,0,0.8517415999958757,['n'],0.879618400002073,1.532,507.1882307000051,,,,,510,19,Woman,Right,
,,,,,,,,,,,,,,,,,510,19,Woman,Right,0,70,0.15,1,180,-,180,5.763152999999875,['n'],0.8082370000047376,1.532,516.5306354999993,,,,,510,19,Woman,Right,
,,,,,,,,,,,,,,,,,510,19,Woman,Right,0,37,0.4,2,0,180,180,1.4664880999989691,['y'],0.9757621999960975,1.604,522.6367247000017,,,,,510,19,Woman,Right,
,,,,,,,,,,,,,,,,,510,19,Woman,Right,0,2,1,1,180,-,180,1.7144568000003346,['n'],0.8796560999981011,1.6600000000000001,528.7586708000017,,,,,510,19,Woman,Right,
,,,,,,,,,,,,,,,,,510,19,Woman,Right,0,49,0.15,2,0,180,0,3.6352004000000306,['n'],1.158939700006158,1.564,536.2500338000027,,,,,510,19,Woman,Right,
,,,,,,,,,,,,,,,,,510,19,Woman,Right,0,78,0.15,1,180,-,180,2.9722571999955107,['n'],0.6634622999990825,1.546,543.2229838000057,,,,,510,19,Woman,Right,
,,,,,,,,,,,,,,,,,510,19,Woman,Right,0,62,0.15,1,180,-,180,7.0666382999988855,['y'],1.7914526000022306,1.536,555.5022902000055,,,,,510,19,Woman,Right,
,,,,,,,,,,,,,,,,,510,19,Woman,Right,0,16,0.4,1,0,-,180,3.6032938999996986,['y'],0.7541198000035365,1.536,562.4430949000016,,,,,510,19,Woman,Right,
,,,,,,,,,,,,,,,,,510,19,Woman,Right,0,14,0.4,1,180,-,180,5.440375599995605,['n'],1.2317706999965594,1.548,572.8859054000059,,,,,510,19,Woman,Right,
,,,,,,,,,,,,,,,,,510,19,Woman,Right,0,13,0.4,2,0,180,180,1.7304440000007162,['y'],1.728060399997048,1.6560000000000001,580.0097339999993,,,,,510,19,Woman,Right,
,,,,,,,,,,,,,,,,,510,19,Woman,Right,0,52,0.15,1,0,-,180,0.9478794000024209,['y'],0.9913929999966058,1.5899999999999999,584.5140538000051,,,,,510,19,Woman,Right,
,,,,,,,,,,,,,,,,,510,19,Woman,Right,0,20,0.4,1,0,-,180,1.2522134000028018,['y'],1.391685899994627,1.5779999999999998,590.5708659000011,,,,,510,19,Woman,Right,
,,,,,,,,,,,,,,,,,510,19,Woman,Right,0,64,0.15,1,0,-,180,0.7612097000019276,['y'],1.103604500000074,1.576,595.3248366000043,,,,,510,19,Woman,Right,
,,,,,,,,,,,,,,,,,510,19,Woman,Right,0,66,0.15,1,180,-,0,2.861758599996392,['y'],1.647776800004067,1.518,602.8991625000053,,,,,510,19,Woman,Right,
,,,,,,,,,,,,,,,,,510,19,Woman,Right,0,54,0.15,1,180,-,0,2.369523699999263,['y'],1.8064511999982642,1.498,609.9562271000032,,,,,510,19,Woman,Right,
,,,,,,,,,,,,,,,,,510,19,Woman,Right,0,63,0.15,2,180,0,180,4.437527200003387,['y'],3.287500300000829,1.192,621.1337779000023,,,,,510,19,Woman,Right,
,,,,,,,,,,,,,,,,,510,19,Woman,Right,0,28,0.4,1,0,-,180,2.1140048000015668,['n'],1.4473661999945762,1.3860000000000001,627.4233874000056,,,,,510,19,Woman,Right,
,,,,,,,,,,,,,,,,,510,19,Woman,Right,0,58,0.15,1,180,-,0,1.705045800001244,['y'],1.6405367999977898,1.456,637.033271799999,,,,,510,19,Woman,Right,
,,,,,,,,,,,,,,,,,510,19,Woman,Right,0,32,0.4,1,0,-,0,1.5874264000012772,['n'],1.711765000000014,1.576,644.1900519000046,,,,,510,19,Woman,Right,
,,,,,,,,,,,,,,,,,510,19,Woman,Right,0,29,0.4,2,0,180,0,1.614854400002514,['y'],0.9122407000031671,1.58,650.0966884000009,,,,,510,19,Woman,Right,
,,,,,,,,,,,,,,,,,510,19,Woman,Right,0,56,0.15,1,0,-,0,1.705779199997778,['n'],2.719465800000762,1.43,657.2196238000033,,,,,510,19,Woman,Right,
,,,,,,,,,,,,,,,,,510,19,Woman,Right,0,69,0.15,2,0,180,180,1.7671373999983189,['y'],1.711383300003945,1.416,663.3765902000014,,,,,510,19,Woman,Right,
,,,,,,,,,,,,,,,,,510,19,Woman,Right,0,12,0.4,1,0,-,0,0.8469245999949635,['n'],3.703125899999577,1.196,670.6670532999997,,,,,510,19,Woman,Right,
,,,,,,,,,,,,,,,,,510,19,Woman,Right,0,45,0.15,2,0,180,180,1.048235400005069,['y'],1.0396326999980374,1.522,676.839049400005,,,,,510,19,Woman,Right,
,,,,,,,,,,,,,,,,,510,19,Woman,Right,0,79,0.15,2,180,0,0,2.1690903999988222,['y'],0.7322617999961949,1.436,683.5132293000061,,,,,510,19,Woman,Right,
,,,,,,,,,,,,,,,,,510,19,Woman,Right,0,65,0.15,2,0,180,0,3.1095535999993444,['n'],2.87150620000466,1.432,692.5046587000033,,,,,510,19,Woman,Right,
,,,,,,,,,,,,,,,,,510,19,Woman,Right,0,24,0.4,1,0,-,180,1.774681499999133,['y'],2.7837059999947087,1.534,702.5813177000018,,,,,510,19,Woman,Right,
,,,,,,,,,,,,,,,,,510,19,Woman,Right,0,17,0.4,2,0,180,180,1.0266081000008853,['y'],1.0235511000064434,1.646,707.6030102000004,,,,,510,19,Woman,Right,
,,,,,,,,,,,,,,,,,510,19,Woman,Right,0,18,0.4,1,180,-,180,1.1690850000013597,['n'],0.7431724000052782,1.56,712.441086800005,,,,,510,19,Woman,Right,
,,,,,,,,,,,,,,,,,510,19,Woman,Right,0,42,0.4,1,180,-,180,2.6562114999978803,['y'],2.8870475000003353,1.534,720.9996571000011,,,,,510,19,Woman,Right,
,,,,,,,,,,,,,,,,,510,19,Woman,Right,0,0,1,1,0,-,0,0.8665424999999232,['n'],0.9520066999975825,1.688,725.687823500004,,,,,510,19,Woman,Right,
,,,,,,,,,,,,,,,,,510,19,Woman,Right,0,75,0.15,2,180,0,180,2.526535299999523,['n'],1.263326300002518,1.44,732.3943791000056,,,,,510,19,Woman,Right,
,,,,,,,,,,,,,,,,,510,19,Woman,Right,0,9,0.4,2,0,180,180,0.785125499998685,['y'],0.8869690999999875,1.558,737.5501134000006,,,,,510,19,Woman,Right,
,,,,,,,,,,,,,,,,,510,19,Woman,Right,0,38,0.4,1,180,-,180,0.5753089999998338,['n'],0.8475177000000258,1.738,741.9537363000054,,,,,510,19,Woman,Right,
,,,,,,,,,,,,,,,,,510,19,Woman,Right,0,34,0.4,1,180,-,0,0.419978899997659,['y'],2.879880899999989,1.568,748.3277279000031,,,,,510,19,Woman,Right,
,,,,,,,,,,,,,,,,,510,19,Woman,Right,0,59,0.15,2,180,0,180,1.965517299999192,['y'],0.8397585000057006,1.562,753.7155161000046,,,,,510,19,Woman,Right,
,,,,,,,,,,,,,,,,,510,19,Woman,Right,0,19,0.4,2,180,0,0,0.5653665999998339,['y'],0.6720062999957008,1.558,757.7699639000057,,,,,510,19,Woman,Right,
,,,,,,,,,,,,,,,,,510,19,Woman,Right,0,51,0.15,2,180,0,0,2.859476199999335,['y'],1.455862499999057,1.558,765.6454710000035,,,,,510,19,Woman,Right,
,,,,,,,,,,,,,,,,,510,19,Woman,Right,0,48,0.15,1,0,-,180,2.9108607999951346,['y'],0.8237638999999035,1.432,773.202543200001,,,,,510,19,Woman,Right,
,,,,,,,,,,,,,,,,,510,19,Woman,Right,0,1,1,2,0,180,180,0.6484788000016124,['y'],1.8233075000025565,1.71,778.2906548000028,,,,,510,19,Woman,Right,
,,,,,,,,,,,,,,,,,510,19,Woman,Right,0,25,0.4,2,0,180,180,3.493987499998184,['y'],1.0395318000009866,1.6600000000000001,785.6141510000016,,,,,510,19,Woman,Right,
,,,,,,,,,,,,,,,,,510,19,Woman,Right,0,72,0.15,1,0,-,180,5.518914400003268,['y'],3.3279620000030263,1.46,798.2930574000056,,,,,510,19,Woman,Right,
,,,,,,,,,,,,,,,,,510,19,Woman,Right,0,76,0.15,1,0,-,180,3.7882691999984672,['n'],0.9434567999996943,1.3319999999999999,806.8849778000003,,,,,510,19,Woman,Right,
,,,,,,,,,,,,,,,,,510,19,Woman,Right,0,41,0.4,2,0,180,180,0.9483763000025647,['y'],0.9831894000017201,1.634,811.8579922000063,,,,,510,19,Woman,Right,
,,,,,,,,,,,,,,,,,510,19,Woman,Right,0,23,0.4,2,180,0,0,1.0350610000023153,['y'],0.7994289000052959,1.624,816.8113850000009,,,,,510,19,Woman,Right,
,,,,,,,,,,,,,,,,,510,19,Woman,Right,0,55,0.15,2,180,0,0,1.484462699998403,['y'],1.7514738000027137,1.5939999999999999,823.1018227000022,,,,,510,19,Woman,Right,
,,,,,,,,,,,,,,,,,510,19,Woman,Right,0,74,0.15,1,180,-,0,3.5503475000004983,['y'],0.791077599998971,1.436,830.0086239000011,,,,,510,19,Woman,Right,
,,,,,,,,,,,,,,,,,510,19,Woman,Right,0,67,0.15,2,180,0,180,0.9094436000013957,['n'],0.847637200000463,1.436,834.762569700004,,,,,510,19,Woman,Right,
,,,,,,,,,,,,,,,,,510,19,Woman,Right,0,30,0.4,1,180,-,180,0.6457813000015449,['n'],0.9353970000011032,1.548,839.0334997000027,,,,,510,19,Woman,Right,
,,,,,,,,,,,,,,,,,510,19,Woman,Right,0,57,0.15,2,0,180,0,2.5494762000016635,['n'],2.1442401000022073,1.53,847.5753632000051,,,,,510,19,Woman,Right,
,,,,,,,,,,,,,,,,,510,19,Woman,Right,0,7,1,2,180,0,0,1.1133735999974306,['y'],1.487762400000065,1.972,853.2643093000006,,,,,510,19,Woman,Right,
,,,,,,,,,,,,,,,,,510,19,Woman,Right,0,39,0.4,2,180,0,0,1.6021936000033747,['y'],1.7593188999962877,1.8679999999999999,860.1877884999994,,,,,510,19,Woman,Right,
,,,,,,,,,,,,,,,,,510,19,Woman,Right,0,53,0.15,2,0,180,0,1.8221517999991192,['n'],0.5596670000013546,1.54,866.4793198000043,,,,,510,19,Woman,Right,
,,,,,,,,,,,,,,,,,510,19,Woman,Right,0,61,0.15,2,0,180,180,4.606399699994654,['y'],0.9595574999984819,1.472,875.3700673999992,,,,,510,19,Woman,Right,
,,,,,,,,,,,,,,,,,510,19,Woman,Right,0,27,0.4,2,180,0,0,0.43400040000415174,['n'],0.9201762000011513,1.654,880.4422029000052,,,,,510,19,Woman,Right,
,,,,,,,,,,,,,,,,,510,19,Woman,Right,0,36,0.4,1,0,-,0,1.0061117999939597,['n'],1.0315718999991077,1.5819999999999999,885.079369900006,,,,,510,19,Woman,Right,
,,,,,,,,,,,,,,,,,510,19,Woman,Right,0,6,1,1,180,-,180,1.1807283999951323,['n'],0.4314217999999528,1.592,889.5177433999997,,,,,510,19,Woman,Right,
,,,,,,,,,,,,,,,,,510,19,Woman,Right,0,5,1,2,0,180,180,0.7491870000012568,['y'],0.7516419000021415,1.716,895.0057798000053,,,,,510,19,Woman,Right,
,,,,,,,,,,,,,,,,,510,19,Woman,Right,0,77,0.15,2,0,180,0,1.335294199998316,['n'],1.3193404999983613,1.508,901.1790621000036,,,,,510,19,Woman,Right,
,,,,,,,,,,,,,,,,,510,19,Woman,Right,0,44,0.15,1,0,-,180,3.9887519999974757,['y'],1.6554535000032047,1.21,909.8712343000007,,,,,510,19,Woman,Right,
,,,,,,,,,,,,,,,,,510,19,Woman,Right,0,43,0.4,2,180,0,0,0.9357262999983504,['y'],0.8798492999994778,1.6440000000000001,914.8923505999992,,,,,510,19,Woman,Right,
,,,,,,,,,,,,,,,,,510,19,Woman,Right,0,46,0.15,1,180,-,0,0.9436672000010731,['y'],1.0715720000007423,1.53,920.7990176000021,,,,,510,19,Woman,Right,
,,,,,,,,,,,,,,,,,510,19,Woman,Right,0,50,0.15,1,180,-,180,2.3620774999944842,['n'],2.863554200004728,1.374,929.5068364000035,,,,,510,19,Woman,Right,
,,,,,,,,,,,,,,,,,510,19,Woman,Right,0,10,0.4,1,180,-,0,1.0385624000045937,['y'],5.288174400004209,1.518,940.1839458000031,,,,,510,19,Woman,Right,
,,,,,,,,,,,,,,,,,510,19,Woman,Right,0,8,0.4,1,0,-,0,1.239688900001056,['n'],0.6077586000028532,1.53,945.0895268000022,,,,,510,19,Woman,Right,
,,,,,,,,,,,,,,,,,510,19,Woman,Right,0,21,0.4,2,0,180,180,1.0793331999957445,['y'],1.2398807999998098,1.592,950.0103120999993,,,,,510,19,Woman,Right,
,,,,,,,,,,,,,,,,,510,19,Woman,Right,0,33,0.4,2,0,180,180,0.899677100002009,['y'],1.0873824000009336,1.684,954.5316371000008,,,,,510,19,Woman,Right,
,,,,,,,,,,,,,,,,,510,19,Woman,Right,0,47,0.15,2,180,0,0,2.542020599998068,['n'],1.1351885000040056,1.0,961.2215638000052,,,,,510,19,Woman,Right,
,,,,,,,,,,,,,,,,,510,19,Woman,Right,1,9,0.4,2,0,180,180,1.112498800001049,['y'],3.9031700999985333,1.478,980.1736001000027,63.75,55.0,72.5,,510,19,Woman,Right,
,,,,,,,,,,,,,,,,,510,19,Woman,Right,1,42,0.4,1,180,-,0,0.4698447999980999,['n'],5.664100800000597,1.444,990.4186541000017,,,,,510,19,Woman,Right,
,,,,,,,,,,,,,,,,,510,19,Woman,Right,1,22,0.4,1,180,-,0,0.5863878999953158,['y'],1.415496699999494,1.44,995.0392262000023,,,,,510,19,Woman,Right,
,,,,,,,,,,,,,,,,,510,19,Woman,Right,1,61,0.15,2,0,180,180,1.2129824000003282,['n'],0.9278593999988516,1.446,999.6764490999994,,,,,510,19,Woman,Right,
,,,,,,,,,,,,,,,,,510,19,Woman,Right,1,10,0.4,1,180,-,180,1.3872145999994245,['n'],1.2878877999974065,1.392,1005.6656145000015,,,,,510,19,Woman,Right,
,,,,,,,,,,,,,,,,,510,19,Woman,Right,1,45,0.15,2,0,180,180,1.9632809999966412,['y'],0.6792366000008769,1.444,1011.5717545000007,,,,,510,19,Woman,Right,
,,,,,,,,,,,,,,,,,510,19,Woman,Right,1,48,0.15,1,0,-,0,0.7933818000019528,['n'],2.616052400000626,1.544,1018.5786859,,,,,510,19,Woman,Right,
,,,,,,,,,,,,,,,,,510,19,Woman,Right,1,11,0.4,2,180,0,0,0.9081545999943046,['y'],1.151783199995407,1.684,1023.2667021000016,,,,,510,19,Woman,Right,
,,,,,,,,,,,,,,,,,510,19,Woman,Right,1,23,0.4,2,180,0,0,2.341229999998177,['y'],1.879373099996883,1.74,1030.2900435000047,,,,,510,19,Woman,Right,
,,,,,,,,,,,,,,,,,510,19,Woman,Right,1,51,0.15,2,180,0,180,5.069360200002848,['n'],2.1834828999999445,1.502,1041.367809400006,,,,,510,19,Woman,Right,
,,,,,,,,,,,,,,,,,510,19,Woman,Right,1,36,0.4,1,0,-,0,0.4967199000020628,['n'],0.6395245000021532,1.592,1045.2890754000036,,,,,510,19,Woman,Right,
,,,,,,,,,,,,,,,,,510,19,Woman,Right,1,47,0.15,2,180,0,180,1.3983482000039658,['n'],2.6954311999943457,1.488,1052.4795769000048,,,,,510,19,Woman,Right,
,,,,,,,,,,,,,,,,,510,19,Woman,Right,1,8,0.4,1,0,-,0,1.2406224999940605,['y'],0.7354723999960697,1.546,1057.4340001000019,,,,,510,19,Woman,Right,
,,,,,,,,,,,,,,,,,510,19,Woman,Right,1,69,0.15,2,0,180,180,1.4689587999964715,['y'],1.2158192999995663,1.47,1062.9394372000024,,,,,510,19,Woman,Right,
,,,,,,,,,,,,,,,,,510,19,Woman,Right,1,18,0.4,1,180,-,0,0.7766876000023331,['y'],0.9033525999984704,1.6139999999999999,1068.011632200003,,,,,510,19,Woman,Right,
,,,,,,,,,,,,,,,,,510,19,Woman,Right,1,0,1,1,0,-,0,0.6648803999996744,['n'],0.695710499996494,1.75,1072.966590600001,,,,,510,19,Woman,Right,
,,,,,,,,,,,,,,,,,510,19,Woman,Right,1,50,0.15,1,180,-,0,6.5591826000018045,['n'],1.1274861999991117,1.448,1083.560413900006,,,,,510,19,Woman,Right,
,,,,,,,,,,,,,,,,,510,19,Woman,Right,1,55,0.15,2,180,0,0,0.34945690000313334,['n'],3.5914110000012442,1.5859999999999999,1090.517350400005,,,,,510,19,Woman,Right,
,,,,,,,,,,,,,,,,,510,19,Woman,Right,1,35,0.4,2,180,0,0,2.033334500003548,['y'],1.3836534000001848,1.572,1096.9067999000035,,,,,510,19,Woman,Right,
,,,,,,,,,,,,,,,,,510,19,Woman,Right,1,71,0.15,2,180,0,0,0.5839710000000196,['y'],0.7779426000051899,1.572,1101.0446601000003,,,,,510,19,Woman,Right,
,,,,,,,,,,,,,,,,,510,19,Woman,Right,1,29,0.4,2,0,180,180,0.8890085999955772,['y'],0.6401475000020582,1.78,1105.2984601000062,,,,,510,19,Woman,Right,
,,,,,,,,,,,,,,,,,510,19,Woman,Right,1,32,0.4,1,0,-,0,0.9065476999967359,['n'],0.7120636000036029,1.654,1109.8359548000008,,,,,510,19,Woman,Right,
,,,,,,,,,,,,,,,,,510,19,Woman,Right,1,78,0.15,1,180,-,180,1.2416827999986708,['n'],1.31122179999511,1.3900000000000001,1115.0910595000023,,,,,510,19,Woman,Right,
,,,,,,,,,,,,,,,,,510,19,Woman,Right,1,57,0.15,2,0,180,0,4.8036198999980115,['y'],0.9835316999960924,1.554,1124.2182986000043,,,,,510,19,Woman,Right,
,,,,,,,,,,,,,,,,,510,19,Woman,Right,1,33,0.4,2,0,180,180,0.9756904999958351,['y'],0.735799499998393,1.682,1128.9722077000042,,,,,510,19,Woman,Right,
,,,,,,,,,,,,,,,,,510,19,Woman,Right,1,19,0.4,2,180,0,0,0.8392632999966736,['y'],0.7754416999960085,1.6400000000000001,1134.2099109000046,,,,,510,19,Woman,Right,
,,,,,,,,,,,,,,,,,510,19,Woman,Right,1,30,0.4,1,180,-,0,0.6122563000026275,['y'],1.0240112000028603,1.6019999999999999,1138.4141301000054,,,,,510,19,Woman,Right,
,,,,,,,,,,,,,,,,,510,19,Woman,Right,1,27,0.4,2,180,0,0,0.4001895000037621,['y'],0.5518129999982193,1.768,1142.519041700005,,,,,510,19,Woman,Right,
,,,,,,,,,,,,,,,,,510,19,Woman,Right,1,6,1,1,180,-,180,1.5098895000046468,['n'],1.19926029999624,1.792,1148.5075925000056,,,,,510,19,Woman,Right,
,,,,,,,,,,,,,,,,,510,19,Woman,Right,1,15,0.4,2,180,0,0,0.6580202000041027,['n'],0.6231487000040943,1.674,1152.695970300003,,,,,510,19,Woman,Right,
,,,,,,,,,,,,,,,,,510,19,Woman,Right,1,56,0.15,1,0,-,0,0.5608374999937951,['n'],0.7756225000048289,1.612,1156.8165195000038,,,,,510,19,Woman,Right,
,,,,,,,,,,,,,,,,,510,19,Woman,Right,1,24,0.4,1,0,-,0,0.5857880000039586,['n'],0.656182800004899,1.5979999999999999,1161.1867698999995,,,,,510,19,Woman,Right,
,,,,,,,,,,,,,,,,,510,19,Woman,Right,1,59,0.15,2,180,0,180,0.8954633999965154,['n'],1.0954949000006309,1.5779999999999998,1166.2262919999994,,,,,510,19,Woman,Right,
,,,,,,,,,,,,,,,,,510,19,Woman,Right,1,37,0.4,2,0,180,180,1.3986189999995986,['y'],0.9196758999969461,1.5779999999999998,1171.4636333000017,,,,,510,19,Woman,Right,
,,,,,,,,,,,,,,,,,510,19,Woman,Right,1,77,0.15,2,0,180,180,2.102645400002075,['y'],1.4319821000026423,1.526,1178.5873294000048,,,,,510,19,Woman,Right,
,,,,,,,,,,,,,,,,,510,19,Woman,Right,1,26,0.4,1,180,-,0,2.004149899999902,['y'],1.1751206999979331,1.55,1184.3606137000024,,,,,510,19,Woman,Right,
,,,,,,,,,,,,,,,,,510,19,Woman,Right,1,28,0.4,1,0,-,180,3.0443625999978394,['y'],1.191243499997654,1.512,1191.5176534999991,,,,,510,19,Woman,Right,
,,,,,,,,,,,,,,,,,510,19,Woman,Right,1,3,1,2,180,0,0,0.5252996999988682,['y'],1.1115063000033842,1.876,1197.1899240999992,,,,,510,19,Woman,Right,
,,,,,,,,,,,,,,,,,510,19,Woman,Right,1,62,0.15,1,180,-,0,2.4582753000067896,['n'],0.8953933000011602,1.482,1203.930322100001,,,,,510,19,Woman,Right,
,,,,,,,,,,,,,,,,,510,19,Woman,Right,1,54,0.15,1,180,-,180,5.293294099996274,['y'],1.079734400002053,1.4140000000000001,1213.522802899999,,,,,510,19,Woman,Right,
,,,,,,,,,,,,,,,,,510,19,Woman,Right,1,68,0.15,1,0,-,0,1.4412320999981603,['y'],0.6955301999987569,1.448,1218.2434009999997,,,,,510,19,Woman,Right,
,,,,,,,,,,,,,,,,,510,19,Woman,Right,1,66,0.15,1,180,-,180,1.518237299998873,['n'],1.1185561000020243,1.4,1224.3501565000042,,,,,510,19,Woman,Right,
,,,,,,,,,,,,,,,,,510,19,Woman,Right,1,13,0.4,2,0,180,180,1.0875734999935958,['y'],0.9915620999963721,1.678,1229.0045838000005,,,,,510,19,Woman,Right,
,,,,,,,,,,,,,,,,,510,19,Woman,Right,1,65,0.15,2,0,180,0,1.3392425999991246,['n'],0.8954406999982893,1.546,1234.092942700001,,,,,510,19,Woman,Right,
,,,,,,,,,,,,,,,,,510,19,Woman,Right,1,39,0.4,2,180,0,0,1.526989700003469,['y'],0.39965810000285273,1.57,1238.8807992000002,,,,,510,19,Woman,Right,
,,,,,,,,,,,,,,,,,510,19,Woman,Right,1,12,0.4,1,0,-,0,2.8568859999941196,['y'],1.2315411000017775,1.712,1245.9878180000014,,,,,510,19,Woman,Right,
,,,,,,,,,,,,,,,,,510,19,Woman,Right,1,21,0.4,2,0,180,180,1.9394608000002336,['y'],0.9275039999993169,1.624,1251.593408300003,,,,,510,19,Woman,Right,
,,,,,,,,,,,,,,,,,510,19,Woman,Right,1,7,1,2,180,0,0,1.3817287999991095,['y'],1.287688900003559,1.94,1257.1989926000024,,,,,510,19,Woman,Right,
,,,,,,,,,,,,,,,,,510,19,Woman,Right,1,2,1,1,180,-,180,1.151038600000902,['n'],0.9195189000020036,1.788,1262.103979200001,,,,,510,19,Woman,Right,
,,,,,,,,,,,,,,,,,510,19,Woman,Right,1,76,0.15,1,0,-,180,2.7136710999984643,['y'],1.791510200004268,1.55,1270.3621125999998,,,,,510,19,Woman,Right,
,,,,,,,,,,,,,,,,,510,19,Woman,Right,1,49,0.15,2,0,180,180,1.2626700999971945,['y'],0.9675740000020596,1.538,1275.2837814000013,,,,,510,19,Woman,Right,
,,,,,,,,,,,,,,,,,510,19,Woman,Right,1,38,0.4,1,180,-,0,3.620437999998103,['y'],2.1567391000062344,1.476,1284.559607400006,,,,,510,19,Woman,Right,
,,,,,,,,,,,,,,,,,510,19,Woman,Right,1,43,0.4,2,180,0,0,2.9029842000018107,['y'],0.8397563999969861,1.5779999999999998,1291.599778900003,,,,,510,19,Woman,Right,
,,,,,,,,,,,,,,,,,510,19,Woman,Right,1,70,0.15,1,180,-,0,2.994150999998965,['y'],3.2316154000000097,1.554,1301.209515100003,,,,,510,19,Woman,Right,
,,,,,,,,,,,,,,,,,510,19,Woman,Right,1,67,0.15,2,180,0,0,2.3493089000039618,['y'],1.407554600002186,1.472,1308.1830072000012,,,,,510,19,Woman,Right,
,,,,,,,,,,,,,,,,,510,19,Woman,Right,1,74,0.15,1,180,-,0,2.0406952000048477,['y'],0.839694900001632,1.464,1313.8886138000016,,,,,510,19,Woman,Right,
,,,,,,,,,,,,,,,,,510,19,Woman,Right,1,17,0.4,2,0,180,180,1.351953199999116,['y'],0.895742100001371,1.646,1318.5433776999998,,,,,510,19,Woman,Right,
,,,,,,,,,,,,,,,,,510,19,Woman,Right,1,64,0.15,1,0,-,0,4.450903400000243,['y'],1.335576099998434,1.3900000000000001,1326.9517469999992,,,,,510,19,Woman,Right,
,,,,,,,,,,,,,,,,,510,19,Woman,Right,1,16,0.4,1,0,-,0,2.1961934999999357,['y'],0.8957051000033971,1.564,1333.2579762000023,,,,,510,19,Woman,Right,
,,,,,,,,,,,,,,,,,510,19,Woman,Right,1,25,0.4,2,0,180,180,1.133633600002213,['y'],0.6396153000023332,1.56,1337.5289502000014,,,,,510,19,Woman,Right,
,,,,,,,,,,,,,,,,,510,19,Woman,Right,1,5,1,2,0,180,180,1.4685083000003942,['y'],1.0091252999991411,1.776,1342.7839820000008,,,,,510,19,Woman,Right,
,,,,,,,,,,,,,,,,,510,19,Woman,Right,1,73,0.15,2,0,180,180,3.2488940999974147,['n'],0.46378529999492457,1.544,1350.4747738000005,,,,,510,19,Woman,Right,
,,,,,,,,,,,,,,,,,510,19,Woman,Right,1,63,0.15,2,180,0,0,1.3671565000040573,['y'],0.6393482000057702,1.504,1356.0636728000027,,,,,510,19,Woman,Right,
,,,,,,,,,,,,,,,,,510,19,Woman,Right,1,34,0.4,1,180,-,180,1.0001674000013736,['n'],0.7842648000005283,1.564,1361.1853819000025,,,,,510,19,Woman,Right,
,,,,,,,,,,,,,,,,,510,19,Woman,Right,1,52,0.15,1,0,-,180,2.2224147000015364,['y'],0.7518810000037774,1.464,1367.6752190000043,,,,,510,19,Woman,Right,
,,,,,,,,,,,,,,,,,510,19,Woman,Right,1,20,0.4,1,0,-,0,1.2195735999994213,['n'],0.847319399996195,1.506,1372.8973004,,,,,510,19,Woman,Right,
,,,,,,,,,,,,,,,,,510,19,Woman,Right,1,44,0.15,1,0,-,0,1.8286502999981167,['y'],0.9761979000031715,1.476,1378.8037464000008,,,,,510,19,Woman,Right,
,,,,,,,,,,,,,,,,,510,19,Woman,Right,1,75,0.15,2,180,0,180,2.238203599998087,['y'],3.240068799997971,1.42,1387.011196899999,,,,,510,19,Woman,Right,
,,,,,,,,,,,,,,,,,510,19,Woman,Right,1,41,0.4,2,0,180,180,0.805031500000041,['y'],3.3921252000000095,1.484,1395.453216300004,,,,,510,19,Woman,Right,
,,,,,,,,,,,,,,,,,510,19,Woman,Right,1,79,0.15,2,180,0,0,2.719273800001247,['y'],4.166467299997748,1.534,1405.363242600004,,,,,510,19,Woman,Right,
,,,,,,,,,,,,,,,,,510,19,Woman,Right,1,31,0.4,2,180,0,0,0.8683873000045423,['y'],1.3674180999951204,1.72,1410.218091900002,,,,,510,19,Woman,Right,
,,,,,,,,,,,,,,,,,510,19,Woman,Right,1,46,0.15,1,180,-,180,1.6800287000005483,['y'],1.4315786000006483,1.548,1416.6737555,,,,,510,19,Woman,Right,
,,,,,,,,,,,,,,,,,510,19,Woman,Right,1,4,1,1,0,-,0,0.38500979999662377,['n'],0.44705299999623094,1.84,1420.1939586000008,,,,,510,19,Woman,Right,
,,,,,,,,,,,,,,,,,510,19,Woman,Right,1,53,0.15,2,0,180,180,3.087188100005733,['n'],1.0713275000016438,1.422,1427.117819500003,,,,,510,19,Woman,Right,
,,,,,,,,,,,,,,,,,510,19,Woman,Right,1,72,0.15,1,0,-,0,0.5658792999965954,['n'],0.7755655000000843,1.566,1430.8044916,,,,,510,19,Woman,Right,
,,,,,,,,,,,,,,,,,510,19,Woman,Right,1,58,0.15,1,180,-,180,2.8363196999998763,['n'],1.5988350999978138,1.532,1437.995010300001,,,,,510,19,Woman,Right,
,,,,,,,,,,,,,,,,,510,19,Woman,Right,1,1,1,2,0,180,180,0.6798363999987487,['y'],0.9837211000049138,1.8639999999999999,1443.2009236000013,,,,,510,19,Woman,Right,
,,,,,,,,,,,,,,,,,510,19,Woman,Right,1,14,0.4,1,180,-,180,1.2031117999940761,['n'],0.8635074000048917,1.554,1448.255949600003,,,,,510,19,Woman,Right,
,,,,,,,,,,,,,,,,,510,19,Woman,Right,1,40,0.4,1,0,-,0,0.3415353000018513,['n'],0.5996427999998559,1.728,1452.3425347000011,,,,,510,19,Woman,Right,
,,,,,,,,,,,,,,,,,510,19,Woman,Right,1,60,0.15,1,0,-,0,1.0281459000034374,['n'],1.0793250999995507,1.564,1457.0814019000027,,,,,510,19,Woman,Right,
,,,,,,,,,,,,,,,,,510,19,Woman,Right,2,53,0.15,2,0,180,0,1.6469498999940697,['y'],1.1834120999992592,1.514,1480.4538512,76.25,55.0,77.5,,510,19,Woman,Right,
,,,,,,,,,,,,,,,,,510,19,Woman,Right,2,62,0.15,1,180,-,0,4.387456500000553,['y'],1.455714600000647,1.462,1489.8304567000014,,,,,510,19,Woman,Right,
,,,,,,,,,,,,,,,,,510,19,Woman,Right,2,65,0.15,2,0,180,180,1.645768299997144,['y'],0.8154687999995076,1.466,1495.0857449000032,,,,,510,19,Woman,Right,
,,,,,,,,,,,,,,,,,510,19,Woman,Right,2,2,1,1,180,-,0,2.3033752999981516,['n'],2.5760637000057613,1.0,1503.2764857000002,,,,,510,19,Woman,Right,
,,,,,,,,,,,,,,,,,510,19,Woman,Right,2,57,0.15,2,0,180,0,1.9931973999991897,['n'],2.6797105000005104,1.528,1512.4197809000034,,,,,510,19,Woman,Right,
,,,,,,,,,,,,,,,,,510,19,Woman,Right,2,6,1,1,180,-,180,0.5573781999992207,['n'],2.1431777000034344,1.556,1517.708137600006,,,,,510,19,Woman,Right,
,,,,,,,,,,,,,,,,,510,19,Woman,Right,2,34,0.4,1,180,-,0,1.6770536999974865,['y'],2.7437200999993365,1.56,1524.5817020000031,,,,,510,19,Woman,Right,
,,,,,,,,,,,,,,,,,510,19,Woman,Right,2,68,0.15,1,0,-,180,4.003882700002578,['y'],0.8794187999956193,1.522,1531.9383686,,,,,510,19,Woman,Right,
,,,,,,,,,,,,,,,,,510,19,Woman,Right,2,19,0.4,2,180,0,0,2.0669836000015493,['y'],0.5836609999969369,1.686,1536.9932257000037,,,,,510,19,Woman,Right,
,,,,,,,,,,,,,,,,,510,19,Woman,Right,2,51,0.15,2,180,0,0,0.5668461000022944,['y'],0.6802924000003259,1.5939999999999999,1540.9478799999997,,,,,510,19,Woman,Right,
,,,,,,,,,,,,,,,,,510,19,Woman,Right,2,9,0.4,2,0,180,180,0.8473602000012761,['y'],0.75960479999776,1.576,1545.0679769000053,,,,,510,19,Woman,Right,
,,,,,,,,,,,,,,,,,510,19,Woman,Right,2,42,0.4,1,180,-,180,0.8638715999986744,['n'],0.7922812000033446,1.6480000000000001,1549.555737900002,,,,,510,19,Woman,Right,
,,,,,,,,,,,,,,,,,510,19,Woman,Right,2,27,0.4,2,180,0,0,0.43135000000620494,['y'],0.7038530999998329,1.678,1553.2261276000063,,,,,510,19,Woman,Right,
,,,,,,,,,,,,,,,,,510,19,Woman,Right,2,61,0.15,2,0,180,0,1.4213268000021344,['n'],2.4239021000030334,1.54,1560.7008903000024,,,,,510,19,Woman,Right,
,,,,,,,,,,,,,,,,,510,19,Woman,Right,2,22,0.4,1,180,-,180,0.7849468999993405,['n'],0.5118766000014148,1.552,1564.4709743000058,,,,,510,19,Woman,Right,
,,,,,,,,,,,,,,,,,510,19,Woman,Right,2,18,0.4,1,180,-,0,2.9006587999974727,['y'],1.3117076000053203,1.204,1571.6778128000005,,,,,510,19,Woman,Right,
,,,,,,,,,,,,,,,,,510,19,Woman,Right,2,29,0.4,2,0,180,180,1.1388766000018222,['y'],0.8153826999987359,1.686,1577.0163856,,,,,510,19,Woman,Right,
,,,,,,,,,,,,,,,,,510,19,Woman,Right,2,15,0.4,2,180,0,0,1.1684666000001016,['y'],0.6960254000005079,1.436,1582.054707700001,,,,,510,19,Woman,Right,
,,,,,,,,,,,,,,,,,510,19,Woman,Right,2,31,0.4,2,180,0,0,0.8610486999968998,['y'],1.582962000000407,1.572,1587.1930594000005,,,,,510,19,Woman,Right,
,,,,,,,,,,,,,,,,,510,19,Woman,Right,2,55,0.15,2,180,0,0,1.0725719000038225,['n'],0.3432853999984218,1.53,1591.5140549999996,,,,,510,19,Woman,Right,
,,,,,,,,,,,,,,,,,510,19,Woman,Right,2,8,0.4,1,0,-,0,1.8412169000002905,['n'],0.903907200001413,1.572,1597.269799600006,,,,,510,19,Woman,Right,
,,,,,,,,,,,,,,,,,510,19,Woman,Right,2,64,0.15,1,0,-,180,1.9961481999998796,['y'],1.0638566999987233,1.244,1604.3934914000056,,,,,510,19,Woman,Right,
,,,,,,,,,,,,,,,,,510,19,Woman,Right,2,23,0.4,2,180,0,0,2.4975138000008883,['y'],0.6313464999984717,1.546,1610.500377700002,,,,,510,19,Woman,Right,
,,,,,,,,,,,,,,,,,510,19,Woman,Right,2,7,1,2,180,0,0,0.6938665999987279,['y'],0.6397127999953227,1.75,1614.2877011000019,,,,,510,19,Woman,Right,
,,,,,,,,,,,,,,,,,510,19,Woman,Right,2,60,0.15,1,0,-,180,1.0736056999958237,['n'],0.9749544999940554,1.546,1619.5433680999995,,,,,510,19,Woman,Right,
,,,,,,,,,,,,,,,,,510,19,Woman,Right,2,76,0.15,1,0,-,0,0.5828123000028427,['n'],0.3915742000026512,1.6560000000000001,1623.2622386000003,,,,,510,19,Woman,Right,
,,,,,,,,,,,,,,,,,510,19,Woman,Right,2,40,0.4,1,0,-,0,0.4264764999970794,['n'],0.38329289999819594,1.65,1626.8825320000033,,,,,510,19,Woman,Right,
,,,,,,,,,,,,,,,,,510,19,Woman,Right,2,33,0.4,2,0,180,180,0.9982060999973328,['y'],0.735374399999273,1.6280000000000001,1630.9532680000048,,,,,510,19,Woman,Right,
,,,,,,,,,,,,,,,,,510,19,Woman,Right,2,16,0.4,1,0,-,0,0.46149570000125095,['n'],0.5119523999965168,1.6280000000000001,1634.4900733000031,,,,,510,19,Woman,Right,
,,,,,,,,,,,,,,,,,510,19,Woman,Right,2,28,0.4,1,0,-,0,0.5663265999974101,['n'],0.39233750000130385,1.6,1638.1938150999995,,,,,510,19,Woman,Right,
,,,,,,,,,,,,,,,,,510,19,Woman,Right,2,24,0.4,1,0,-,0,0.3675135000012233,['n'],0.38669279999885475,1.6,1641.396940999999,,,,,510,19,Woman,Right,
,,,,,,,,,,,,,,,,,510,19,Woman,Right,2,14,0.4,1,180,-,180,0.7174543000000995,['y'],0.7113196999998763,1.572,1646.0682646999994,,,,,510,19,Woman,Right,
,,,,,,,,,,,,,,,,,510,19,Woman,Right,2,35,0.4,2,180,0,0,2.089091100002406,['y'],0.8957137999968836,1.452,1651.5914054000023,,,,,510,19,Woman,Right,
,,,,,,,,,,,,,,,,,510,19,Woman,Right,2,3,1,2,180,0,0,0.5303062999955728,['y'],0.9915811000028043,1.796,1655.6944963999995,,,,,510,19,Woman,Right,
,,,,,,,,,,,,,,,,,510,19,Woman,Right,2,36,0.4,1,0,-,0,1.83259750000434,['y'],1.319591200001014,1.504,1661.8505940000032,,,,,510,19,Woman,Right,
,,,,,,,,,,,,,,,,,510,19,Woman,Right,2,56,0.15,1,0,-,180,3.4454482000001008,['y'],2.6077482999971835,1.426,1671.0431495000012,,,,,510,19,Woman,Right,
,,,,,,,,,,,,,,,,,510,19,Woman,Right,2,44,0.15,1,0,-,180,2.868451599999389,['y'],1.1033231999972486,1.446,1677.6830879000045,,,,,510,19,Woman,Right,
,,,,,,,,,,,,,,,,,510,19,Woman,Right,2,70,0.15,1,180,-,180,2.9254332999989856,['n'],0.37585609999950975,1.32,1684.373242900001,,,,,510,19,Woman,Right,
,,,,,,,,,,,,,,,,,510,19,Woman,Right,2,26,0.4,1,180,-,0,2.9151998000015737,['n'],0.4320350999987568,1.374,1690.4797158000001,,,,,510,19,Woman,Right,
,,,,,,,,,,,,,,,,,510,19,Woman,Right,2,77,0.15,2,0,180,0,3.791687800003274,['y'],1.0075848999986192,1.562,1698.4544695000004,,,,,510,19,Woman,Right,
,,,,,,,,,,,,,,,,,510,19,Woman,Right,2,74,0.15,1,180,-,0,1.5727004000000306,['y'],1.9678829999975278,1.476,1705.7282603999993,,,,,510,19,Woman,Right,
,,,,,,,,,,,,,,,,,510,19,Woman,Right,2,10,0.4,1,180,-,180,0.5742383000033442,['y'],0.9354095000016969,1.55,1710.4328997000048,,,,,510,19,Woman,Right,
,,,,,,,,,,,,,,,,,510,19,Woman,Right,2,11,0.4,2,180,0,180,1.785425000001851,['y'],2.430995900002017,1.474,1717.5400245000055,,,,,510,19,Woman,Right,
,,,,,,,,,,,,,,,,,510,19,Woman,Right,2,20,0.4,1,0,-,0,0.3863266999978805,['n'],0.3760550000006333,1.698,1722.0437975000023,,,,,510,19,Woman,Right,
,,,,,,,,,,,,,,,,,510,19,Woman,Right,2,49,0.15,2,0,180,180,1.3657266000009258,['n'],2.3278638000047067,1.58,1729.5518718000021,,,,,510,19,Woman,Right,
,,,,,,,,,,,,,,,,,510,19,Woman,Right,2,39,0.4,2,180,0,0,0.5956995000015013,['y'],0.5995985000045039,1.562,1733.1556988000011,,,,,510,19,Woman,Right,
,,,,,,,,,,,,,,,,,510,19,Woman,Right,2,72,0.15,1,0,-,0,1.2230998000013642,['n'],0.6307667000000947,1.65,1737.4763070000045,,,,,510,19,Woman,Right,
,,,,,,,,,,,,,,,,,510,19,Woman,Right,2,63,0.15,2,180,0,0,0.8015006999994512,['n'],0.2391898999994737,1.638,1741.0299648,,,,,510,19,Woman,Right,
,,,,,,,,,,,,,,,,,510,19,Woman,Right,2,47,0.15,2,180,0,180,0.8799908000000869,['n'],0.927414999998291,1.572,1745.6839003999994,,,,,510,19,Woman,Right,
,,,,,,,,,,,,,,,,,510,19,Woman,Right,2,25,0.4,2,0,180,180,0.6546730999980355,['y'],0.8312996000022395,1.748,1749.7546776000017,,,,,510,19,Woman,Right,
,,,,,,,,,,,,,,,,,510,19,Woman,Right,2,17,0.4,2,0,180,180,1.1518795000010869,['y'],2.903958499999135,1.6019999999999999,1756.294525600002,,,,,510,19,Woman,Right,
,,,,,,,,,,,,,,,,,510,19,Woman,Right,2,59,0.15,2,180,0,0,0.5904627999989316,['y'],2.4153891999958432,1.05,1762.9344029000058,,,,,510,19,Woman,Right,
,,,,,,,,,,,,,,,,,510,19,Woman,Right,2,5,1,2,0,180,180,1.3355463999978383,['y'],0.84739940000145,1.786,1768.0901107000027,,,,,510,19,Woman,Right,
,,,,,,,,,,,,,,,,,510,19,Woman,Right,2,79,0.15,2,180,0,180,3.375369800000044,['n'],0.2715119999993476,1.572,1774.946281000004,,,,,510,19,Woman,Right,
,,,,,,,,,,,,,,,,,510,19,Woman,Right,2,41,0.4,2,0,180,180,0.8050370999990264,['y'],0.5113016999966931,1.67,1778.8337056000018,,,,,510,19,Woman,Right,
,,,,,,,,,,,,,,,,,510,19,Woman,Right,2,58,0.15,1,180,-,180,0.5910509999957867,['n'],0.4555462999996962,1.6480000000000001,1782.4212423999998,,,,,510,19,Woman,Right,
,,,,,,,,,,,,,,,,,510,19,Woman,Right,2,38,0.4,1,180,-,180,1.4587585999979638,['n'],0.35974540000461275,1.552,1787.1255087000027,,,,,510,19,Woman,Right,
,,,,,,,,,,,,,,,,,510,19,Woman,Right,2,13,0.4,2,0,180,180,0.836397200000647,['y'],0.7269846999988658,1.604,1791.3465895000045,,,,,510,19,Woman,Right,
,,,,,,,,,,,,,,,,,510,19,Woman,Right,2,66,0.15,1,180,-,0,2.10336140000436,['n'],0.8956109999999171,1.342,1796.9028825999994,,,,,510,19,Woman,Right,
,,,,,,,,,,,,,,,,,510,19,Woman,Right,2,50,0.15,1,180,-,180,1.0072134000001824,['n'],1.1355471999995643,1.282,1801.6898285000061,,,,,510,19,Woman,Right,
,,,,,,,,,,,,,,,,,510,19,Woman,Right,2,45,0.15,2,0,180,0,1.2564915000039036,['n'],0.24773819999973057,1.3639999999999999,1805.9945294000063,,,,,510,19,Woman,Right,
,,,,,,,,,,,,,,,,,510,19,Woman,Right,2,4,1,1,0,-,0,1.0610954000003403,['n'],0.2955313999991631,1.726,1810.2982948999997,,,,,510,19,Woman,Right,
,,,,,,,,,,,,,,,,,510,19,Woman,Right,2,67,0.15,2,180,0,0,1.2643935999949463,['y'],0.8473016999996617,1.536,1815.4873124000005,,,,,510,19,Woman,Right,
,,,,,,,,,,,,,,,,,510,19,Woman,Right,2,1,1,2,0,180,180,0.7135614000071655,['y'],0.7674942000012379,1.914,1819.6419281000053,,,,,510,19,Woman,Right,
,,,,,,,,,,,,,,,,,510,19,Woman,Right,2,69,0.15,2,0,180,180,1.578088200003549,['y'],0.8069281999996747,1.556,1824.3786376000062,,,,,510,19,Woman,Right,
,,,,,,,,,,,,,,,,,510,19,Woman,Right,2,78,0.15,1,180,-,180,2.8430632000017795,['y'],0.8315978000027826,1.508,1831.1854845000053,,,,,510,19,Woman,Right,
,,,,,,,,,,,,,,,,,510,19,Woman,Right,2,46,0.15,1,180,-,0,1.9016561000025831,['n'],1.687415599997621,1.432,1838.0257184000002,,,,,510,19,Woman,Right,
,,,,,,,,,,,,,,,,,510,19,Woman,Right,2,0,1,1,0,-,0,0.40040399999998044,['n'],0.3117659999988973,1.768,1841.3632971000043,,,,,510,19,Woman,Right,
,,,,,,,,,,,,,,,,,510,19,Woman,Right,2,52,0.15,1,0,-,0,2.436575699997775,['y'],1.9270785999979125,1.3900000000000001,1849.1533469999995,,,,,510,19,Woman,Right,
,,,,,,,,,,,,,,,,,510,19,Woman,Right,2,73,0.15,2,0,180,0,1.7293000999998185,['y'],1.3839403000019956,1.424,1854.8088683000024,,,,,510,19,Woman,Right,
,,,,,,,,,,,,,,,,,510,19,Woman,Right,2,54,0.15,1,180,-,0,0.6509355000016512,['y'],1.2393520999976317,1.6440000000000001,1859.2136209000018,,,,,510,19,Woman,Right,
,,,,,,,,,,,,,,,,,510,19,Woman,Right,2,30,0.4,1,180,-,0,0.6991195000009611,['y'],0.5676238000014564,1.554,1863.0671339000037,,,,,510,19,Woman,Right,
,,,,,,,,,,,,,,,,,510,19,Woman,Right,2,21,0.4,2,0,180,180,1.4866888000033214,['y'],0.5517013999997289,1.572,1867.9052689000018,,,,,510,19,Woman,Right,
,,,,,,,,,,,,,,,,,510,19,Woman,Right,2,32,0.4,1,0,-,0,0.5857359000001452,['n'],0.41588190000038594,1.58,1871.6589767000041,,,,,510,19,Woman,Right,
,,,,,,,,,,,,,,,,,510,19,Woman,Right,2,43,0.4,2,180,0,180,1.1667432000031113,['y'],0.9035229000000982,1.51,1876.9642526000025,,,,,510,19,Woman,Right,
,,,,,,,,,,,,,,,,,510,19,Woman,Right,2,48,0.15,1,0,-,180,1.5344175999998697,['y'],0.7434769000028609,1.526,1881.736621600001,,,,,510,19,Woman,Right,
,,,,,,,,,,,,,,,,,510,19,Woman,Right,2,37,0.4,2,0,180,180,0.5838555000009364,['y'],0.7039007999992464,1.544,1885.4560506000053,,,,,510,19,Woman,Right,
,,,,,,,,,,,,,,,,,510,19,Woman,Right,2,75,0.15,2,180,0,180,1.0297003000014229,['y'],0.9591740999967442,1.524,1889.9280776000014,,,,,510,19,Woman,Right,
,,,,,,,,,,,,,,,,,510,19,Woman,Right,2,71,0.15,2,180,0,0,2.7667233000029228,['y'],1.455748799999128,1.516,1897.0841923000044,,,,,510,19,Woman,Right,
,,,,,,,,,,,,,,,,,510,19,Woman,Right,2,12,0.4,1,0,-,0,1.8833481999972719,['y'],0.9121980999989319,1.494,1904.3748073000024,,,,,510,19,Woman,Right,
,,,,,,,,,,,,,,,,,510,19,Woman,Right,3,30,0.4,1,180,-,0,0.8545750999983284,['y'],1.91117690000101,1.432,1926.8815739000056,66.25,57.5,80.0,,510,19,Woman,Right,
,,,,,,,,,,,,,,,,,510,19,Woman,Right,3,70,0.15,1,180,-,180,2.3055174999972223,['n'],2.312480800006597,1.436,1934.3056166000024,,,,,510,19,Woman,Right,
,,,,,,,,,,,,,,,,,510,19,Woman,Right,3,33,0.4,2,0,180,180,0.7731132999979309,['y'],0.6477205999981379,1.556,1938.2418591000023,,,,,510,19,Woman,Right,
,,,,,,,,,,,,,,,,,510,19,Woman,Right,3,61,0.15,2,0,180,180,2.92926499999885,['y'],2.2797016000040458,1.354,1948.2351345999996,,,,,510,19,Woman,Right,
,,,,,,,,,,,,,,,,,510,19,Woman,Right,3,74,0.15,1,180,-,0,1.790522499999497,['n'],1.0792843000017456,1.518,1954.1917109999995,,,,,510,19,Woman,Right,
,,,,,,,,,,,,,,,,,510,19,Woman,Right,3,17,0.4,2,0,180,180,0.7317851999978302,['y'],1.663516399996297,1.698,1960.9145792000054,,,,,510,19,Woman,Right,
,,,,,,,,,,,,,,,,,510,19,Woman,Right,3,68,0.15,1,0,-,0,1.3047286000000895,['n'],0.592116799998621,1.522,1966.3866061000008,,,,,510,19,Woman,Right,
,,,,,,,,,,,,,,,,,510,19,Woman,Right,3,26,0.4,1,180,-,0,0.3648064000008162,['n'],0.4715448999995715,1.548,1969.806525,,,,,510,19,Woman,Right,
,,,,,,,,,,,,,,,,,510,19,Woman,Right,3,6,1,1,180,-,180,0.435622200006037,['n'],0.5835607000044547,1.552,1973.5268419000058,,,,,510,19,Woman,Right,
,,,,,,,,,,,,,,,,,510,19,Woman,Right,3,67,0.15,2,180,0,0,1.4555057999968994,['y'],1.5437205999987782,1.464,1979.3168397000045,,,,,510,19,Woman,Right,
,,,,,,,,,,,,,,,,,510,19,Woman,Right,3,35,0.4,2,180,0,0,0.7837690000014845,['y'],0.8074230999991414,1.708,1983.7876053,,,,,510,19,Woman,Right,
,,,,,,,,,,,,,,,,,510,19,Woman,Right,3,59,0.15,2,180,0,0,2.1904987000016263,['y'],0.7753991999998107,1.466,1989.4437338000062,,,,,510,19,Woman,Right,
,,,,,,,,,,,,,,,,,510,19,Woman,Right,3,1,1,2,0,180,180,0.7506983999992372,['y'],0.7911480000038864,1.6440000000000001,1993.4476187000037,,,,,510,19,Woman,Right,
,,,,,,,,,,,,,,,,,510,19,Woman,Right,3,9,0.4,2,0,180,180,1.1189958000031766,['y'],0.9116311999969184,1.6440000000000001,1997.7842304000005,,,,,510,19,Woman,Right,
,,,,,,,,,,,,,,,,,510,19,Woman,Right,3,25,0.4,2,0,180,180,0.4178851000033319,['y'],0.6695647000015015,1.6480000000000001,2001.2380113000036,,,,,510,19,Woman,Right,
,,,,,,,,,,,,,,,,,510,19,Woman,Right,3,34,0.4,1,180,-,180,0.5931937999994261,['n'],0.41588359999877866,1.6480000000000001,2004.8247283000019,,,,,510,19,Woman,Right,
,,,,,,,,,,,,,,,,,510,19,Woman,Right,3,5,1,2,0,180,180,1.1239371999981813,['y'],0.815667000002577,1.764,2009.6970556000015,,,,,510,19,Woman,Right,
,,,,,,,,,,,,,,,,,510,19,Woman,Right,3,11,0.4,2,180,0,0,0.9283886999983224,['y'],1.0554235999952652,1.676,2014.0838095,,,,,510,19,Woman,Right,
,,,,,,,,,,,,,,,,,510,19,Woman,Right,3,8,0.4,1,0,-,0,0.5112577999971109,['n'],0.41591429999971297,1.568,2018.8058919000032,,,,,510,19,Woman,Right,
,,,,,,,,,,,,,,,,,510,19,Woman,Right,3,76,0.15,1,0,-,180,1.8223120000038762,['n'],0.6793105999968247,1.532,2025.128846300002,,,,,510,19,Woman,Right,
,,,,,,,,,,,,,,,,,510,19,Woman,Right,3,4,1,1,0,-,0,0.45339160000003176,['n'],0.28779580000264104,1.68,2028.4988363000011,,,,,510,19,Woman,Right,
,,,,,,,,,,,,,,,,,510,19,Woman,Right,3,69,0.15,2,0,180,180,0.620895300002303,['n'],1.1280039999983273,1.548,2033.286191900006,,,,,510,19,Woman,Right,
,,,,,,,,,,,,,,,,,510,19,Woman,Right,3,39,0.4,2,180,0,0,0.7323400000022957,['y'],0.8314676999943913,1.684,2037.4737026000003,,,,,510,19,Woman,Right,
,,,,,,,,,,,,,,,,,510,19,Woman,Right,3,13,0.4,2,0,180,180,0.7386918999982299,['y'],0.7115171999976155,1.672,2041.2441098000054,,,,,510,19,Woman,Right,
,,,,,,,,,,,,,,,,,510,19,Woman,Right,3,31,0.4,2,180,0,0,0.8252753999986453,['y'],0.5353079000051366,1.604,2044.8817803999991,,,,,510,19,Woman,Right,
,,,,,,,,,,,,,,,,,510,19,Woman,Right,3,40,0.4,1,0,-,180,1.1228024000010919,['y'],0.7115895999959321,1.6400000000000001,2048.9850917000003,,,,,510,19,Woman,Right,
,,,,,,,,,,,,,,,,,510,19,Woman,Right,3,32,0.4,1,0,-,0,0.5893708000003244,['n'],0.3359370999969542,1.6179999999999999,2052.5226120000007,,,,,510,19,Woman,Right,
,,,,,,,,,,,,,,,,,510,19,Woman,Right,3,28,0.4,1,0,-,0,0.735084400002961,['n'],0.27981829999771435,1.526,2057.1933821000057,,,,,510,19,Woman,Right,
,,,,,,,,,,,,,,,,,510,19,Woman,Right,3,48,0.15,1,0,-,180,1.879776399997354,['y'],1.4315005000025849,1.3559999999999999,2063.1158422000008,,,,,510,19,Woman,Right,
,,,,,,,,,,,,,,,,,510,19,Woman,Right,3,62,0.15,1,180,-,0,2.1326101000013296,['y'],1.2794856000036816,1.286,2069.122187000001,,,,,510,19,Woman,Right,
,,,,,,,,,,,,,,,,,510,19,Woman,Right,3,43,0.4,2,180,0,0,0.8561520000002929,['y'],0.5997050000005402,1.5779999999999998,2073.0597318,,,,,510,19,Woman,Right,
,,,,,,,,,,,,,,,,,510,19,Woman,Right,3,44,0.15,1,0,-,0,3.2495652999932645,['n'],0.6394170999992639,1.4060000000000001,2079.4493432000017,,,,,510,19,Woman,Right,
,,,,,,,,,,,,,,,,,510,19,Woman,Right,3,16,0.4,1,0,-,180,0.6235616999983904,['n'],0.3356932999959099,1.292,2082.802066000004,,,,,510,19,Woman,Right,
,,,,,,,,,,,,,,,,,510,19,Woman,Right,3,53,0.15,2,0,180,0,0.6147783999986132,['n'],0.6791700000030687,1.3479999999999999,2086.3557046999995,,,,,510,19,Woman,Right,
,,,,,,,,,,,,,,,,,510,19,Woman,Right,3,24,0.4,1,0,-,180,1.4895493000003626,['n'],0.511241100000916,1.428,2090.810170100005,,,,,510,19,Woman,Right,
,,,,,,,,,,,,,,,,,510,19,Woman,Right,3,21,0.4,2,0,180,0,0.7680384999985108,['n'],0.7278364000012516,1.0,2095.8494945000057,,,,,510,19,Woman,Right,
,,,,,,,,,,,,,,,,,510,19,Woman,Right,3,58,0.15,1,180,-,180,1.9725055000017164,['n'],0.7034454999957234,1.286,2101.6042686,,,,,510,19,Woman,Right,
,,,,,,,,,,,,,,,,,510,19,Woman,Right,3,57,0.15,2,0,180,180,2.2812753999969573,['y'],1.0634577000018908,1.448,2107.827595900002,,,,,510,19,Woman,Right,
,,,,,,,,,,,,,,,,,510,19,Woman,Right,3,29,0.4,2,0,180,180,0.9310020000048098,['y'],2.1993500999960816,1.558,2114.0005124000018,,,,,510,19,Woman,Right,
,,,,,,,,,,,,,,,,,510,19,Woman,Right,3,46,0.15,1,180,-,0,0.5128808000008576,['n'],0.33535249999840744,1.49,2117.469757400002,,,,,510,19,Woman,Right,
,,,,,,,,,,,,,,,,,510,19,Woman,Right,3,15,0.4,2,180,0,0,0.88673870000639,['y'],3.1832486000057543,1.0,2124.911271900004,,,,,510,19,Woman,Right,
,,,,,,,,,,,,,,,,,510,19,Woman,Right,3,42,0.4,1,180,-,180,0.5003490000017337,['n'],0.3827625999983866,1.706,2128.447365800006,,,,,510,19,Woman,Right,
,,,,,,,,,,,,,,,,,510,19,Woman,Right,3,79,0.15,2,180,0,0,1.6903739999979734,['n'],0.4321998999948846,1.502,2134.1535445000045,,,,,510,19,Woman,Right,
,,,,,,,,,,,,,,,,,510,19,Woman,Right,3,50,0.15,1,180,-,0,3.9310729000062565,['n'],1.111343399999896,1.374,2141.527793100002,,,,,510,19,Woman,Right,
,,,,,,,,,,,,,,,,,510,19,Woman,Right,3,3,1,2,180,0,0,0.5880924999946728,['y'],0.8875648999965051,1.792,2145.6977497000044,,,,,510,19,Woman,Right,
,,,,,,,,,,,,,,,,,510,19,Woman,Right,3,56,0.15,1,0,-,180,3.706827499998326,['y'],0.5594874000016716,1.426,2152.738841600003,,,,,510,19,Woman,Right,
,,,,,,,,,,,,,,,,,510,19,Woman,Right,3,63,0.15,2,180,0,0,2.0888261000000057,['n'],1.448306299993419,1.096,2159.1120119000043,,,,,510,19,Woman,Right,
,,,,,,,,,,,,,,,,,510,19,Woman,Right,3,0,1,1,0,-,0,0.45651310000539524,['n'],0.43985320000501815,1.794,2162.4318286000052,,,,,510,19,Woman,Right,
,,,,,,,,,,,,,,,,,510,19,Woman,Right,3,37,0.4,2,0,180,180,1.5145854000002146,['y'],0.8071246999970754,1.646,2167.1699924999994,,,,,510,19,Woman,Right,
,,,,,,,,,,,,,,,,,510,19,Woman,Right,3,73,0.15,2,0,180,0,0.45978029999969294,['n'],1.4794025000010151,1.65,2171.473495600003,,,,,510,19,Woman,Right,
,,,,,,,,,,,,,,,,,510,19,Woman,Right,3,22,0.4,1,180,-,180,0.4487790999992285,['n'],0.6315111000003526,1.5979999999999999,2174.943595200006,,,,,510,19,Woman,Right,
,,,,,,,,,,,,,,,,,510,19,Woman,Right,3,51,0.15,2,180,0,0,1.5608929000009084,['n'],0.44812610000371933,1.438,2179.614803700002,,,,,510,19,Woman,Right,
,,,,,,,,,,,,,,,,,510,19,Woman,Right,3,55,0.15,2,180,0,180,1.5201097000026493,['n'],0.447703999998339,1.466,2184.452952899999,,,,,510,19,Woman,Right,
,,,,,,,,,,,,,,,,,510,19,Woman,Right,3,49,0.15,2,0,180,180,1.6027020000037737,['y'],1.711666700000933,1.3519999999999999,2190.759435800006,,,,,510,19,Woman,Right,
,,,,,,,,,,,,,,,,,510,19,Woman,Right,3,77,0.15,2,0,180,180,2.5496385999940685,['y'],0.8237291000041296,1.374,2196.7151804000023,,,,,510,19,Woman,Right,
,,,,,,,,,,,,,,,,,510,19,Woman,Right,3,27,0.4,2,180,0,0,0.4728529999993043,['n'],0.6716056000004755,1.5939999999999999,2200.503034000001,,,,,510,19,Woman,Right,
,,,,,,,,,,,,,,,,,510,19,Woman,Right,3,71,0.15,2,180,0,0,2.602010099995823,['y'],1.951471100001072,1.0,2207.776929200001,,,,,510,19,Woman,Right,
,,,,,,,,,,,,,,,,,510,19,Woman,Right,3,45,0.15,2,0,180,180,1.9524256000004243,['y'],1.111453999998048,1.116,2213.4161385000043,,,,,510,19,Woman,Right,
,,,,,,,,,,,,,,,,,510,19,Woman,Right,3,64,0.15,1,0,-,0,1.6521162999997614,['y'],1.2875246000039624,1.18,2219.4378637000045,,,,,510,19,Woman,Right,
,,,,,,,,,,,,,,,,,510,19,Woman,Right,3,65,0.15,2,0,180,180,0.8157816999955685,['n'],0.27145890000247164,1.554,2223.1921541000047,,,,,510,19,Woman,Right,
,,,,,,,,,,,,,,,,,510,19,Woman,Right,3,38,0.4,1,180,-,180,1.0346162999994704,['n'],0.8312374000015552,1.512,2227.596573200004,,,,,510,19,Woman,Right,
,,,,,,,,,,,,,,,,,510,19,Woman,Right,3,78,0.15,1,180,-,0,1.3124701999986428,['y'],0.8557088000015938,1.318,2232.4506786000056,,,,,510,19,Woman,Right,
,,,,,,,,,,,,,,,,,510,19,Woman,Right,3,36,0.4,1,0,-,0,0.7856257000021287,['n'],0.4399600000033388,1.532,2236.421872500003,,,,,510,19,Woman,Right,
,,,,,,,,,,,,,,,,,510,19,Woman,Right,3,54,0.15,1,180,-,0,1.1821011000065482,['y'],0.567293799998879,1.416,2240.9598465000017,,,,,510,19,Woman,Right,
,,,,,,,,,,,,,,,,,510,19,Woman,Right,3,23,0.4,2,180,0,0,0.8144793000028585,['y'],0.9676657999953022,1.6480000000000001,2246.3144367999994,,,,,510,19,Woman,Right,
,,,,,,,,,,,,,,,,,510,19,Woman,Right,3,14,0.4,1,180,-,0,1.0415170999986003,['y'],0.5115019000004395,1.48,2250.3017008000024,,,,,510,19,Woman,Right,
,,,,,,,,,,,,,,,,,510,19,Woman,Right,3,18,0.4,1,180,-,180,0.5792007000054582,['n'],0.5594464999958291,1.638,2254.105494400006,,,,,510,19,Woman,Right,
,,,,,,,,,,,,,,,,,510,19,Woman,Right,3,19,0.4,2,180,0,0,0.9012934000056703,['y'],0.7592337999958545,1.584,2258.8276528999995,,,,,510,19,Woman,Right,
,,,,,,,,,,,,,,,,,510,19,Woman,Right,3,12,0.4,1,0,-,0,0.4794248999969568,['n'],2.0317728000009083,1.6320000000000001,2263.8663349000053,,,,,510,19,Woman,Right,
,,,,,,,,,,,,,,,,,510,19,Woman,Right,3,2,1,1,180,-,180,2.594800099999702,['n'],0.7280344000027981,1.8559999999999999,2269.6216697000054,,,,,510,19,Woman,Right,
,,,,,,,,,,,,,,,,,510,19,Woman,Right,3,41,0.4,2,0,180,180,1.622102300003462,['y'],1.0471965999968234,1.624,2274.675924700001,,,,,510,19,Woman,Right,
,,,,,,,,,,,,,,,,,510,19,Woman,Right,3,72,0.15,1,0,-,0,1.152866800002812,['n'],0.2956646000020555,1.554,2278.8975687000056,,,,,510,19,Woman,Right,
,,,,,,,,,,,,,,,,,510,19,Woman,Right,3,10,0.4,1,180,-,0,1.765754599997308,['y'],0.7997414999990724,1.548,2283.885094700003,,,,,510,19,Woman,Right,
,,,,,,,,,,,,,,,,,510,19,Woman,Right,3,47,0.15,2,180,0,0,2.326167900006112,['y'],0.7274730999997701,1.464,2289.742098100003,,,,,510,19,Woman,Right,
,,,,,,,,,,,,,,,,,510,19,Woman,Right,3,75,0.15,2,180,0,0,2.771889600000577,['y'],0.6311372000054689,1.1099999999999999,2295.8469645000005,,,,,510,19,Woman,Right,
,,,,,,,,,,,,,,,,,510,19,Woman,Right,3,20,0.4,1,0,-,180,3.2535461000006762,['y'],0.8078670000031707,1.176,2302.4201268000033,,,,,510,19,Woman,Right,
,,,,,,,,,,,,,,,,,510,19,Woman,Right,3,66,0.15,1,180,-,0,3.6043982000046526,['y'],1.1799389000007068,1.062,2309.744674600006,,,,,510,19,Woman,Right,
,,,,,,,,,,,,,,,,,510,19,Woman,Right,3,7,1,2,180,0,0,0.7442365000024438,['y'],0.8233359000005294,1.834,2313.832323200004,,,,,510,19,Woman,Right,
,,,,,,,,,,,,,,,,,510,19,Woman,Right,3,52,0.15,1,0,-,0,3.114887000003364,['y'],1.6953378000034718,1.206,2321.739309700002,,,,,510,19,Woman,Right,
,,,,,,,,,,,,,,,,,510,19,Woman,Right,3,60,0.15,1,0,-,0,0.9182557000021916,['n'],0.31185439999535447,1.528,2326.1944100000037,,,,,510,19,Woman,Right,
,,,,,,,,,,,,,,,,,510,19,Woman,Right,4,48,0.15,1,0,-,0,1.2820015999968746,['n'],1.1910341999973753,1.462,2345.2971688000034,72.5,67.5,75.0,,510,19,Woman,Right,
,,,,,,,,,,,,,,,,,510,19,Woman,Right,4,23,0.4,2,180,0,0,0.861720000000787,['y'],0.4635236000031,1.522,2349.4670332000023,,,,,510,19,Woman,Right,
,,,,,,,,,,,,,,,,,510,19,Woman,Right,4,63,0.15,2,180,0,0,0.7138771000027191,['y'],0.4798473000046215,1.506,2353.070507700002,,,,,510,19,Woman,Right,
,,,,,,,,,,,,,,,,,510,19,Woman,Right,4,3,1,2,180,0,0,0.49004770000465214,['y'],0.3595577999949455,1.786,2356.4238028000036,,,,,510,19,Woman,Right,
,,,,,,,,,,,,,,,,,510,19,Woman,Right,4,55,0.15,2,180,0,0,3.9737392000024556,['y'],1.6473521000007167,1.3359999999999999,2364.3152996000063,,,,,510,19,Woman,Right,
,,,,,,,,,,,,,,,,,510,19,Woman,Right,4,54,0.15,1,180,-,180,1.8846950000006473,['n'],0.5689949000006891,1.0,2369.4701113000046,,,,,510,19,Woman,Right,
,,,,,,,,,,,,,,,,,510,19,Woman,Right,4,6,1,1,180,-,180,0.7134326000013971,['n'],0.27948859999742126,1.734,2373.2413393000024,,,,,510,19,Woman,Right,
,,,,,,,,,,,,,,,,,510,19,Woman,Right,4,53,0.15,2,0,180,0,0.7014161999977659,['n'],0.47950220000348054,1.546,2376.9450593,,,,,510,19,Woman,Right,
,,,,,,,,,,,,,,,,,510,19,Woman,Right,4,77,0.15,2,0,180,180,1.0237420999983442,['y'],0.63913550000143,1.552,2384.002279200002,,,,,510,19,Woman,Right,
,,,,,,,,,,,,,,,,,510,19,Woman,Right,4,72,0.15,1,0,-,0,0.4642779999994673,['n'],0.5273687999942922,1.526,2387.321648900004,,,,,510,19,Woman,Right,
,,,,,,,,,,,,,,,,,510,19,Woman,Right,4,7,1,2,180,0,0,0.7184924999965006,['y'],0.4636118999987957,1.8439999999999999,2391.1083787000025,,,,,510,19,Woman,Right,
,,,,,,,,,,,,,,,,,510,19,Woman,Right,4,21,0.4,2,0,180,180,0.7918961000032141,['y'],1.3198522999955458,1.8559999999999999,2395.6961817000047,,,,,510,19,Woman,Right,
,,,,,,,,,,,,,,,,,510,19,Woman,Right,4,76,0.15,1,0,-,0,0.9295175000006566,['n'],0.31193099999654805,1.504,2399.6166864000043,,,,,510,19,Woman,Right,
,,,,,,,,,,,,,,,,,510,19,Woman,Right,4,0,1,1,0,-,0,0.3851749000023119,['n'],0.20758899999782443,1.6520000000000001,2403.053422600002,,,,,510,19,Woman,Right,
,,,,,,,,,,,,,,,,,510,19,Woman,Right,4,1,1,2,0,180,180,0.7813190000015311,['y'],0.7352826999995159,1.828,2406.841507500001,,,,,510,19,Woman,Right,
,,,,,,,,,,,,,,,,,510,19,Woman,Right,4,36,0.4,1,0,-,0,0.6768489000023692,['n'],0.8875169999955688,1.808,2410.845463400001,,,,,510,19,Woman,Right,
,,,,,,,,,,,,,,,,,510,19,Woman,Right,4,13,0.4,2,0,180,180,0.7983418000003439,['y'],0.8240749999968102,1.58,2414.782405100006,,,,,510,19,Woman,Right,
,,,,,,,,,,,,,,,,,510,19,Woman,Right,4,51,0.15,2,180,0,180,1.5278643000056036,['n'],0.22331020000274293,1.436,2419.2031700000007,,,,,510,19,Woman,Right,
,,,,,,,,,,,,,,,,,510,19,Woman,Right,4,41,0.4,2,0,180,180,1.1984540999983437,['y'],0.6398249999983818,1.538,2424.2077996000007,,,,,510,19,Woman,Right,
,,,,,,,,,,,,,,,,,510,19,Woman,Right,4,65,0.15,2,0,180,0,1.32995060000394,['y'],2.591172699998424,1.486,2431.298189000001,,,,,510,19,Woman,Right,
,,,,,,,,,,,,,,,,,510,19,Woman,Right,4,60,0.15,1,0,-,180,1.9463385999988532,['y'],0.9274568000037107,1.388,2437.0037761999993,,,,,510,19,Woman,Right,
,,,,,,,,,,,,,,,,,510,19,Woman,Right,4,66,0.15,1,180,-,180,3.656158500001766,['y'],0.3674875999931828,1.23,2444.244316600001,,,,,510,19,Woman,Right,
,,,,,,,,,,,,,,,,,510,19,Woman,Right,4,57,0.15,2,0,180,0,2.4691313000002992,['y'],0.6471646999998484,1.198,2449.883275400003,,,,,510,19,Woman,Right,
,,,,,,,,,,,,,,,,,510,19,Woman,Right,4,30,0.4,1,180,-,0,2.4807142999998177,['y'],1.247711199997866,1.176,2455.8724905000054,,,,,510,19,Woman,Right,
,,,,,,,,,,,,,,,,,510,19,Woman,Right,4,5,1,2,0,180,180,0.8170114000022295,['y'],2.2397691999940434,1.6600000000000001,2463.0633453000046,,,,,510,19,Woman,Right,
,,,,,,,,,,,,,,,,,510,19,Woman,Right,4,26,0.4,1,180,-,0,1.482314300003054,['n'],0.391082499998447,1.526,2467.984574599999,,,,,510,19,Woman,Right,
,,,,,,,,,,,,,,,,,510,19,Woman,Right,4,10,0.4,1,180,-,180,1.5747333000035724,['n'],3.543695199994545,1.562,2475.9276783000023,,,,,510,19,Woman,Right,
,,,,,,,,,,,,,,,,,510,19,Woman,Right,4,68,0.15,1,0,-,0,1.2103683000023011,['n'],0.47173599999950966,1.502,2480.6314004000014,,,,,510,19,Woman,Right,
,,,,,,,,,,,,,,,,,510,19,Woman,Right,4,9,0.4,2,0,180,180,0.8471683999960078,['y'],0.28775409999798285,1.6219999999999999,2484.518574900001,,,,,510,19,Woman,Right,
,,,,,,,,,,,,,,,,,510,19,Woman,Right,4,67,0.15,2,180,0,0,3.6210283000036725,['n'],1.6746946000057505,1.424,2492.4260305999996,,,,,510,19,Woman,Right,
,,,,,,,,,,,,,,,,,510,19,Woman,Right,4,58,0.15,1,180,-,0,1.9382091000006767,['y'],0.503456799997366,1.272,2497.397706100004,,,,,510,19,Woman,Right,
,,,,,,,,,,,,,,,,,510,19,Woman,Right,4,59,0.15,2,180,0,0,0.7648897999970359,['n'],0.4879679000005126,1.538,2501.250997300005,,,,,510,19,Woman,Right,
,,,,,,,,,,,,,,,,,510,19,Woman,Right,4,71,0.15,2,180,0,180,1.069939599998179,['y'],0.7833469999968656,1.56,2505.6893561000034,,,,,510,19,Woman,Right,
,,,,,,,,,,,,,,,,,510,19,Woman,Right,4,18,0.4,1,180,-,180,0.3905649000007543,['n'],0.43937620000360766,1.542,2509.208878600002,,,,,510,19,Woman,Right,
,,,,,,,,,,,,,,,,,510,19,Woman,Right,4,78,0.15,1,180,-,0,0.46659449999424396,['n'],0.27147079999849666,1.404,2512.545501600005,,,,,510,19,Woman,Right,
,,,,,,,,,,,,,,,,,510,19,Woman,Right,4,61,0.15,2,0,180,180,0.7101327999989735,['y'],0.7195401999997557,1.54,2516.4832258000024,,,,,510,19,Woman,Right,
,,,,,,,,,,,,,,,,,510,19,Woman,Right,4,4,1,1,0,-,0,0.5016895000007935,['n'],0.2394641999999294,1.764,2520.0370406,,,,,510,19,Woman,Right,
,,,,,,,,,,,,,,,,,510,19,Woman,Right,4,2,1,1,180,-,180,0.8224126999994041,['n'],0.7679248999993433,1.79,2524.5585408000043,,,,,510,19,Woman,Right,
,,,,,,,,,,,,,,,,,510,19,Woman,Right,4,52,0.15,1,0,-,0,0.3514597000030335,['n'],0.6955123000007006,1.816,2527.844953300002,,,,,510,19,Woman,Right,
,,,,,,,,,,,,,,,,,510,19,Woman,Right,4,14,0.4,1,180,-,180,0.8648390000016661,['n'],0.5041325999991386,1.724,2531.464297600003,,,,,510,19,Woman,Right,
,,,,,,,,,,,,,,,,,510,19,Woman,Right,4,38,0.4,1,180,-,180,1.0906713000003947,['n'],0.5033522000012454,1.79,2535.485144600003,,,,,510,19,Woman,Right,
,,,,,,,,,,,,,,,,,510,19,Woman,Right,4,33,0.4,2,0,180,180,1.6889234999980545,['y'],0.535731099997065,1.536,2540.4731801000016,,,,,510,19,Woman,Right,
,,,,,,,,,,,,,,,,,510,19,Woman,Right,4,44,0.15,1,0,-,180,2.0045239999963087,['y'],0.6714547000010498,1.42,2545.8120404,,,,,510,19,Woman,Right,
,,,,,,,,,,,,,,,,,510,19,Woman,Right,4,73,0.15,2,0,180,180,1.518401300003461,['y'],0.6159109000000171,1.4140000000000001,2550.2829899999997,,,,,510,19,Woman,Right,
,,,,,,,,,,,,,,,,,510,19,Woman,Right,4,11,0.4,2,180,0,0,1.1993597999971826,['y'],1.4231967000014265,1.376,2555.5881885000053,,,,,510,19,Woman,Right,
,,,,,,,,,,,,,,,,,510,19,Woman,Right,4,28,0.4,1,0,-,0,0.6541912000029697,['n'],0.2714459999988321,1.506,2559.108349300004,,,,,510,19,Woman,Right,
,,,,,,,,,,,,,,,,,510,19,Woman,Right,4,49,0.15,2,0,180,0,1.8576439000025857,['n'],3.7441146000055596,1.438,2567.450768900002,,,,,510,19,Woman,Right,
,,,,,,,,,,,,,,,,,510,19,Woman,Right,4,62,0.15,1,180,-,180,3.1009520000006887,['y'],0.6710212000034517,1.286,2573.9236305000013,,,,,510,19,Woman,Right,
,,,,,,,,,,,,,,,,,510,19,Woman,Right,4,29,0.4,2,0,180,180,1.465550599998096,['y'],1.0233231000020169,1.658,2579.1784934000025,,,,,510,19,Woman,Right,
,,,,,,,,,,,,,,,,,510,19,Woman,Right,4,22,0.4,1,180,-,180,0.7874145999958273,['n'],0.3754174999994575,1.556,2583.1323161000037,,,,,510,19,Woman,Right,
,,,,,,,,,,,,,,,,,510,19,Woman,Right,4,40,0.4,1,0,-,0,0.3535470999995596,['n'],0.303889299997536,1.544,2586.3857823,,,,,510,19,Woman,Right,
,,,,,,,,,,,,,,,,,510,19,Woman,Right,4,56,0.15,1,0,-,0,1.836004500000854,['n'],0.8400230000042939,1.358,2591.924344800005,,,,,510,19,Woman,Right,
,,,,,,,,,,,,,,,,,510,19,Woman,Right,4,46,0.15,1,180,-,0,0.7511311999987811,['n'],1.1993313999992097,1.3399999999999999,2596.3295394000015,,,,,510,19,Woman,Right,
,,,,,,,,,,,,,,,,,510,19,Woman,Right,4,17,0.4,2,0,180,180,1.718403799997759,['y'],1.124149999996007,1.596,2602.3020147999996,,,,,510,19,Woman,Right,
,,,,,,,,,,,,,,,,,510,19,Woman,Right,4,20,0.4,1,0,-,0,0.3528385999961756,['n'],0.3911710000029416,1.596,2605.5545980000024,,,,,510,19,Woman,Right,
,,,,,,,,,,,,,,,,,510,19,Woman,Right,4,19,0.4,2,180,0,0,0.7986626999991131,['y'],0.5833714000036707,1.674,2609.541828100002,,,,,510,19,Woman,Right,
,,,,,,,,,,,,,,,,,510,19,Woman,Right,4,50,0.15,1,180,-,180,0.6208499999993364,['n'],1.1912430999946082,1.672,2613.6459175000055,,,,,510,19,Woman,Right,
,,,,,,,,,,,,,,,,,510,19,Woman,Right,4,16,0.4,1,0,-,0,0.340230400004657,['n'],0.49567989999923157,1.672,2616.7498834,,,,,510,19,Woman,Right,
,,,,,,,,,,,,,,,,,510,19,Woman,Right,4,34,0.4,1,180,-,0,3.2990263999963645,['y'],1.6559669999987818,1.534,2624.823672000006,,,,,510,19,Woman,Right,
,,,,,,,,,,,,,,,,,510,19,Woman,Right,4,74,0.15,1,180,-,180,0.3018180999933975,['n'],0.7909014000033494,1.562,2628.7282613999996,,,,,510,19,Woman,Right,
,,,,,,,,,,,,,,,,,510,19,Woman,Right,4,31,0.4,2,180,0,0,0.5719924000004539,['y'],0.7518045000033453,1.546,2632.3986460000015,,,,,510,19,Woman,Right,
,,,,,,,,,,,,,,,,,510,19,Woman,Right,4,15,0.4,2,180,0,0,0.7642447000034736,['y'],1.1202207999958773,1.546,2632.3986460000015,,,,,510,19,Woman,Right,
,,,,,,,,,,,,,,,,,510,19,Woman,Right,4,43,0.4,2,180,0,0,0.45231000000057975,['y'],0.7919304999959422,1.5819999999999999,2640.4226387000017,,,,,510,19,Woman,Right,
,,,,,,,,,,,,,,,,,510,19,Woman,Right,4,12,0.4,1,0,-,0,0.7261789000040153,['n'],0.34384339999814983,1.546,2644.376407900003,,,,,510,19,Woman,Right,
,,,,,,,,,,,,,,,,,510,19,Woman,Right,4,75,0.15,2,180,0,0,0.5904031000027317,['n'],1.031868799997028,1.536,2648.447788700003,,,,,510,19,Woman,Right,
,,,,,,,,,,,,,,,,,510,19,Woman,Right,4,24,0.4,1,0,-,0,0.8667308000003686,['n'],1.3193003999986104,1.498,2653.2027352000005,,,,,510,19,Woman,Right,
,,,,,,,,,,,,,,,,,510,19,Woman,Right,4,70,0.15,1,180,-,0,0.7884630999978981,['n'],0.9112968999979785,1.496,2657.472736399999,,,,,510,19,Woman,Right,
,,,,,,,,,,,,,,,,,510,19,Woman,Right,4,42,0.4,1,180,-,0,1.234822799997346,['n'],0.6864815000008093,1.418,2661.677730100004,,,,,510,19,Woman,Right,
,,,,,,,,,,,,,,,,,510,19,Woman,Right,4,8,0.4,1,0,-,0,0.5241894999999204,['n'],0.2796496000009938,1.266,2664.8977876000063,,,,,510,19,Woman,Right,
,,,,,,,,,,,,,,,,,510,19,Woman,Right,4,25,0.4,2,0,180,180,1.0033448999965913,['y'],0.567418099999486,1.612,2669.0676164000033,,,,,510,19,Woman,Right,
,,,,,,,,,,,,,,,,,510,19,Woman,Right,4,32,0.4,1,0,-,0,0.4840327999991132,['n'],2.322483799995098,1.542,2674.840820600002,,,,,510,19,Woman,Right,
,,,,,,,,,,,,,,,,,510,19,Woman,Right,4,37,0.4,2,0,180,180,0.5190966999944067,['y'],0.6394421000004513,1.6059999999999999,2678.4775615000035,,,,,510,19,Woman,Right,
,,,,,,,,,,,,,,,,,510,19,Woman,Right,4,35,0.4,2,180,0,0,0.9106618000005255,['y'],0.4871791999976267,1.544,2682.247419600004,,,,,510,19,Woman,Right,
,,,,,,,,,,,,,,,,,510,19,Woman,Right,4,45,0.15,2,0,180,0,1.1390723999938928,['n'],0.7604054000039469,1.42,2686.5189972000007,,,,,510,19,Woman,Right,
,,,,,,,,,,,,,,,,,510,19,Woman,Right,4,79,0.15,2,180,0,0,0.979748899997503,['y'],0.43157690000225557,1.38,2692.3740282,,,,,510,19,Woman,Right,
,,,,,,,,,,,,,,,,,510,19,Woman,Right,4,69,0.15,2,0,180,180,1.5156593000065186,['y'],0.7514563000004273,1.3719999999999999,2697.229824400005,,,,,510,19,Woman,Right,
,,,,,,,,,,,,,,,,,510,19,Woman,Right,4,39,0.4,2,180,0,0,0.8301208999982919,['y'],0.5677393000005395,1.728,2701.2834726,,,,,510,19,Woman,Right,
,,,,,,,,,,,,,,,,,510,19,Woman,Right,4,47,0.15,2,180,0,0,3.502758000002359,['y'],0.23967219999758527,1.0,2708.1063639999993,,,,,510,19,Woman,Right,
,,,,,,,,,,,,,,,,,510,19,Woman,Right,4,27,0.4,2,180,0,0,0.8432826999996905,['y'],0.3597814000022481,1.568,2712.261322700004,,,,,510,19,Woman,Right,
,,,,,,,,,,,,,,,,,510,19,Woman,Right,4,64,0.15,1,0,-,0,0.7327871000015875,['n'],0.2871932999987621,1.3359999999999999,2715.881234799999,,,,,510,19,Woman,Right,
,,,,,,,,,,,,,,,,,510,19,Woman,Right,5,1,1,2,0,180,180,1.0319608999998309,['y'],0.6792900000000373,1.724,2735.7177945000003,78.75,82.5,82.5,,510,19,Woman,Right,
,,,,,,,,,,,,,,,,,510,19,Woman,Right,5,40,0.4,1,0,-,0,0.35709810000116704,['n'],2.2956100000010338,1.554,2741.155899000005,,,,,510,19,Woman,Right,
,,,,,,,,,,,,,,,,,510,19,Woman,Right,5,0,1,1,0,-,0,0.3761512999990373,['n'],1.8559504999939236,1.548,2745.9618912000005,,,,,510,19,Woman,Right,
,,,,,,,,,,,,,,,,,510,19,Woman,Right,5,16,0.4,1,0,-,0,0.8539610999941942,['n'],1.552029800004675,1.528,2751.283735500001,,,,,510,19,Woman,Right,
,,,,,,,,,,,,,,,,,510,19,Woman,Right,5,20,0.4,1,0,-,0,0.49562819999846397,['n'],2.1518954999992275,1.57,2758.990283400002,,,,,510,19,Woman,Right,
,,,,,,,,,,,,,,,,,510,19,Woman,Right,5,8,0.4,1,0,-,0,0.43017909999616677,['n'],0.26365049999731127,1.55,2762.160143500005,,,,,510,19,Woman,Right,
,,,,,,,,,,,,,,,,,510,19,Woman,Right,5,64,0.15,1,0,-,0,0.6849086999936844,['n'],0.3121160000009695,1.472,2765.9305317000035,,,,,510,19,Woman,Right,
,,,,,,,,,,,,,,,,,510,19,Woman,Right,5,70,0.15,1,180,-,0,2.134940000003553,['y'],0.23151789999974426,1.3860000000000001,2770.9862501000025,,,,,510,19,Woman,Right,
,,,,,,,,,,,,,,,,,510,19,Woman,Right,5,29,0.4,2,0,180,180,2.9906388000017614,['n'],0.30361960000300314,1.316,2776.7246651000023,,,,,510,19,Woman,Right,
,,,,,,,,,,,,,,,,,510,19,Woman,Right,5,50,0.15,1,180,-,180,2.2825444000045536,['n'],1.3913122999947518,1.0,2782.9984977999993,,,,,510,19,Woman,Right,
,,,,,,,,,,,,,,,,,510,19,Woman,Right,5,71,0.15,2,180,0,0,1.1869712000043364,['y'],0.6958052999980282,1.112,2787.636339000004,,,,,510,19,Woman,Right,
,,,,,,,,,,,,,,,,,510,19,Woman,Right,5,34,0.4,1,180,-,180,0.6243231000044034,['n'],0.4152805999983684,1.366,2791.2726907000033,,,,,510,19,Woman,Right,
,,,,,,,,,,,,,,,,,510,19,Woman,Right,5,35,0.4,2,180,0,0,0.6726054000027943,['y'],0.5913593999939621,1.694,2794.9939742999995,,,,,510,19,Woman,Right,
,,,,,,,,,,,,,,,,,510,19,Woman,Right,5,76,0.15,1,0,-,0,1.8023787999991328,['n'],0.8076004000031389,1.026,2800.064434,,,,,510,19,Woman,Right,
,,,,,,,,,,,,,,,,,510,19,Woman,Right,5,30,0.4,1,180,-,180,0.3161455999943428,['n'],0.8153940000047442,1.522,2804.270549400004,,,,,510,19,Woman,Right,
,,,,,,,,,,,,,,,,,510,19,Woman,Right,5,66,0.15,1,180,-,180,0.5416387000004761,['n'],1.2319037999986904,1.548,2808.7904356,,,,,510,19,Woman,Right,
,,,,,,,,,,,,,,,,,510,19,Woman,Right,5,12,0.4,1,0,-,180,2.4378714999984368,['n'],0.23087310000119032,1.388,2813.878978600005,,,,,510,19,Woman,Right,
,,,,,,,,,,,,,,,,,510,19,Woman,Right,5,24,0.4,1,0,-,0,0.3957607999982429,['n'],0.3035694999998668,1.684,2817.1819808,,,,,510,19,Woman,Right,
,,,,,,,,,,,,,,,,,510,19,Woman,Right,5,63,0.15,2,180,0,0,1.1511325000028592,['n'],0.9433827000029851,1.674,2821.5363171000063,,,,,510,19,Woman,Right,
,,,,,,,,,,,,,,,,,510,19,Woman,Right,5,11,0.4,2,180,0,0,1.540517399997043,['y'],0.6475998999958392,1.534,2826.2403753000035,,,,,510,19,Woman,Right,
,,,,,,,,,,,,,,,,,510,19,Woman,Right,5,47,0.15,2,180,0,180,0.6989876000006916,['n'],0.6554713000004995,1.544,2831.095245299999,,,,,510,19,Woman,Right,
,,,,,,,,,,,,,,,,,510,19,Woman,Right,5,17,0.4,2,0,180,180,0.5813577000008081,['y'],1.5917400999969686,1.646,2836.167000600006,,,,,510,19,Woman,Right,
,,,,,,,,,,,,,,,,,510,19,Woman,Right,5,9,0.4,2,0,180,180,0.7327960000038729,['y'],0.599527999998827,1.672,2839.870649700002,,,,,510,19,Woman,Right,
,,,,,,,,,,,,,,,,,510,19,Woman,Right,5,3,1,2,180,0,0,0.516862399999809,['y'],3.23175519999495,1.8599999999999999,2846.077516700003,,,,,510,19,Woman,Right,
,,,,,,,,,,,,,,,,,510,19,Woman,Right,5,19,0.4,2,180,0,0,0.6960308999987319,['y'],0.9675096999999369,1.744,2849.8814262000014,,,,,510,19,Woman,Right,
,,,,,,,,,,,,,,,,,510,19,Woman,Right,5,27,0.4,2,180,0,0,0.5004816000000574,['y'],1.1826134999937494,1.778,2853.7512644000017,,,,,510,19,Woman,Right,
,,,,,,,,,,,,,,,,,510,19,Woman,Right,5,6,1,1,180,-,180,0.56371560000116,['n'],0.8165011999954004,1.746,2857.822825300005,,,,,510,19,Woman,Right,
,,,,,,,,,,,,,,,,,510,19,Woman,Right,5,55,0.15,2,180,0,180,2.360634700002265,['n'],0.647627400001511,1.264,2863.311338899999,,,,,510,19,Woman,Right,
,,,,,,,,,,,,,,,,,510,19,Woman,Right,5,37,0.4,2,0,180,180,0.6807543000031728,['y'],0.9036560999957146,1.748,2867.3645945000026,,,,,510,19,Woman,Right,
,,,,,,,,,,,,,,,,,510,19,Woman,Right,5,44,0.15,1,0,-,0,1.0377651000017067,['n'],0.3917139000041061,1.624,2871.401977500005,,,,,510,19,Woman,Right,
,,,,,,,,,,,,,,,,,510,19,Woman,Right,5,26,0.4,1,180,-,180,0.6563181999954395,['n'],0.5036131000015303,1.556,2875.5727122000026,,,,,510,19,Woman,Right,
,,,,,,,,,,,,,,,,,510,19,Woman,Right,5,33,0.4,2,0,180,180,2.2695696000009775,['y'],0.7198442000008072,1.472,2881.028873000003,,,,,510,19,Woman,Right,
,,,,,,,,,,,,,,,,,510,19,Woman,Right,5,65,0.15,2,0,180,180,0.7551638000004459,['y'],0.6716436999995494,1.47,2884.849316800006,,,,,510,19,Woman,Right,
,,,,,,,,,,,,,,,,,510,19,Woman,Right,5,62,0.15,1,180,-,0,0.6186858000000939,['n'],0.31985790000180714,1.3980000000000001,2888.352055000003,,,,,510,19,Woman,Right,
,,,,,,,,,,,,,,,,,510,19,Woman,Right,5,59,0.15,2,180,0,180,1.2167341000022134,['n'],3.767771500002709,1.5739999999999998,2896.4099802000055,,,,,510,19,Woman,Right,
,,,,,,,,,,,,,,,,,510,19,Woman,Right,5,74,0.15,1,180,-,180,0.33164229999965755,['n'],3.5356948000044213,1.556,2902.567106100003,,,,,510,19,Woman,Right,
,,,,,,,,,,,,,,,,,510,19,Woman,Right,5,39,0.4,2,180,0,0,0.5915391000016825,['y'],0.45594619999610586,1.65,2905.9709796000025,,,,,510,19,Woman,Right,
,,,,,,,,,,,,,,,,,510,19,Woman,Right,5,52,0.15,1,0,-,0,1.7162190999952145,['y'],3.83971250000468,1.37,2913.827321500001,,,,,510,19,Woman,Right,
,,,,,,,,,,,,,,,,,510,19,Woman,Right,5,53,0.15,2,0,180,0,0.9827963000061573,['y'],0.45579580000048736,1.3780000000000001,2917.665308399999,,,,,510,19,Woman,Right,
,,,,,,,,,,,,,,,,,510,19,Woman,Right,5,5,1,2,0,180,180,0.5973824000029708,['y'],0.6077632000015001,1.832,2921.5183325000035,,,,,510,19,Woman,Right,
,,,,,,,,,,,,,,,,,510,19,Woman,Right,5,57,0.15,2,0,180,180,1.9367010999994818,['y'],0.567447399997036,1.316,2926.706909200002,,,,,510,19,Woman,Right,
,,,,,,,,,,,,,,,,,510,19,Woman,Right,5,77,0.15,2,0,180,180,0.857714700003271,['y'],0.9195862999986275,1.522,2931.9453542000047,,,,,510,19,Woman,Right,
,,,,,,,,,,,,,,,,,510,19,Woman,Right,5,54,0.15,1,180,-,0,0.8896312999931979,['n'],0.5835358999975142,1.418,2935.832585600001,,,,,510,19,Woman,Right,
,,,,,,,,,,,,,,,,,510,19,Woman,Right,5,43,0.4,2,180,0,0,0.7961852999942494,['y'],0.6155605000021751,1.744,2939.953334500002,,,,,510,19,Woman,Right,
,,,,,,,,,,,,,,,,,510,19,Woman,Right,5,32,0.4,1,0,-,0,0.7249977999963448,['n'],0.448101999994833,1.642,2943.557693200004,,,,,510,19,Woman,Right,
,,,,,,,,,,,,,,,,,510,19,Woman,Right,5,25,0.4,2,0,180,180,0.6074500999966403,['y'],0.8235719000003883,1.684,2947.7782529000033,,,,,510,19,Woman,Right,
,,,,,,,,,,,,,,,,,510,19,Woman,Right,5,41,0.4,2,0,180,180,0.42540659999940544,['y'],0.4555622999978368,1.892,2951.1652608000004,,,,,510,19,Woman,Right,
,,,,,,,,,,,,,,,,,510,19,Woman,Right,5,10,0.4,1,180,-,0,0.6648831999991671,['n'],0.6160625999982585,1.624,2954.934947900001,,,,,510,19,Woman,Right,
,,,,,,,,,,,,,,,,,510,19,Woman,Right,5,49,0.15,2,0,180,0,0.6161595000012312,['n'],1.5274788999959128,1.3860000000000001,2959.656189000001,,,,,510,19,Woman,Right,
,,,,,,,,,,,,,,,,,510,19,Woman,Right,5,69,0.15,2,0,180,0,1.5370490999994217,['y'],0.4635866000025999,1.374,2964.260829000006,,,,,510,19,Woman,Right,
,,,,,,,,,,,,,,,,,510,19,Woman,Right,5,15,0.4,2,180,0,0,0.6955101999992621,['y'],0.6877291000055266,1.5939999999999999,2968.082016600005,,,,,510,19,Woman,Right,
,,,,,,,,,,,,,,,,,510,19,Woman,Right,5,21,0.4,2,0,180,180,0.6532764999938081,['y'],0.6795719000001554,1.588,2971.6350261000043,,,,,510,19,Woman,Right,
,,,,,,,,,,,,,,,,,510,19,Woman,Right,5,58,0.15,1,180,-,180,2.3690615000014077,['y'],1.000162399999681,1.0,2977.7416907000006,,,,,510,19,Woman,Right,
,,,,,,,,,,,,,,,,,510,19,Woman,Right,5,7,1,2,180,0,0,0.5612707999971462,['y'],0.3675193000017316,1.982,2981.4456773000056,,,,,510,19,Woman,Right,
,,,,,,,,,,,,,,,,,510,19,Woman,Right,5,79,0.15,2,180,0,0,0.9986853999944287,['n'],0.6312132000020938,1.726,2985.449237300003,,,,,510,19,Woman,Right,
,,,,,,,,,,,,,,,,,510,19,Woman,Right,5,56,0.15,1,0,-,0,0.9948778000034508,['n'],0.6316264999986743,1.6,2989.9704210000054,,,,,510,19,Woman,Right,
,,,,,,,,,,,,,,,,,510,19,Woman,Right,5,68,0.15,1,0,-,0,2.114985300002445,['y'],0.591435200003616,1.346,2995.2749329,,,,,510,19,Woman,Right,
,,,,,,,,,,,,,,,,,510,19,Woman,Right,5,38,0.4,1,180,-,180,1.3532867999965674,['n'],0.8482316000008723,1.514,3001.1481912000017,,,,,510,19,Woman,Right,
,,,,,,,,,,,,,,,,,510,19,Woman,Right,5,75,0.15,2,180,0,0,1.56389979999949,['n'],0.2551101999997627,1.244,3005.7865496000013,,,,,510,19,Woman,Right,
,,,,,,,,,,,,,,,,,510,19,Woman,Right,5,73,0.15,2,0,180,0,0.5134250999981305,['n'],0.3837446000034106,1.536,3009.4065475000025,,,,,510,19,Woman,Right,
,,,,,,,,,,,,,,,,,510,19,Woman,Right,5,78,0.15,1,180,-,180,0.6802987999981269,['n'],0.9753857999967295,1.532,3014.193740900002,,,,,510,19,Woman,Right,
,,,,,,,,,,,,,,,,,510,19,Woman,Right,5,31,0.4,2,180,0,0,0.46286569999938365,['y'],1.0797730999984196,1.766,3018.2644315,,,,,510,19,Woman,Right,
,,,,,,,,,,,,,,,,,510,19,Woman,Right,5,45,0.15,2,0,180,0,0.56930889999785,['n'],0.28784739999537123,1.63,3021.45205,,,,,510,19,Woman,Right,
,,,,,,,,,,,,,,,,,510,19,Woman,Right,5,51,0.15,2,180,0,0,0.33555210000486113,['n'],0.6482021999981953,1.522,3025.2721542,,,,,510,19,Woman,Right,
,,,,,,,,,,,,,,,,,510,19,Woman,Right,5,46,0.15,1,180,-,0,0.5299918000018806,['n'],0.2795979000002262,1.506,3030.2104529999997,,,,,510,19,Woman,Right,
,,,,,,,,,,,,,,,,,510,19,Woman,Right,5,23,0.4,2,180,0,0,1.970410100002482,['y'],0.6873493999955826,1.52,3035.482044700002,,,,,510,19,Woman,Right,
,,,,,,,,,,,,,,,,,510,19,Woman,Right,5,60,0.15,1,0,-,0,1.4278315999981714,['n'],1.0558587000050466,1.458,3040.7875187000027,,,,,510,19,Woman,Right,
,,,,,,,,,,,,,,,,,510,19,Woman,Right,5,42,0.4,1,180,-,180,0.3192823999997927,['n'],0.43179690000397386,1.584,3044.6907223000017,,,,,510,19,Woman,Right,
,,,,,,,,,,,,,,,,,510,19,Woman,Right,5,22,0.4,1,180,-,0,1.152002299997548,['n'],0.8238687999983085,1.266,3049.3457387000017,,,,,510,19,Woman,Right,
,,,,,,,,,,,,,,,,,510,19,Woman,Right,5,13,0.4,2,0,180,180,0.6656977000020561,['y'],3.055590999996639,1.626,3055.334565200006,,,,,510,19,Woman,Right,
,,,,,,,,,,,,,,,,,510,19,Woman,Right,5,61,0.15,2,0,180,180,2.048163300001761,['y'],0.6957458999968367,1.454,3061.3239365000045,,,,,510,19,Woman,Right,
,,,,,,,,,,,,,,,,,510,19,Woman,Right,5,72,0.15,1,0,-,0,0.6144665000028908,['n'],0.2632367000041995,1.47,3064.911546400006,,,,,510,19,Woman,Right,
,,,,,,,,,,,,,,,,,510,19,Woman,Right,5,28,0.4,1,0,-,0,0.7627863000016077,['n'],1.1672987999991165,1.564,3069.265196100001,,,,,510,19,Woman,Right,
,,,,,,,,,,,,,,,,,510,19,Woman,Right,5,4,1,1,0,-,0,0.5537879000039538,['n'],1.5436893000005512,1.8940000000000001,3073.686900300003,,,,,510,19,Woman,Right,
,,,,,,,,,,,,,,,,,510,19,Woman,Right,5,48,0.15,1,0,-,0,1.0410294000030262,['n'],0.19111030000203755,1.314,3077.4735065999994,,,,,510,19,Woman,Right,
,,,,,,,,,,,,,,,,,510,19,Woman,Right,5,18,0.4,1,180,-,180,0.80085539999709,['n'],1.6077738000021782,1.548,3082.6451042000044,,,,,510,19,Woman,Right,
,,,,,,,,,,,,,,,,,510,19,Woman,Right,5,14,0.4,1,180,-,180,0.8222592000020086,['n'],0.5591589999967255,1.4020000000000001,3086.2664291000037,,,,,510,19,Woman,Right,
,,,,,,,,,,,,,,,,,510,19,Woman,Right,5,36,0.4,1,0,-,180,1.2256528999932925,['y'],0.6715156999998726,1.244,3090.7205429000023,,,,,510,19,Woman,Right,
,,,,,,,,,,,,,,,,,510,19,Woman,Right,5,67,0.15,2,180,0,180,1.1961937000014586,['n'],1.9278849999973318,1.214,3096.3086933000013,,,,,510,19,Woman,Right,
,,,,,,,,,,,,,,,,,510,19,Woman,Right,5,2,1,1,180,-,180,0.7812372999978834,['n'],0.7594642999974894,1.684,3100.162471200005,,,,,510,19,Woman,Right,
,,,,,,,,,,,,,,,,,,,,,,,,,,,,,,,,,78.75,87.5,70.0,2685.615531700001,,,,,
