p_block,p_section,p_coherence,p_direction1,p_direction2,p_direction_response,p_direction_RT,p_change_response,p_change_RT,p_confidence,p_full_correct,p_without5_correct,p_full_total,p_without5_total,p_full_avg,p_witout5_avg,p_total_time,sub,age,sex,handedness,loop,trial randomization,coherence,condition,direction1,direction2,direction_response,direction_RT,change_response,change_RT,change_confidence,change_confidence_RT,block_direction_avg,block_stable_avg,block_change_avg,total_time,sub,age,sex,handedness,
1,1,1.0,180,-,180,0.15419029999975464,-,-,-,,,,,,,,565,18,Woman,Right,,,,,,,,,,,,,,,,,565,18,Woman,Right,
1,1,1.0,0,-,0,1.1661666999998488,-,-,-,,,,,,,,565,18,Woman,Right,,,,,,,,,,,,,,,,,565,18,Woman,Right,
1,1,1.0,180,-,180,0.5692466000000422,-,-,-,,,,,,,,565,18,Woman,Right,,,,,,,,,,,,,,,,,565,18,Woman,Right,
1,1,1.0,180,-,180,0.18070059999990917,-,-,-,,,,,,,,565,18,Woman,Right,,,,,,,,,,,,,,,,,565,18,Woman,Right,
1,1,1.0,0,-,0,0.24798880000071222,-,-,-,,,,,,,,565,18,Woman,Right,,,,,,,,,,,,,,,,,565,18,Woman,Right,
1,1,1.0,180,-,180,0.01679599999988568,-,-,-,,,,,,,,565,18,Woman,Right,,,,,,,,,,,,,,,,,565,18,Woman,Right,
1,1,1.0,180,-,180,0.20203229999970063,-,-,-,,,,,,,,565,18,Woman,Right,,,,,,,,,,,,,,,,,565,18,Woman,Right,
1,1,1.0,180,-,180,0.5557948999994551,-,-,-,,,,,,,,565,18,Woman,Right,,,,,,,,,,,,,,,,,565,18,Woman,Right,
1,1,1.0,0,-,0,0.2321523000000525,-,-,-,,,,,,,,565,18,Woman,Right,,,,,,,,,,,,,,,,,565,18,Woman,Right,
1,1,1.0,180,-,180,0.18514720000075613,-,-,-,10,10,10,10,1.0,1.0,,565,18,Woman,Right,,,,,,,,,,,,,,,,,565,18,Woman,Right,
2,1,0.4,0,-,0,0.3777608999998847,-,-,-,,,,,,,,565,18,Woman,Right,,,,,,,,,,,,,,,,,565,18,Woman,Right,
2,1,0.4,180,-,180,0.24525330000051326,-,-,-,,,,,,,,565,18,Woman,Right,,,,,,,,,,,,,,,,,565,18,Woman,Right,
2,1,0.4,180,-,180,0.3258175000000847,-,-,-,,,,,,,,565,18,Woman,Right,,,,,,,,,,,,,,,,,565,18,Woman,Right,
2,1,0.15,180,-,0,0.5710471000002144,-,-,-,,,,,,,,565,18,Woman,Right,,,,,,,,,,,,,,,,,565,18,Woman,Right,
2,1,0.15,180,-,180,1.100069699999949,-,-,-,,,,,,,,565,18,Woman,Right,,,,,,,,,,,,,,,,,565,18,Woman,Right,
2,1,0.4,180,-,180,0.5003686000000016,-,-,-,,,,,,,,565,18,Woman,Right,,,,,,,,,,,,,,,,,565,18,Woman,Right,
2,1,0.15,0,-,0,0.3463304999995671,-,-,-,,,,,,,,565,18,Woman,Right,,,,,,,,,,,,,,,,,565,18,Woman,Right,
2,1,0.15,0,-,180,0.3749961000003168,-,-,-,,,,,,,,565,18,Woman,Right,,,,,,,,,,,,,,,,,565,18,Woman,Right,
2,1,0.15,0,-,0,0.2823988999998619,-,-,-,,,,,,,,565,18,Woman,Right,,,,,,,,,,,,,,,,,565,18,Woman,Right,
2,1,0.15,180,-,180,0.4000599000000875,-,-,-,8,4,10,4,0.8,1.0,,565,18,Woman,Right,,,,,,,,,,,,,,,,,565,18,Woman,Right,
3,2,1.0,180,0,0,1.965993900000285,['y'],3.1685197000006156,1.904,,,,,,,,565,18,Woman,Right,,,,,,,,,,,,,,,,,565,18,Woman,Right,
3,2,1.0,180,0,0,1.0002520999996705,['y'],1.2962397000001147,1.838,,,,,,,,565,18,Woman,Right,,,,,,,,,,,,,,,,,565,18,Woman,Right,
3,2,1.0,180,0,0,0.7939009000001533,['y'],1.123581899999408,1.84,,,,,,,,565,18,Woman,Right,,,,,,,,,,,,,,,,,565,18,Woman,Right,
3,2,1.0,180,0,0,0.6836977000002662,['y'],0.3693530999998984,1.8479999999999999,,,,,,,,565,18,Woman,Right,,,,,,,,,,,,,,,,,565,18,Woman,Right,
3,2,1.0,180,0,0,0.7368711999997686,['y'],0.2919787999999244,1.8479999999999999,,,,,,,,565,18,Woman,Right,,,,,,,,,,,,,,,,,565,18,Woman,Right,
3,2,1.0,180,0,0,0.568249800000558,['y'],0.3869380000005549,1.8479999999999999,,,,,,,,565,18,Woman,Right,,,,,,,,,,,,,,,,,565,18,Woman,Right,
3,2,1.0,180,0,0,0.6448817999998937,['y'],0.30885680000028515,1.8479999999999999,,,,,,,,565,18,Woman,Right,,,,,,,,,,,,,,,,,565,18,Woman,Right,
3,2,1.0,180,0,0,0.4499329999998736,['y'],0.27331560000038735,1.8479999999999999,,,,,,,,565,18,Woman,Right,,,,,,,,,,,,,,,,,565,18,Woman,Right,
3,2,1.0,180,0,0,0.7426912000000812,['y'],0.2913237000002482,1.866,,,,,,,,565,18,Woman,Right,,,,,,,,,,,,,,,,,565,18,Woman,Right,
3,2,1.0,180,0,0,0.5294399999993402,['y'],0.2538322000000335,1.8599999999999999,10,10,10,10,1.0,1.0,,565,18,Woman,Right,,,,,,,,,,,,,,,,,565,18,Woman,Right,
4,2,0.4,0,180,0,1.451005100000657,['n'],1.3655470000003334,1.1480000000000001,,,,,,,,565,18,Woman,Right,,,,,,,,,,,,,,,,,565,18,Woman,Right,
4,2,0.15,0,180,180,0.5390717000000222,['y'],0.7422173000004477,1.6520000000000001,,,,,,,,565,18,Woman,Right,,,,,,,,,,,,,,,,,565,18,Woman,Right,
4,2,0.4,180,0,0,1.2223877999995238,['y'],0.4626750000006723,1.814,,,,,,,,565,18,Woman,Right,,,,,,,,,,,,,,,,,565,18,Woman,Right,
4,2,0.15,180,0,0,0.35533309999937046,['y'],0.22300360000008368,1.714,,,,,,,,565,18,Woman,Right,,,,,,,,,,,,,,,,,565,18,Woman,Right,
4,2,0.15,180,0,0,0.5386694999997417,['y'],0.22229629999947065,1.686,,,,,,,,565,18,Woman,Right,,,,,,,,,,,,,,,,,565,18,Woman,Right,
4,2,0.4,0,180,0,0.5913622000007308,['y'],2.5367092999995293,1.616,,,,,,,,565,18,Woman,Right,,,,,,,,,,,,,,,,,565,18,Woman,Right,
4,2,0.15,0,180,0,1.0499335000004066,['y'],1.7481788999994023,1.6440000000000001,,,,,,,,565,18,Woman,Right,,,,,,,,,,,,,,,,,565,18,Woman,Right,
4,2,0.15,180,0,180,1.143978199999765,['y'],0.9803529000000708,1.588,,,,,,,,565,18,Woman,Right,,,,,,,,,,,,,,,,,565,18,Woman,Right,
4,2,0.4,180,0,180,0.7563609999997425,['y'],1.0318958000007115,1.612,,,,,,,,565,18,Woman,Right,,,,,,,,,,,,,,,,,565,18,Woman,Right,
4,2,0.4,180,0,0,0.49866910000037024,['y'],0.2240710999994917,1.762,,,,,,,,565,18,Woman,Right,,,,,,,,,,,,,,,,,565,18,Woman,Right,
4,2,0.15,180,0,0,0.7584215000006225,['y'],0.4972258999996484,1.76,,,,,,,,565,18,Woman,Right,,,,,,,,,,,,,,,,,565,18,Woman,Right,
4,2,0.15,0,180,180,1.221648699999605,['y'],0.23105320000013307,1.726,,,,,,,,565,18,Woman,Right,,,,,,,,,,,,,,,,,565,18,Woman,Right,
4,2,0.15,0,180,0,0.8302159000004394,['n'],1.1034375999997792,1.182,,,,,,,,565,18,Woman,Right,,,,,,,,,,,,,,,,,565,18,Woman,Right,
4,2,0.15,180,0,0,1.4335023000003275,['y'],0.2805029999999533,1.6600000000000001,,,,,,,,565,18,Woman,Right,,,,,,,,,,,,,,,,,565,18,Woman,Right,
4,2,0.4,0,180,0,0.3920349999998507,['y'],0.2579339000003529,1.42,,,,,,,,565,18,Woman,Right,,,,,,,,,,,,,,,,,565,18,Woman,Right,
4,2,0.4,0,180,180,0.7989112000004752,['y'],0.5120443000005253,1.63,,,,,,,,565,18,Woman,Right,,,,,,,,,,,,,,,,,565,18,Woman,Right,
4,2,0.4,180,0,0,0.5139571999998225,['y'],0.49503790000017034,1.654,,,,,,,,565,18,Woman,Right,,,,,,,,,,,,,,,,,565,18,Woman,Right,
4,2,0.4,0,180,180,0.3617781000002651,['y'],0.901709299999311,1.746,,,,,,,,565,18,Woman,Right,,,,,,,,,,,,,,,,,565,18,Woman,Right,
4,2,0.15,0,180,0,0.7633999999998196,['y'],0.39094870000008086,1.392,,,,,,,,565,18,Woman,Right,,,,,,,,,,,,,,,,,565,18,Woman,Right,
4,2,0.4,180,0,0,0.6764756000002308,['y'],0.4185053000001062,1.672,7,4,10,5,0.7,0.8,,565,18,Woman,Right,,,,,,,,,,,,,,,,,565,18,Woman,Right,
5,3,1.0,0,180,180,1.0883396999997785,['y'],0.6142435000001569,1.744,,,,,,,,565,18,Woman,Right,,,,,,,,,,,,,,,,,565,18,Woman,Right,
5,3,0.4,0,180,180,0.6715322000000015,['y'],0.7814748000000691,1.71,,,,,,,,565,18,Woman,Right,,,,,,,,,,,,,,,,,565,18,Woman,Right,
5,3,0.15,180,0,0,1.8165035000001808,['n'],0.24043210000036197,1.616,,,,,,,,565,18,Woman,Right,,,,,,,,,,,,,,,,,565,18,Woman,Right,
5,3,1.0,0,-,0,0.6711575999997876,['n'],0.23802490000070975,1.694,,,,,,,,565,18,Woman,Right,,,,,,,,,,,,,,,,,565,18,Woman,Right,
5,3,0.15,0,-,180,0.8361153000005288,['y'],0.7881333000004815,1.24,,,,,,,,565,18,Woman,Right,,,,,,,,,,,,,,,,,565,18,Woman,Right,
5,3,0.4,0,180,180,0.650424400000702,['y'],0.26531680000061897,1.756,,,,,,,,565,18,Woman,Right,,,,,,,,,,,,,,,,,565,18,Woman,Right,
5,3,1.0,0,180,180,0.5643865000001824,['y'],0.23990189999949507,1.786,,,,,,,,565,18,Woman,Right,,,,,,,,,,,,,,,,,565,18,Woman,Right,
5,3,0.4,0,-,0,0.9477735999998913,['n'],0.2634226000000126,1.6640000000000001,,,,,,,,565,18,Woman,Right,,,,,,,,,,,,,,,,,565,18,Woman,Right,
5,3,0.15,0,-,0,0.6763547999998991,['n'],0.2586611999995512,1.658,,,,,,,,565,18,Woman,Right,,,,,,,,,,,,,,,,,565,18,Woman,Right,
5,3,0.4,0,180,180,0.6471136000000115,['y'],0.27136909999990166,1.5979999999999999,9,7,10,7,0.9,1.0,,565,18,Woman,Right,,,,,,,,,,,,,,,,,565,18,Woman,Right,
,,,,,,,,,,,,,,,,4.799999260285404e-06,565,18,Woman,Right,,,,,,,,,,,,,,,,,565,18,Woman,Right,
,,,,,,,,,,,,,,,,,565,18,Woman,Right,0,33,0.4,2,0,180,180,1.786451599999964,['y'],1.598771900000429,1.716,387.38412380000045,,,,,565,18,Woman,Right,
,,,,,,,,,,,,,,,,,565,18,Woman,Right,0,55,0.15,2,180,0,0,0.5508403000003455,['y'],1.0228869000002305,1.6640000000000001,391.91765380000015,,,,,565,18,Woman,Right,
,,,,,,,,,,,,,,,,,565,18,Woman,Right,0,13,0.4,2,0,180,180,0.46569129999988945,['y'],0.759243599999536,1.71,396.70114170000033,,,,,565,18,Woman,Right,
,,,,,,,,,,,,,,,,,565,18,Woman,Right,0,60,0.15,1,0,-,180,1.3557414999995672,['n'],1.014868999999635,1.262,402.73415470000054,,,,,565,18,Woman,Right,
,,,,,,,,,,,,,,,,,565,18,Woman,Right,0,67,0.15,2,180,0,0,0.6799037000000681,['y'],2.375030700000025,1.262,409.1508695000002,,,,,565,18,Woman,Right,
,,,,,,,,,,,,,,,,,565,18,Woman,Right,0,77,0.15,2,0,180,0,3.283568799999557,['n'],0.4868886999993265,1.338,415.98442559999967,,,,,565,18,Woman,Right,
,,,,,,,,,,,,,,,,,565,18,Woman,Right,0,25,0.4,2,0,180,180,0.6671670000005179,['y'],0.8146741000000475,1.5939999999999999,421.2175637999999,,,,,565,18,Woman,Right,
,,,,,,,,,,,,,,,,,565,18,Woman,Right,0,64,0.15,1,0,-,0,1.2728910999994696,['n'],1.2390656000006857,1.164,427.7178581999997,,,,,565,18,Woman,Right,
,,,,,,,,,,,,,,,,,565,18,Woman,Right,0,45,0.15,2,0,180,180,0.6144248000000516,['y'],1.3505888999998206,1.546,432.53426860000036,,,,,565,18,Woman,Right,
,,,,,,,,,,,,,,,,,565,18,Woman,Right,0,39,0.4,2,180,0,0,0.3627790999998979,['y'],0.8069418999994014,1.782,436.4178204,,,,,565,18,Woman,Right,
,,,,,,,,,,,,,,,,,565,18,Woman,Right,0,31,0.4,2,180,0,0,0.7091098999999303,['y'],0.6946823999996923,1.784,441.83423420000054,,,,,565,18,Woman,Right,
,,,,,,,,,,,,,,,,,565,18,Woman,Right,0,30,0.4,1,180,-,0,0.6503579000000173,['y'],0.8386605999994572,1.6600000000000001,446.0676166000003,,,,,565,18,Woman,Right,
,,,,,,,,,,,,,,,,,565,18,Woman,Right,0,43,0.4,2,180,0,0,0.3502296999995451,['y'],0.6435417000002417,1.702,449.6176451000001,,,,,565,18,Woman,Right,
,,,,,,,,,,,,,,,,,565,18,Woman,Right,0,22,0.4,1,180,-,0,0.6020467000007557,['y'],1.1668399000000136,1.6179999999999999,454.9509949000003,,,,,565,18,Woman,Right,
,,,,,,,,,,,,,,,,,565,18,Woman,Right,0,42,0.4,1,180,-,180,0.6366590999996333,['y'],0.35107910000078846,1.558,459.0176609,,,,,565,18,Woman,Right,
,,,,,,,,,,,,,,,,,565,18,Woman,Right,0,19,0.4,2,180,0,0,0.9038814999994429,['y'],0.7189111999996385,1.558,463.2012004999997,,,,,565,18,Woman,Right,
,,,,,,,,,,,,,,,,,565,18,Woman,Right,0,1,1,2,0,180,180,0.46462609999980486,['y'],0.8231780999994953,1.456,467.3845121000004,,,,,565,18,Woman,Right,
,,,,,,,,,,,,,,,,,565,18,Woman,Right,0,69,0.15,2,0,180,180,2.09544730000016,['y'],0.7268431000002238,1.646,473.5177045999999,,,,,565,18,Woman,Right,
,,,,,,,,,,,,,,,,,565,18,Woman,Right,0,49,0.15,2,0,180,180,2.294877600000291,['n'],1.2550154000000475,1.3359999999999999,480.6011650999999,,,,,565,18,Woman,Right,
,,,,,,,,,,,,,,,,,565,18,Woman,Right,0,7,1,2,180,0,0,0.40268339999965974,['y'],0.7987027999997736,1.826,485.0843340000001,,,,,565,18,Woman,Right,
,,,,,,,,,,,,,,,,,565,18,Woman,Right,0,21,0.4,2,0,180,180,0.4617453000000751,['y'],0.38286300000072515,1.77,488.8011858,,,,,565,18,Woman,Right,
,,,,,,,,,,,,,,,,,565,18,Woman,Right,0,66,0.15,1,180,-,0,0.5978391999997257,['y'],0.47876629999973375,1.6219999999999999,493.4176674999999,,,,,565,18,Woman,Right,
,,,,,,,,,,,,,,,,,565,18,Woman,Right,0,74,0.15,1,180,-,180,1.781855500000347,['y'],1.0628901999998561,1.43,501.1343004999999,,,,,565,18,Woman,Right,
,,,,,,,,,,,,,,,,,565,18,Woman,Right,0,78,0.15,1,180,-,180,2.9446406999995816,['y'],0.998924800000168,1.564,508.13444640000034,,,,,565,18,Woman,Right,
,,,,,,,,,,,,,,,,,565,18,Woman,Right,0,50,0.15,1,180,-,180,1.9959940999997343,['n'],0.1899396999997407,1.396,514.5013199000005,,,,,565,18,Woman,Right,
,,,,,,,,,,,,,,,,,565,18,Woman,Right,0,20,0.4,1,0,-,180,0.5566310000003796,['n'],0.9747753999999986,1.374,520.3845323000005,,,,,565,18,Woman,Right,
,,,,,,,,,,,,,,,,,565,18,Woman,Right,0,51,0.15,2,180,0,0,2.86125549999997,['n'],0.4147865000004458,1.408,527.484735,,,,,565,18,Woman,Right,
,,,,,,,,,,,,,,,,,565,18,Woman,Right,0,41,0.4,2,0,180,180,2.7250514999996085,['n'],0.49474709999958577,1.408,533.1846439999999,,,,,565,18,Woman,Right,
,,,,,,,,,,,,,,,,,565,18,Woman,Right,0,62,0.15,1,180,-,0,1.20836860000054,['n'],0.9349190000002636,1.3820000000000001,537.9012878000003,,,,,565,18,Woman,Right,
,,,,,,,,,,,,,,,,,565,18,Woman,Right,0,79,0.15,2,180,0,0,1.3091334999999162,['n'],1.0149900999995225,1.158,543.7850606000002,,,,,565,18,Woman,Right,
,,,,,,,,,,,,,,,,,565,18,Woman,Right,0,11,0.4,2,180,0,0,1.3890847000002395,['n'],0.4306744000004983,1.146,548.4012524,,,,,565,18,Woman,Right,
,,,,,,,,,,,,,,,,,565,18,Woman,Right,0,16,0.4,1,0,-,180,0.8609968999999182,['n'],0.9029205999995611,1.162,553.3180608000002,,,,,565,18,Woman,Right,
,,,,,,,,,,,,,,,,,565,18,Woman,Right,0,58,0.15,1,180,-,180,2.580301099999815,['n'],0.2065099999999802,1.246,558.8682065000003,,,,,565,18,Woman,Right,
,,,,,,,,,,,,,,,,,565,18,Woman,Right,0,70,0.15,1,180,-,180,0.9506894000005559,['n'],0.6470447000001514,1.1400000000000001,564.2178899999999,,,,,565,18,Woman,Right,
,,,,,,,,,,,,,,,,,565,18,Woman,Right,0,72,0.15,1,0,-,0,1.7335565000003044,['y'],1.024408599999333,1.194,571.2847614000002,,,,,565,18,Woman,Right,
,,,,,,,,,,,,,,,,,565,18,Woman,Right,0,9,0.4,2,0,180,180,1.3860667000008107,['y'],1.0549364999997124,1.738,576.6679249999997,,,,,565,18,Woman,Right,
,,,,,,,,,,,,,,,,,565,18,Woman,Right,0,14,0.4,1,180,-,180,2.170780200000081,['y'],1.254413000000568,1.154,582.6015778999999,,,,,565,18,Woman,Right,
,,,,,,,,,,,,,,,,,565,18,Woman,Right,0,71,0.15,2,180,0,180,0.9917729999997391,['y'],0.5106085999996139,1.116,587.1345695999998,,,,,565,18,Woman,Right,
,,,,,,,,,,,,,,,,,565,18,Woman,Right,0,46,0.15,1,180,-,0,0.9021622000000207,['y'],1.1986096000000543,1.12,591.4681847000002,,,,,565,18,Woman,Right,
,,,,,,,,,,,,,,,,,565,18,Woman,Right,0,38,0.4,1,180,-,180,2.2484096999996837,['y'],0.5268793000004734,1.12,596.8850832999997,,,,,565,18,Woman,Right,
,,,,,,,,,,,,,,,,,565,18,Woman,Right,0,73,0.15,2,0,180,0,1.1522119999999632,['y'],0.48693230000026233,1.1560000000000001,601.3849722000004,,,,,565,18,Woman,Right,
,,,,,,,,,,,,,,,,,565,18,Woman,Right,0,59,0.15,2,180,0,0,1.5280458000006547,['y'],0.39915579999978945,1.322,608.4180171999997,,,,,565,18,Woman,Right,
,,,,,,,,,,,,,,,,,565,18,Woman,Right,0,23,0.4,2,180,0,180,1.2288136000006489,['y'],0.7507227000005514,1.554,613.6180734,,,,,565,18,Woman,Right,
,,,,,,,,,,,,,,,,,565,18,Woman,Right,0,12,0.4,1,0,-,0,1.3220590000000811,['n'],1.2469275999992533,1.124,619.9850054999997,,,,,565,18,Woman,Right,
,,,,,,,,,,,,,,,,,565,18,Woman,Right,0,2,1,1,180,-,180,2.284195600000203,['n'],1.062607300000309,1.688,626.9014018999997,,,,,565,18,Woman,Right,
,,,,,,,,,,,,,,,,,565,18,Woman,Right,0,34,0.4,1,180,-,0,1.3931679000006625,['y'],0.6391555999998673,1.662,631.6850406000003,,,,,565,18,Woman,Right,
,,,,,,,,,,,,,,,,,565,18,Woman,Right,0,56,0.15,1,0,-,0,2.6690152999999555,['n'],0.7429642999995849,1.312,638.4682730000004,,,,,565,18,Woman,Right,
,,,,,,,,,,,,,,,,,565,18,Woman,Right,0,35,0.4,2,180,0,0,1.143122299999959,['y'],0.8391705999993064,1.704,643.2016837000001,,,,,565,18,Woman,Right,
,,,,,,,,,,,,,,,,,565,18,Woman,Right,0,8,0.4,1,0,-,180,1.2884120999997322,['y'],0.9508175000000847,1.662,648.6017081999998,,,,,565,18,Woman,Right,
,,,,,,,,,,,,,,,,,565,18,Woman,Right,0,53,0.15,2,0,180,180,2.272447500000453,['y'],0.9592751000000135,1.442,654.6350496000005,,,,,565,18,Woman,Right,
,,,,,,,,,,,,,,,,,565,18,Woman,Right,0,26,0.4,1,180,-,180,1.351618900000176,['n'],0.8552385000002687,1.57,660.2848624999997,,,,,565,18,Woman,Right,
,,,,,,,,,,,,,,,,,565,18,Woman,Right,0,65,0.15,2,0,180,0,1.026938799999698,['n'],0.6947724999999991,1.562,664.7350573000003,,,,,565,18,Woman,Right,
,,,,,,,,,,,,,,,,,565,18,Woman,Right,0,63,0.15,2,180,0,180,1.2362431999999899,['n'],1.6391111999992063,1.428,671.0515443000004,,,,,565,18,Woman,Right,
,,,,,,,,,,,,,,,,,565,18,Woman,Right,0,68,0.15,1,0,-,180,2.492253100000198,['y'],0.7989835999997013,1.442,677.9851785000001,,,,,565,18,Woman,Right,
,,,,,,,,,,,,,,,,,565,18,Woman,Right,0,37,0.4,2,0,180,180,0.5981158000004143,['y'],0.8874402999999802,1.434,682.1016979000005,,,,,565,18,Woman,Right,
,,,,,,,,,,,,,,,,,565,18,Woman,Right,0,54,0.15,1,180,-,180,1.2521112000003995,['n'],1.2154417000001558,1.316,688.2515713000003,,,,,565,18,Woman,Right,
,,,,,,,,,,,,,,,,,565,18,Woman,Right,0,32,0.4,1,0,-,0,0.8053340000005846,['n'],0.8229591999997865,1.562,692.9681894000005,,,,,565,18,Woman,Right,
,,,,,,,,,,,,,,,,,565,18,Woman,Right,0,27,0.4,2,180,0,0,0.6514331000007587,['y'],1.398292500000025,1.6219999999999999,697.6018257000005,,,,,565,18,Woman,Right,
,,,,,,,,,,,,,,,,,565,18,Woman,Right,0,36,0.4,1,0,-,0,1.352309800000512,['n'],1.1668005000001358,1.334,704.8515555000004,,,,,565,18,Woman,Right,
,,,,,,,,,,,,,,,,,565,18,Woman,Right,0,17,0.4,2,0,180,180,1.3399809000002278,['y'],1.2789099999999962,1.67,710.8183169000004,,,,,565,18,Woman,Right,
,,,,,,,,,,,,,,,,,565,18,Woman,Right,0,48,0.15,1,0,-,0,1.248461099999986,['n'],1.3266975999995338,1.384,717.1682882000005,,,,,565,18,Woman,Right,
,,,,,,,,,,,,,,,,,565,18,Woman,Right,0,40,0.4,1,0,-,0,0.6340885999998136,['n'],1.0468722999994498,1.6219999999999999,721.3685237999998,,,,,565,18,Woman,Right,
,,,,,,,,,,,,,,,,,565,18,Woman,Right,0,5,1,2,0,180,180,0.5213705999995,['y'],1.03926489999958,1.716,725.7685270000002,,,,,565,18,Woman,Right,
,,,,,,,,,,,,,,,,,565,18,Woman,Right,0,76,0.15,1,0,-,180,4.853276499999993,['y'],1.0469880999999077,1.1560000000000001,735.7352405000001,,,,,565,18,Woman,Right,
,,,,,,,,,,,,,,,,,565,18,Woman,Right,0,52,0.15,1,0,-,0,1.252752800000053,['y'],4.07862539999951,1.046,745.8850751999998,,,,,565,18,Woman,Right,
,,,,,,,,,,,,,,,,,565,18,Woman,Right,0,28,0.4,1,0,-,180,4.852046500000142,['n'],1.5112240999997084,1.1179999999999999,756.2526674999999,,,,,565,18,Woman,Right,
,,,,,,,,,,,,,,,,,565,18,Woman,Right,0,3,1,2,180,0,0,0.50565910000023,['y'],0.9427126000000499,1.908,760.5686513999999,,,,,565,18,Woman,Right,
,,,,,,,,,,,,,,,,,565,18,Woman,Right,0,4,1,1,0,-,0,1.0673549000002822,['n'],0.9668689000000086,1.87,765.7850379000001,,,,,565,18,Woman,Right,
,,,,,,,,,,,,,,,,,565,18,Woman,Right,0,18,0.4,1,180,-,180,2.0557748999999603,['n'],0.758870399999978,1.67,771.5016597000003,,,,,565,18,Woman,Right,
,,,,,,,,,,,,,,,,,565,18,Woman,Right,0,6,1,1,180,-,180,0.7425177000004624,['n'],0.8942403000000922,1.738,776.1853053000004,,,,,565,18,Woman,Right,
,,,,,,,,,,,,,,,,,565,18,Woman,Right,0,10,0.4,1,180,-,180,1.1207478000005722,['n'],0.9265222000003632,1.734,781.2359305,,,,,565,18,Woman,Right,
,,,,,,,,,,,,,,,,,565,18,Woman,Right,0,57,0.15,2,0,180,0,0.6098532000005434,['n'],0.9111382999999478,1.734,785.6187172999998,,,,,565,18,Woman,Right,
,,,,,,,,,,,,,,,,,565,18,Woman,Right,0,15,0.4,2,180,0,180,0.9523329000003287,['n'],1.3591882999999143,1.426,792.1851735,,,,,565,18,Woman,Right,
,,,,,,,,,,,,,,,,,565,18,Woman,Right,0,61,0.15,2,0,180,0,2.050288499999624,['n'],1.7271438000007038,1.154,799.3685163,,,,,565,18,Woman,Right,
,,,,,,,,,,,,,,,,,565,18,Woman,Right,0,0,1,1,0,-,0,1.3204932999997254,['n'],1.038612500000454,1.8980000000000001,805.1018746999998,,,,,565,18,Woman,Right,
,,,,,,,,,,,,,,,,,565,18,Woman,Right,0,47,0.15,2,180,0,0,1.8836774000001242,['n'],1.755830099999912,1.046,812.3351413999999,,,,,565,18,Woman,Right,
,,,,,,,,,,,,,,,,,565,18,Woman,Right,0,29,0.4,2,0,180,180,1.6443527999999787,['y'],0.814767099999699,1.6440000000000001,817.3186752000001,,,,,565,18,Woman,Right,
,,,,,,,,,,,,,,,,,565,18,Woman,Right,0,44,0.15,1,0,-,0,0.9183896999993522,['n'],1.414648500000112,1.314,824.5687353000003,,,,,565,18,Woman,Right,
,,,,,,,,,,,,,,,,,565,18,Woman,Right,0,75,0.15,2,180,0,0,3.2021943999998257,['y'],1.1022540000003573,1.5779999999999998,833.7187929000002,,,,,565,18,Woman,Right,
,,,,,,,,,,,,,,,,,565,18,Woman,Right,0,24,0.4,1,0,-,0,0.7013685000001715,['n'],1.48678050000035,1.576,838.4519247999997,,,,,565,18,Woman,Right,
,,,,,,,,,,,,,,,,,565,18,Woman,Right,1,33,0.4,2,0,180,180,2.2146334999997634,['y'],0.7749635000000126,1.6059999999999999,870.1686059000003,72.5,62.5,70.0,,565,18,Woman,Right,
,,,,,,,,,,,,,,,,,565,18,Woman,Right,1,51,0.15,2,180,0,0,0.6159245999997438,['y'],0.7586752999995952,1.5979999999999999,874.6853354000004,,,,,565,18,Woman,Right,
,,,,,,,,,,,,,,,,,565,18,Woman,Right,1,75,0.15,2,180,0,0,0.6618478000000323,['y'],0.5188499000005322,1.6480000000000001,878.5362451000001,,,,,565,18,Woman,Right,
,,,,,,,,,,,,,,,,,565,18,Woman,Right,1,19,0.4,2,180,0,0,0.37465229999997973,['y'],0.2791680999998789,1.65,881.3521012000001,,,,,565,18,Woman,Right,
,,,,,,,,,,,,,,,,,565,18,Woman,Right,1,74,0.15,1,180,-,0,1.1539337999993222,['y'],0.3752972000002046,1.65,885.2353740999997,,,,,565,18,Woman,Right,
,,,,,,,,,,,,,,,,,565,18,Woman,Right,1,34,0.4,1,180,-,0,0.5965814000001046,['y'],0.574863999999252,1.65,889.2689224000005,,,,,565,18,Woman,Right,
,,,,,,,,,,,,,,,,,565,18,Woman,Right,1,40,0.4,1,0,-,0,1.392554499999278,['y'],0.46347010000044975,1.65,893.5689899999998,,,,,565,18,Woman,Right,
,,,,,,,,,,,,,,,,,565,18,Woman,Right,1,65,0.15,2,0,180,180,1.503754100000151,['y'],0.9909539000000223,1.376,899.0854423000001,,,,,565,18,Woman,Right,
,,,,,,,,,,,,,,,,,565,18,Woman,Right,1,20,0.4,1,0,-,180,2.954791400000431,['y'],0.25459050000063144,1.4100000000000001,905.4354169999997,,,,,565,18,Woman,Right,
,,,,,,,,,,,,,,,,,565,18,Woman,Right,1,46,0.15,1,180,-,0,1.0432451999995465,['n'],1.086628799999744,1.674,910.0688245000001,,,,,565,18,Woman,Right,
,,,,,,,,,,,,,,,,,565,18,Woman,Right,1,60,0.15,1,0,-,180,3.5420489000007365,['n'],0.6944399000003614,1.188,918.1190111000005,,,,,565,18,Woman,Right,
,,,,,,,,,,,,,,,,,565,18,Woman,Right,1,25,0.4,2,0,180,180,2.3512229999996634,['y'],0.8390493000006245,1.6099999999999999,923.8527236,,,,,565,18,Woman,Right,
,,,,,,,,,,,,,,,,,565,18,Woman,Right,1,28,0.4,1,0,-,0,0.9434887999996135,['n'],0.7987342999995235,1.6099999999999999,928.0688161999997,,,,,565,18,Woman,Right,
,,,,,,,,,,,,,,,,,565,18,Woman,Right,1,48,0.15,1,0,-,180,2.1168407999994088,['y'],0.5652122000001327,1.308,933.9855077000002,,,,,565,18,Woman,Right,
,,,,,,,,,,,,,,,,,565,18,Woman,Right,1,57,0.15,2,0,180,180,1.3531941999999617,['y'],0.614607800000158,1.506,939.6523544000001,,,,,565,18,Woman,Right,
,,,,,,,,,,,,,,,,,565,18,Woman,Right,1,78,0.15,1,180,-,0,1.4308264999999665,['y'],0.37483290000000125,1.608,943.9354832999998,,,,,565,18,Woman,Right,
,,,,,,,,,,,,,,,,,565,18,Woman,Right,1,70,0.15,1,180,-,0,1.3018198999998276,['n'],1.8867026999996597,1.282,950.6355451999998,,,,,565,18,Woman,Right,
,,,,,,,,,,,,,,,,,565,18,Woman,Right,1,47,0.15,2,180,0,0,3.282148899999811,['n'],2.1022751999998945,1.3359999999999999,958.6022358999999,,,,,565,18,Woman,Right,
,,,,,,,,,,,,,,,,,565,18,Woman,Right,1,8,0.4,1,0,-,0,0.9722541999999521,['n'],0.5348608000003878,1.728,963.8355931000006,,,,,565,18,Woman,Right,
,,,,,,,,,,,,,,,,,565,18,Woman,Right,1,0,1,1,0,-,0,0.3297437000001082,['n'],0.9825361000002886,1.724,967.5188875000003,,,,,565,18,Woman,Right,
,,,,,,,,,,,,,,,,,565,18,Woman,Right,1,30,0.4,1,180,-,180,0.7166463000003205,['n'],0.5736647999992783,1.724,971.1355573999999,,,,,565,18,Woman,Right,
,,,,,,,,,,,,,,,,,565,18,Woman,Right,1,67,0.15,2,180,0,180,1.1560663000000204,['n'],0.7110725000002276,1.684,975.7022831000004,,,,,565,18,Woman,Right,
,,,,,,,,,,,,,,,,,565,18,Woman,Right,1,9,0.4,2,0,180,180,1.2985775999995894,['y'],0.6469082999992679,1.6520000000000001,980.1189328,,,,,565,18,Woman,Right,
,,,,,,,,,,,,,,,,,565,18,Woman,Right,1,15,0.4,2,180,0,0,0.8705081999996764,['y'],0.950971500000378,1.6440000000000001,984.1691435000002,,,,,565,18,Woman,Right,
,,,,,,,,,,,,,,,,,565,18,Woman,Right,1,12,0.4,1,0,-,0,0.8984364999996615,['n'],1.0705596000007063,1.76,988.4688576999997,,,,,565,18,Woman,Right,
,,,,,,,,,,,,,,,,,565,18,Woman,Right,1,6,1,1,180,-,180,0.5388778999995338,['n'],0.8708740000001853,1.686,992.7690349000004,,,,,565,18,Woman,Right,
,,,,,,,,,,,,,,,,,565,18,Woman,Right,1,18,0.4,1,180,-,180,1.168695899999875,['n'],0.9426786999993055,1.584,998.4356141999997,,,,,565,18,Woman,Right,
,,,,,,,,,,,,,,,,,565,18,Woman,Right,1,69,0.15,2,0,180,0,0.9898824000001696,['n'],0.9032280999999784,1.812,1003.1856525000003,,,,,565,18,Woman,Right,
,,,,,,,,,,,,,,,,,565,18,Woman,Right,1,3,1,2,180,0,0,0.8102496999999858,['y'],1.079407700000047,1.79,1008.0194462,,,,,565,18,Woman,Right,
,,,,,,,,,,,,,,,,,565,18,Woman,Right,1,2,1,1,180,-,180,0.9293118000005052,['n'],0.7027736999998524,1.782,1012.0689279999997,,,,,565,18,Woman,Right,
,,,,,,,,,,,,,,,,,565,18,Woman,Right,1,13,0.4,2,0,180,180,1.0482332000001406,['y'],1.230662900000425,1.778,1017.2023375999997,,,,,565,18,Woman,Right,
,,,,,,,,,,,,,,,,,565,18,Woman,Right,1,17,0.4,2,0,180,180,0.7387034000003041,['y'],0.5988992000002327,1.778,1021.0689586999997,,,,,565,18,Woman,Right,
,,,,,,,,,,,,,,,,,565,18,Woman,Right,1,35,0.4,2,180,0,0,0.6898682999999437,['y'],0.2788350000000719,1.778,1024.452582,,,,,565,18,Woman,Right,
,,,,,,,,,,,,,,,,,565,18,Woman,Right,1,39,0.4,2,180,0,0,0.6425739000005706,['y'],0.43085010000049806,1.778,1028.0195340999999,,,,,565,18,Woman,Right,
,,,,,,,,,,,,,,,,,565,18,Woman,Right,1,10,0.4,1,180,-,0,0.5499974999993356,['y'],0.6227274000002581,1.778,1032.0524852999997,,,,,565,18,Woman,Right,
,,,,,,,,,,,,,,,,,565,18,Woman,Right,1,64,0.15,1,0,-,180,1.6704143999995722,['n'],1.111192100000153,1.23,1038.0192650999998,,,,,565,18,Woman,Right,
,,,,,,,,,,,,,,,,,565,18,Woman,Right,1,66,0.15,1,180,-,180,0.8856389000002309,['n'],2.038806499999737,1.3319999999999999,1043.4857337000003,,,,,565,18,Woman,Right,
,,,,,,,,,,,,,,,,,565,18,Woman,Right,1,77,0.15,2,0,180,0,0.9619150999997146,['n'],1.4317650000002686,1.634,1049.0857575,,,,,565,18,Woman,Right,
,,,,,,,,,,,,,,,,,565,18,Woman,Right,1,32,0.4,1,0,-,0,1.423112200000105,['n'],1.3990101999997933,1.6320000000000001,1054.2192936000001,,,,,565,18,Woman,Right,
,,,,,,,,,,,,,,,,,565,18,Woman,Right,1,44,0.15,1,0,-,180,0.9799820999996882,['y'],1.3348636999999144,1.362,1059.6190917000004,,,,,565,18,Woman,Right,
,,,,,,,,,,,,,,,,,565,18,Woman,Right,1,11,0.4,2,180,0,0,0.9200013999998191,['y'],1.1266271000004053,1.8639999999999999,1064.6023448000005,,,,,565,18,Woman,Right,
,,,,,,,,,,,,,,,,,565,18,Woman,Right,1,16,0.4,1,0,-,0,1.2576231000002736,['n'],0.8869941999992079,1.78,1069.4193405000005,,,,,565,18,Woman,Right,
,,,,,,,,,,,,,,,,,565,18,Woman,Right,1,45,0.15,2,0,180,0,0.8151615000006132,['y'],0.3828795999997965,1.718,1073.1358247999997,,,,,565,18,Woman,Right,
,,,,,,,,,,,,,,,,,565,18,Woman,Right,1,59,0.15,2,180,0,0,0.6751340999999229,['y'],0.8866831000004822,1.762,1077.0193710000003,,,,,565,18,Woman,Right,
,,,,,,,,,,,,,,,,,565,18,Woman,Right,1,52,0.15,1,0,-,0,0.5625534000000698,['n'],0.7108029999999417,1.76,1080.8525338999998,,,,,565,18,Woman,Right,
,,,,,,,,,,,,,,,,,565,18,Woman,Right,1,38,0.4,1,180,-,180,0.888078800000585,['n'],1.142806500000006,1.754,1085.4367494999997,,,,,565,18,Woman,Right,
,,,,,,,,,,,,,,,,,565,18,Woman,Right,1,36,0.4,1,0,-,0,0.5523485999992772,['n'],0.9028799000006984,1.6600000000000001,1089.4692084999997,,,,,565,18,Woman,Right,
,,,,,,,,,,,,,,,,,565,18,Woman,Right,1,24,0.4,1,0,-,0,0.6261716000008164,['n'],0.6948511999999027,1.608,1093.3027354000005,,,,,565,18,Woman,Right,
,,,,,,,,,,,,,,,,,565,18,Woman,Right,1,7,1,2,180,0,0,0.5602863999993133,['y'],0.7749980999997206,1.6320000000000001,1097.4527591000005,,,,,565,18,Woman,Right,
,,,,,,,,,,,,,,,,,565,18,Woman,Right,1,5,1,2,0,180,180,1.7602034999999887,['y'],1.1663238999999521,1.642,1103.0699251000005,,,,,565,18,Woman,Right,
,,,,,,,,,,,,,,,,,565,18,Woman,Right,1,29,0.4,2,0,180,180,3.599764999999934,['y'],1.574626000000535,1.6600000000000001,1110.9525442000004,,,,,565,18,Woman,Right,
,,,,,,,,,,,,,,,,,565,18,Woman,Right,1,26,0.4,1,180,-,180,0.7898197000004075,['n'],0.7509357999997519,1.6600000000000001,1115.0194333,,,,,565,18,Woman,Right,
,,,,,,,,,,,,,,,,,565,18,Woman,Right,1,61,0.15,2,0,180,180,0.5915761999995084,['n'],1.2469049999999697,1.308,1119.8028378999998,,,,,565,18,Woman,Right,
,,,,,,,,,,,,,,,,,565,18,Woman,Right,1,56,0.15,1,0,-,180,1.1136767999996664,['n'],2.1992094000006546,1.242,1126.3868098000003,,,,,565,18,Woman,Right,
,,,,,,,,,,,,,,,,,565,18,Woman,Right,1,21,0.4,2,0,180,180,1.4279130000004443,['y'],0.6389328000004753,1.6059999999999999,1131.0358798999996,,,,,565,18,Woman,Right,
,,,,,,,,,,,,,,,,,565,18,Woman,Right,1,58,0.15,1,180,-,180,0.8077401000009559,['n'],2.254776399999173,1.254,1137.0360179000008,,,,,565,18,Woman,Right,
,,,,,,,,,,,,,,,,,565,18,Woman,Right,1,71,0.15,2,180,0,0,0.766530299999431,['n'],0.9987719000000652,1.278,1141.369324100001,,,,,565,18,Woman,Right,
,,,,,,,,,,,,,,,,,565,18,Woman,Right,1,68,0.15,1,0,-,0,1.480428299999403,['n'],2.3749560000014753,1.188,1148.2026443999994,,,,,565,18,Woman,Right,
,,,,,,,,,,,,,,,,,565,18,Woman,Right,1,50,0.15,1,180,-,180,0.6765857000009419,['n'],1.8229432000007364,1.346,1153.3695426000004,,,,,565,18,Woman,Right,
,,,,,,,,,,,,,,,,,565,18,Woman,Right,1,63,0.15,2,180,0,0,1.6001234999985172,['y'],0.7749048000005132,1.502,1159.4859406999994,,,,,565,18,Woman,Right,
,,,,,,,,,,,,,,,,,565,18,Woman,Right,1,4,1,1,0,-,0,0.43977909999921394,['n'],0.7028596000000107,1.812,1163.7693797000002,,,,,565,18,Woman,Right,
,,,,,,,,,,,,,,,,,565,18,Woman,Right,1,43,0.4,2,180,0,0,1.0684732999998232,['y'],0.37500139999974635,1.818,1167.7527841,,,,,565,18,Woman,Right,
,,,,,,,,,,,,,,,,,565,18,Woman,Right,1,41,0.4,2,0,180,180,2.1952823999999964,['y'],0.7192906000000221,1.794,1172.9529276000003,,,,,565,18,Woman,Right,
,,,,,,,,,,,,,,,,,565,18,Woman,Right,1,42,0.4,1,180,-,180,0.43122760000005655,['n'],0.9111019000010856,1.706,1178.2359834000008,,,,,565,18,Woman,Right,
,,,,,,,,,,,,,,,,,565,18,Woman,Right,1,54,0.15,1,180,-,0,1.0482460000002902,['y'],0.4312318000011146,1.706,1181.8527537,,,,,565,18,Woman,Right,
,,,,,,,,,,,,,,,,,565,18,Woman,Right,1,72,0.15,1,0,-,180,0.48589150000043446,['y'],0.7036861999986286,1.6520000000000001,1186.2194859,,,,,565,18,Woman,Right,
,,,,,,,,,,,,,,,,,565,18,Woman,Right,1,14,0.4,1,180,-,180,0.5139149000006,['n'],0.7668612000015855,1.72,1190.1368979000008,,,,,565,18,Woman,Right,
,,,,,,,,,,,,,,,,,565,18,Woman,Right,1,53,0.15,2,0,180,0,1.2425566999991133,['y'],0.6229886000000988,1.73,1194.4528087000008,,,,,565,18,Woman,Right,
,,,,,,,,,,,,,,,,,565,18,Woman,Right,1,79,0.15,2,180,0,180,1.047328299999208,['n'],0.7025553000003129,1.252,1199.8360671,,,,,565,18,Woman,Right,
,,,,,,,,,,,,,,,,,565,18,Woman,Right,1,55,0.15,2,180,0,180,0.587113200001113,['y'],1.1671174000002793,1.18,1204.702848,,,,,565,18,Woman,Right,
,,,,,,,,,,,,,,,,,565,18,Woman,Right,1,22,0.4,1,180,-,180,1.0359595999998419,['n'],0.5905843999989884,1.196,1208.8361032000003,,,,,565,18,Woman,Right,
,,,,,,,,,,,,,,,,,565,18,Woman,Right,1,27,0.4,2,180,0,0,0.7416083000007347,['y'],1.3271204000011494,1.72,1213.6529756999998,,,,,565,18,Woman,Right,
,,,,,,,,,,,,,,,,,565,18,Woman,Right,1,37,0.4,2,0,180,180,1.1065232999990258,['n'],1.1986471000000165,1.17,1220.2197143000003,,,,,565,18,Woman,Right,
,,,,,,,,,,,,,,,,,565,18,Woman,Right,1,62,0.15,1,180,-,0,0.5849718999998004,['y'],0.6468327999991743,1.6680000000000001,1224.4028773,,,,,565,18,Woman,Right,
,,,,,,,,,,,,,,,,,565,18,Woman,Right,1,1,1,2,0,180,180,0.9561567999990075,['y'],0.7669162999991386,1.854,1229.8861198000004,,,,,565,18,Woman,Right,
,,,,,,,,,,,,,,,,,565,18,Woman,Right,1,49,0.15,2,0,180,180,1.8042160000004515,['y'],0.9828897000006691,1.3900000000000001,1235.3861795000003,,,,,565,18,Woman,Right,
,,,,,,,,,,,,,,,,,565,18,Woman,Right,1,31,0.4,2,180,0,0,0.3204424999985349,['y'],0.7426242999990791,1.8780000000000001,1239.1028402000002,,,,,565,18,Woman,Right,
,,,,,,,,,,,,,,,,,565,18,Woman,Right,1,73,0.15,2,0,180,180,0.5909418999999616,['n'],1.6151324000002205,1.3,1244.586220100001,,,,,565,18,Woman,Right,
,,,,,,,,,,,,,,,,,565,18,Woman,Right,1,23,0.4,2,180,0,0,0.7193518999993103,['y'],0.8789055999986886,1.748,1248.7697273999993,,,,,565,18,Woman,Right,
,,,,,,,,,,,,,,,,,565,18,Woman,Right,1,76,0.15,1,0,-,180,0.6723686000004818,['n'],1.4465505999996822,1.29,1253.7029336000005,,,,,565,18,Woman,Right,
,,,,,,,,,,,,,,,,,565,18,Woman,Right,2,6,1,1,180,-,180,0.8565825999994559,['n'],1.19098699999995,1.742,1279.0205593,71.25,72.5,77.5,,565,18,Woman,Right,
,,,,,,,,,,,,,,,,,565,18,Woman,Right,2,36,0.4,1,0,-,0,0.3837337999993906,['n'],1.5424823000012111,1.8,1284.0696675000008,,,,,565,18,Woman,Right,
,,,,,,,,,,,,,,,,,565,18,Woman,Right,2,0,1,1,0,-,0,1.5998228000007657,['n'],0.6951726000006602,1.776,1288.6196109000002,,,,,565,18,Woman,Right,
,,,,,,,,,,,,,,,,,565,18,Woman,Right,2,41,0.4,2,0,180,180,0.5502923999993072,['y'],0.37079959999937273,1.76,1292.3196811999996,,,,,565,18,Woman,Right,
,,,,,,,,,,,,,,,,,565,18,Woman,Right,2,47,0.15,2,180,0,180,0.6198808999997709,['y'],0.9748368000000482,1.76,1296.1199793999995,,,,,565,18,Woman,Right,
,,,,,,,,,,,,,,,,,565,18,Woman,Right,2,22,0.4,1,180,-,180,0.396475499999724,['n'],0.8632792999997037,1.464,1301.0863266999995,,,,,565,18,Woman,Right,
,,,,,,,,,,,,,,,,,565,18,Woman,Right,2,59,0.15,2,180,0,180,0.6788263999987976,['n'],1.1185755999995308,1.32,1306.3873068000003,,,,,565,18,Woman,Right,
,,,,,,,,,,,,,,,,,565,18,Woman,Right,2,28,0.4,1,0,-,0,0.35206079999989015,['n'],0.8229704999994283,1.6480000000000001,1310.2362834999994,,,,,565,18,Woman,Right,
,,,,,,,,,,,,,,,,,565,18,Woman,Right,2,77,0.15,2,0,180,180,0.5600995000004332,['n'],0.9586216999996395,1.1280000000000001,1314.6030830000009,,,,,565,18,Woman,Right,
,,,,,,,,,,,,,,,,,565,18,Woman,Right,2,5,1,2,0,180,180,1.8551128999988578,['y'],0.6150761999997485,1.77,1319.4863732999993,,,,,565,18,Woman,Right,
,,,,,,,,,,,,,,,,,565,18,Woman,Right,2,43,0.4,2,180,0,0,0.34991900000022724,['y'],0.4385729000005085,1.76,1322.7699538999996,,,,,565,18,Woman,Right,
,,,,,,,,,,,,,,,,,565,18,Woman,Right,2,55,0.15,2,180,0,180,0.5196697000010317,['n'],2.110853899999711,1.158,1329.2039773000006,,,,,565,18,Woman,Right,
,,,,,,,,,,,,,,,,,565,18,Woman,Right,2,17,0.4,2,0,180,180,0.5240813999989768,['y'],0.75038080000013,1.726,1333.1198016999997,,,,,565,18,Woman,Right,
,,,,,,,,,,,,,,,,,565,18,Woman,Right,2,61,0.15,2,0,180,180,0.3753729999989446,['y'],2.086501399999179,1.2,1338.6530551999995,,,,,565,18,Woman,Right,
,,,,,,,,,,,,,,,,,565,18,Woman,Right,2,78,0.15,1,180,-,180,0.3145403999988048,['y'],0.5986988999993628,1.226,1342.6709839999994,,,,,565,18,Woman,Right,
,,,,,,,,,,,,,,,,,565,18,Woman,Right,2,10,0.4,1,180,-,0,0.5778902000001835,['y'],0.6870699999999488,1.588,1347.2364480000006,,,,,565,18,Woman,Right,
,,,,,,,,,,,,,,,,,565,18,Woman,Right,2,44,0.15,1,0,-,180,0.33419429999958083,['n'],0.6629053999986354,1.092,1351.5539815000002,,,,,565,18,Woman,Right,
,,,,,,,,,,,,,,,,,565,18,Woman,Right,2,32,0.4,1,0,-,0,1.7519028000006074,['n'],0.7985418000007485,1.292,1358.6698127000009,,,,,565,18,Woman,Right,
,,,,,,,,,,,,,,,,,565,18,Woman,Right,2,18,0.4,1,180,-,180,7.193217699999877,['n'],0.9108522000005905,1.1099999999999999,1370.4698417000009,,,,,565,18,Woman,Right,
,,,,,,,,,,,,,,,,,565,18,Woman,Right,2,39,0.4,2,180,0,0,0.40961369999968156,['y'],0.7587908000004973,1.786,1374.1365018000006,,,,,565,18,Woman,Right,
,,,,,,,,,,,,,,,,,565,18,Woman,Right,2,52,0.15,1,0,-,180,0.3006117999993876,['n'],0.998653300001024,1.062,1378.5532713000002,,,,,565,18,Woman,Right,
,,,,,,,,,,,,,,,,,565,18,Woman,Right,2,66,0.15,1,180,-,0,0.28021170000101847,['y'],0.7190811999989819,1.75,1382.2698384000005,,,,,565,18,Woman,Right,
,,,,,,,,,,,,,,,,,565,18,Woman,Right,2,69,0.15,2,0,180,180,0.8227510999986407,['y'],0.8625018000002456,1.71,1386.1366195,,,,,565,18,Woman,Right,
,,,,,,,,,,,,,,,,,565,18,Woman,Right,2,11,0.4,2,180,0,180,2.1265949999997247,['y'],0.37441600000056496,1.7,1390.8364656999993,,,,,565,18,Woman,Right,
,,,,,,,,,,,,,,,,,565,18,Woman,Right,2,19,0.4,2,180,0,0,0.32930969999870285,['y'],0.3509090000006836,1.774,1394.1198943999998,,,,,565,18,Woman,Right,
,,,,,,,,,,,,,,,,,565,18,Woman,Right,2,34,0.4,1,180,-,0,0.30661399999917194,['y'],0.36700759999985166,1.776,1397.3201278000006,,,,,565,18,Woman,Right,
,,,,,,,,,,,,,,,,,565,18,Woman,Right,2,67,0.15,2,180,0,0,0.2414570000000822,['y'],0.31108059999860416,1.772,1400.3364683999998,,,,,565,18,Woman,Right,
,,,,,,,,,,,,,,,,,565,18,Woman,Right,2,8,0.4,1,0,-,180,5.49679020000076,['y'],1.0786871000000247,1.21,1410.3032362999993,,,,,565,18,Woman,Right,
,,,,,,,,,,,,,,,,,565,18,Woman,Right,2,68,0.15,1,0,-,180,0.6771726000006311,"['n', 'y']",1.1345920999992813,1.186,1414.7699789000008,,,,,565,18,Woman,Right,
,,,,,,,,,,,,,,,,,565,18,Woman,Right,2,26,0.4,1,180,-,180,1.6127739000003203,['n'],1.0226870000005874,1.262,1420.0533772000008,,,,,565,18,Woman,Right,
,,,,,,,,,,,,,,,,,565,18,Woman,Right,2,14,0.4,1,180,-,180,0.9835844999997789,['n'],1.1746598999998241,1.188,1425.203512000001,,,,,565,18,Woman,Right,
,,,,,,,,,,,,,,,,,565,18,Woman,Right,2,40,0.4,1,0,-,0,0.32857639999929233,['n'],0.6230230999990454,1.684,1428.9535409999999,,,,,565,18,Woman,Right,
,,,,,,,,,,,,,,,,,565,18,Woman,Right,2,54,0.15,1,180,-,180,0.43165200000112236,['y'],2.0384976000004826,1.188,1434.3200114,,,,,565,18,Woman,Right,
,,,,,,,,,,,,,,,,,565,18,Woman,Right,2,23,0.4,2,180,0,0,0.6424267999991571,['y'],0.439278200001354,1.79,1438.2700453000007,,,,,565,18,Woman,Right,
,,,,,,,,,,,,,,,,,565,18,Woman,Right,2,58,0.15,1,180,-,0,0.8281776000003447,['n'],0.3585427999987587,1.172,1442.5200438000002,,,,,565,18,Woman,Right,
,,,,,,,,,,,,,,,,,565,18,Woman,Right,2,21,0.4,2,0,180,180,0.5332854999996925,['y'],0.8040787999998429,1.748,1447.7533935000001,,,,,565,18,Woman,Right,
,,,,,,,,,,,,,,,,,565,18,Woman,Right,2,30,0.4,1,180,-,180,0.8168117000004713,['n'],0.6246036000011372,1.772,1451.4701617,,,,,565,18,Woman,Right,
,,,,,,,,,,,,,,,,,565,18,Woman,Right,2,20,0.4,1,0,-,0,1.3279657000002771,['n'],1.4706087000013213,1.1320000000000001,1457.7201109000007,,,,,565,18,Woman,Right,
,,,,,,,,,,,,,,,,,565,18,Woman,Right,2,46,0.15,1,180,-,180,1.0261274999993475,['y'],0.44658979999985604,1.234,1462.3702244000006,,,,,565,18,Woman,Right,
,,,,,,,,,,,,,,,,,565,18,Woman,Right,2,76,0.15,1,0,-,180,0.5216574999994918,['y'],0.4548819999999978,1.22,1466.2368121999998,,,,,565,18,Woman,Right,
,,,,,,,,,,,,,,,,,565,18,Woman,Right,2,75,0.15,2,180,0,180,1.962998900000457,['n'],0.8550921999994898,1.172,1471.8034149999994,,,,,565,18,Woman,Right,
,,,,,,,,,,,,,,,,,565,18,Woman,Right,2,57,0.15,2,0,180,0,0.37281200000143144,['y'],0.6953212000007625,1.272,1476.570074100001,,,,,565,18,Woman,Right,
,,,,,,,,,,,,,,,,,565,18,Woman,Right,2,27,0.4,2,180,0,0,0.7857179999991786,['y'],0.7667731000001368,1.624,1480.6203644000007,,,,,565,18,Woman,Right,
,,,,,,,,,,,,,,,,,565,18,Woman,Right,2,37,0.4,2,0,180,180,1.4343900000003487,['y'],0.8710676999999123,1.736,1485.3036487,,,,,565,18,Woman,Right,
,,,,,,,,,,,,,,,,,565,18,Woman,Right,2,7,1,2,180,0,0,1.7738215000008495,['y'],0.6066630999994231,1.782,1490.3367884000008,,,,,565,18,Woman,Right,
,,,,,,,,,,,,,,,,,565,18,Woman,Right,2,38,0.4,1,180,-,180,1.221653900000092,['n'],1.0306916999998066,1.1059999999999999,1495.7203531999994,,,,,565,18,Woman,Right,
,,,,,,,,,,,,,,,,,565,18,Woman,Right,2,65,0.15,2,0,180,180,0.8541643999997177,['y'],0.8149417999993602,1.79,1499.7868301000008,,,,,565,18,Woman,Right,
,,,,,,,,,,,,,,,,,565,18,Woman,Right,2,63,0.15,2,180,0,180,1.6742355000005773,['y'],0.3268533999998908,1.642,1504.4701431000003,,,,,565,18,Woman,Right,
,,,,,,,,,,,,,,,,,565,18,Woman,Right,2,13,0.4,2,0,180,180,0.27580370000032417,['y'],0.9106680000004417,1.8900000000000001,1509.9867347000009,,,,,565,18,Woman,Right,
,,,,,,,,,,,,,,,,,565,18,Woman,Right,2,35,0.4,2,180,0,0,3.4063501000000542,['y'],0.614652099999148,1.634,1516.4700980999996,,,,,565,18,Woman,Right,
,,,,,,,,,,,,,,,,,565,18,Woman,Right,2,4,1,1,0,-,0,1.366935599999124,['n'],0.5587283999993815,1.676,1520.7037584,,,,,565,18,Woman,Right,
,,,,,,,,,,,,,,,,,565,18,Woman,Right,2,15,0.4,2,180,0,0,1.818890000000465,['y'],0.8140247999999701,1.792,1525.5204108999997,,,,,565,18,Woman,Right,
,,,,,,,,,,,,,,,,,565,18,Woman,Right,2,12,0.4,1,0,-,180,1.510400999999547,['y'],0.39856090000102995,1.6019999999999999,1530.2535696000004,,,,,565,18,Woman,Right,
,,,,,,,,,,,,,,,,,565,18,Woman,Right,2,42,0.4,1,180,-,180,0.46741739999924903,['n'],0.7699014000008901,1.068,1534.453487400001,,,,,565,18,Woman,Right,
,,,,,,,,,,,,,,,,,565,18,Woman,Right,2,60,0.15,1,0,-,180,0.48194689999945695,['y'],0.4307805999997072,1.084,1537.9535394999994,,,,,565,18,Woman,Right,
,,,,,,,,,,,,,,,,,565,18,Woman,Right,2,45,0.15,2,0,180,180,0.5058306999999331,['n'],0.5674218999993172,1.086,1541.8202339999998,,,,,565,18,Woman,Right,
,,,,,,,,,,,,,,,,,565,18,Woman,Right,2,16,0.4,1,0,-,0,0.4282026999990194,['n'],0.7106831000000966,1.5939999999999999,1545.7202423000008,,,,,565,18,Woman,Right,
,,,,,,,,,,,,,,,,,565,18,Woman,Right,2,74,0.15,1,180,-,180,0.18892480000067735,"['n', 'y']",2.366731800000707,1.1139999999999999,1552.3202787,,,,,565,18,Woman,Right,
,,,,,,,,,,,,,,,,,565,18,Woman,Right,2,31,0.4,2,180,0,180,1.8974794000005204,['y'],0.870556800000486,1.5819999999999999,1558.2537822999993,,,,,565,18,Woman,Right,
,,,,,,,,,,,,,,,,,565,18,Woman,Right,2,3,1,2,180,0,0,0.32761289999871224,['y'],0.6235765000001265,1.9060000000000001,1562.1870026999995,,,,,565,18,Woman,Right,
,,,,,,,,,,,,,,,,,565,18,Woman,Right,2,2,1,1,180,-,180,0.4885004999996454,['n'],0.671253099999376,1.8479999999999999,1565.7369597999996,,,,,565,18,Woman,Right,
,,,,,,,,,,,,,,,,,565,18,Woman,Right,2,79,0.15,2,180,0,180,0.3594931000006909,['y'],1.00673309999911,1.09,1570.7540421999993,,,,,565,18,Woman,Right,
,,,,,,,,,,,,,,,,,565,18,Woman,Right,2,73,0.15,2,0,180,0,0.8843101999991632,['n'],0.7272164000005432,1.312,1575.3538005,,,,,565,18,Woman,Right,
,,,,,,,,,,,,,,,,,565,18,Woman,Right,2,72,0.15,1,0,-,0,0.8189840000013646,['n'],0.4470586000006733,1.244,1579.0536765000006,,,,,565,18,Woman,Right,
,,,,,,,,,,,,,,,,,565,18,Woman,Right,2,50,0.15,1,180,-,180,0.18057479999879433,['y'],0.37516390000018873,1.1219999999999999,1582.6038734999993,,,,,565,18,Woman,Right,
,,,,,,,,,,,,,,,,,565,18,Woman,Right,2,9,0.4,2,0,180,180,1.6795550000006187,['y'],0.9988558999993984,1.708,1587.6705198999998,,,,,565,18,Woman,Right,
,,,,,,,,,,,,,,,,,565,18,Woman,Right,2,62,0.15,1,180,-,180,0.7195549000007304,['n'],1.9590549999993527,1.708,1592.5704278999992,,,,,565,18,Woman,Right,
,,,,,,,,,,,,,,,,,565,18,Woman,Right,2,51,0.15,2,180,0,0,0.6957196000003023,['y'],0.36692129999937606,1.708,1596.6703664000006,,,,,565,18,Woman,Right,
,,,,,,,,,,,,,,,,,565,18,Woman,Right,2,48,0.15,1,0,-,180,0.274330899999768,['n'],0.8879157999999734,1.06,1600.7869648000005,,,,,565,18,Woman,Right,
,,,,,,,,,,,,,,,,,565,18,Woman,Right,2,64,0.15,1,0,-,0,0.41835530000025756,['n'],0.3990914000005432,1.6,1604.2205733,,,,,565,18,Woman,Right,
,,,,,,,,,,,,,,,,,565,18,Woman,Right,2,56,0.15,1,0,-,180,0.25586979999934556,['y'],0.4066779000004317,1.166,1608.270610300001,,,,,565,18,Woman,Right,
,,,,,,,,,,,,,,,,,565,18,Woman,Right,2,29,0.4,2,0,180,180,0.7468981999991229,['y'],0.3192505999995774,1.772,1612.2372609000004,,,,,565,18,Woman,Right,
,,,,,,,,,,,,,,,,,565,18,Woman,Right,2,70,0.15,1,180,-,180,0.9591827999993257,['n'],0.3428511999991315,1.134,1616.7870747000006,,,,,565,18,Woman,Right,
,,,,,,,,,,,,,,,,,565,18,Woman,Right,2,49,0.15,2,0,180,180,1.3702997000000323,['y'],0.4069058999994013,1.666,1621.0539424000008,,,,,565,18,Woman,Right,
,,,,,,,,,,,,,,,,,565,18,Woman,Right,2,33,0.4,2,0,180,180,0.9742191000004823,['y'],0.6868622000001778,1.714,1625.0043725999994,,,,,565,18,Woman,Right,
,,,,,,,,,,,,,,,,,565,18,Woman,Right,2,53,0.15,2,0,180,180,0.633715600000869,['y'],0.3827306999992288,1.7,1628.1540252000004,,,,,565,18,Woman,Right,
,,,,,,,,,,,,,,,,,565,18,Woman,Right,2,24,0.4,1,0,-,0,0.37334939999891503,['n'],0.6383980000009615,1.8639999999999999,1631.6037079999996,,,,,565,18,Woman,Right,
,,,,,,,,,,,,,,,,,565,18,Woman,Right,2,1,1,2,0,180,180,0.7964372999995248,['y'],0.741910700000517,2.0,1636.3041201000005,,,,,565,18,Woman,Right,
,,,,,,,,,,,,,,,,,565,18,Woman,Right,2,25,0.4,2,0,180,180,0.9790212000007159,['y'],0.7027704000010999,1.842,1640.3204950000008,,,,,565,18,Woman,Right,
,,,,,,,,,,,,,,,,,565,18,Woman,Right,2,71,0.15,2,180,0,0,0.33262890000150946,['y'],0.4072305999998207,1.842,1643.1871156000007,,,,,565,18,Woman,Right,
,,,,,,,,,,,,,,,,,565,18,Woman,Right,3,2,1,1,180,-,180,2.7833651000000827,['n'],1.710741599999892,1.782,1686.4872583999995,71.25,70.0,85.0,,565,18,Woman,Right,
,,,,,,,,,,,,,,,,,565,18,Woman,Right,3,11,0.4,2,180,0,0,0.3368264000000636,['y'],0.7507822999996279,1.832,1689.8038920999998,,,,,565,18,Woman,Right,
,,,,,,,,,,,,,,,,,565,18,Woman,Right,3,73,0.15,2,0,180,180,1.2191774000002624,['y'],1.0149267000015243,1.086,1695.4540848000006,,,,,565,18,Woman,Right,
,,,,,,,,,,,,,,,,,565,18,Woman,Right,3,22,0.4,1,180,-,180,0.3680738000002748,['n'],0.8786462000007305,1.8439999999999999,1699.3375045000003,,,,,565,18,Woman,Right,
,,,,,,,,,,,,,,,,,565,18,Woman,Right,3,77,0.15,2,0,180,180,1.2985475999994378,['y'],0.5107726999995066,1.832,1703.4373169,,,,,565,18,Woman,Right,
,,,,,,,,,,,,,,,,,565,18,Woman,Right,3,14,0.4,1,180,-,0,0.28841990000000806,['y'],0.8868440999995073,1.832,1706.9207484000008,,,,,565,18,Woman,Right,
,,,,,,,,,,,,,,,,,565,18,Woman,Right,3,25,0.4,2,0,180,180,2.832124099999419,['y'],0.7909571000000142,1.832,1712.6706217,,,,,565,18,Woman,Right,
,,,,,,,,,,,,,,,,,565,18,Woman,Right,3,75,0.15,2,180,0,180,0.9823659000012412,['n'],0.27084090000062133,1.1280000000000001,1716.7039572999993,,,,,565,18,Woman,Right,
,,,,,,,,,,,,,,,,,565,18,Woman,Right,3,60,0.15,1,0,-,180,1.8785330000009708,['y'],0.32661969999935536,1.168,1721.5873880000008,,,,,565,18,Woman,Right,
,,,,,,,,,,,,,,,,,565,18,Woman,Right,3,49,0.15,2,0,180,180,0.3949683000009827,['n'],0.30213329999969574,1.028,1725.0548614000008,,,,,565,18,Woman,Right,
,,,,,,,,,,,,,,,,,565,18,Woman,Right,3,8,0.4,1,0,-,0,0.45564720000038506,['n'],0.3434046999991551,1.792,1728.4205960000008,,,,,565,18,Woman,Right,
,,,,,,,,,,,,,,,,,565,18,Woman,Right,3,57,0.15,2,0,180,180,0.7004985000003217,['y'],0.3828451000008499,1.074,1732.2710271999995,,,,,565,18,Woman,Right,
,,,,,,,,,,,,,,,,,565,18,Woman,Right,3,65,0.15,2,0,180,180,0.263930099999925,['n'],0.36693709999963176,1.1219999999999999,1735.2717332000002,,,,,565,18,Woman,Right,
,,,,,,,,,,,,,,,,,565,18,Woman,Right,3,67,0.15,2,180,0,180,0.6329580000001442,['y'],0.4868757000003825,1.688,1739.7376025999993,,,,,565,18,Woman,Right,
,,,,,,,,,,,,,,,,,565,18,Woman,Right,3,29,0.4,2,0,180,180,0.4597851999988052,['y'],0.4787907999998424,1.8980000000000001,1743.2874008000008,,,,,565,18,Woman,Right,
,,,,,,,,,,,,,,,,,565,18,Woman,Right,3,63,0.15,2,180,0,180,0.3001736999995046,['y'],0.30637380000007397,1.048,1746.4539995999994,,,,,565,18,Woman,Right,
,,,,,,,,,,,,,,,,,565,18,Woman,Right,3,64,0.15,1,0,-,0,0.6173149000005651,['n'],0.4648051000003761,1.732,1749.8373899000007,,,,,565,18,Woman,Right,
,,,,,,,,,,,,,,,,,565,18,Woman,Right,3,26,0.4,1,180,-,180,0.5035504000006767,['n'],0.3750514999992447,1.714,1753.1041376000003,,,,,565,18,Woman,Right,
,,,,,,,,,,,,,,,,,565,18,Woman,Right,3,21,0.4,2,0,180,180,0.39999510000052396,['y'],0.4467339000002539,1.792,1756.9884259,,,,,565,18,Woman,Right,
,,,,,,,,,,,,,,,,,565,18,Woman,Right,3,27,0.4,2,180,0,0,0.6809325999984139,['y'],0.3190770999990491,1.8719999999999999,1760.5542101,,,,,565,18,Woman,Right,
,,,,,,,,,,,,,,,,,565,18,Woman,Right,3,34,0.4,1,180,-,0,0.795172600001024,['y'],0.6151494999994611,2.0,1764.3542540000008,,,,,565,18,Woman,Right,
,,,,,,,,,,,,,,,,,565,18,Woman,Right,3,4,1,1,0,-,0,0.5577477999995608,['n'],0.7105916000000434,2.0,1767.9374859999998,,,,,565,18,Woman,Right,
,,,,,,,,,,,,,,,,,565,18,Woman,Right,3,31,0.4,2,180,0,0,1.0007838000001357,['y'],0.7911958000004233,1.706,1772.870724200001,,,,,565,18,Woman,Right,
,,,,,,,,,,,,,,,,,565,18,Woman,Right,3,7,1,2,180,0,0,0.567467900000338,['y'],0.3031336000003648,1.996,1778.4541450000006,,,,,565,18,Woman,Right,
,,,,,,,,,,,,,,,,,565,18,Woman,Right,3,53,0.15,2,0,180,180,0.6573969999990368,['y'],0.6550280999999814,1.6560000000000001,1782.3708063999993,,,,,565,18,Woman,Right,
,,,,,,,,,,,,,,,,,565,18,Woman,Right,3,9,0.4,2,0,180,180,1.467416499999672,['y'],0.6381868000007671,1.74,1786.6376632000001,,,,,565,18,Woman,Right,
,,,,,,,,,,,,,,,,,565,18,Woman,Right,3,58,0.15,1,180,-,180,0.5566631999990932,['n'],0.9269959000012022,1.108,1790.7374614999999,,,,,565,18,Woman,Right,
,,,,,,,,,,,,,,,,,565,18,Woman,Right,3,79,0.15,2,180,0,180,1.6137140000009822,['n'],0.5509081000000151,1.078,1796.9881202000006,,,,,565,18,Woman,Right,
,,,,,,,,,,,,,,,,,565,18,Woman,Right,3,13,0.4,2,0,180,180,0.40815699999984645,['y'],0.7107323999989603,1.774,1800.520855400001,,,,,565,18,Woman,Right,
,,,,,,,,,,,,,,,,,565,18,Woman,Right,3,50,0.15,1,180,-,180,0.2997821999997541,"['n', 'y']",0.7905914999992092,1.022,1804.3379221000005,,,,,565,18,Woman,Right,
,,,,,,,,,,,,,,,,,565,18,Woman,Right,3,55,0.15,2,180,0,180,0.34559140000055777,['n'],0.3585086000002775,1.054,1807.588088900001,,,,,565,18,Woman,Right,
,,,,,,,,,,,,,,,,,565,18,Woman,Right,3,66,0.15,1,180,-,180,0.6622244000009232,['y'],0.6789129000007961,1.086,1812.387789200001,,,,,565,18,Woman,Right,
,,,,,,,,,,,,,,,,,565,18,Woman,Right,3,18,0.4,1,180,-,0,0.5281138999998802,['y'],1.0948386999989452,1.6099999999999999,1817.0710408999994,,,,,565,18,Woman,Right,
,,,,,,,,,,,,,,,,,565,18,Woman,Right,3,72,0.15,1,0,-,180,0.33136730000114767,['y'],0.3427599000006012,1.04,1820.4211232999996,,,,,565,18,Woman,Right,
,,,,,,,,,,,,,,,,,565,18,Woman,Right,3,5,1,2,0,180,180,0.5082173999999213,['y'],0.6629838999997446,1.988,1824.5043374999996,,,,,565,18,Woman,Right,
,,,,,,,,,,,,,,,,,565,18,Woman,Right,3,71,0.15,2,180,0,180,0.2709405000005063,['y'],0.32643669999924896,1.058,1827.9552211,,,,,565,18,Woman,Right,
,,,,,,,,,,,,,,,,,565,18,Woman,Right,3,44,0.15,1,0,-,180,1.897834100000182,['y'],0.31924400000025344,1.772,1832.5542441000007,,,,,565,18,Woman,Right,
,,,,,,,,,,,,,,,,,565,18,Woman,Right,3,54,0.15,1,180,-,180,0.9041632000007667,['y'],0.6786056000000826,1.558,1837.6043027999995,,,,,565,18,Woman,Right,
,,,,,,,,,,,,,,,,,565,18,Woman,Right,3,46,0.15,1,180,-,180,0.15782630000103381,['y'],0.5191589999994903,1.058,1842.0709371999992,,,,,565,18,Woman,Right,
,,,,,,,,,,,,,,,,,565,18,Woman,Right,3,76,0.15,1,0,-,180,0.33840299999974377,['y'],0.3748383999991347,1.07,1845.105149,,,,,565,18,Woman,Right,
,,,,,,,,,,,,,,,,,565,18,Woman,Right,3,36,0.4,1,0,-,0,0.5612559000001056,['n'],0.5428336999993917,1.274,1849.5043108,,,,,565,18,Woman,Right,
,,,,,,,,,,,,,,,,,565,18,Woman,Right,3,37,0.4,2,0,180,180,0.4978436999990663,['y'],0.47065549999933864,1.862,1853.0209980999998,,,,,565,18,Woman,Right,
,,,,,,,,,,,,,,,,,565,18,Woman,Right,3,17,0.4,2,0,180,180,2.3377944999992906,['y'],0.41473970000151894,1.72,1860.3713811000007,,,,,565,18,Woman,Right,
,,,,,,,,,,,,,,,,,565,18,Woman,Right,3,45,0.15,2,0,180,0,0.6350671000000148,['y'],0.8709646000006614,1.736,1864.0212008999997,,,,,565,18,Woman,Right,
,,,,,,,,,,,,,,,,,565,18,Woman,Right,3,0,1,1,0,-,0,0.436935399999129,['n'],0.6709741999984544,1.734,1867.4878462999995,,,,,565,18,Woman,Right,
,,,,,,,,,,,,,,,,,565,18,Woman,Right,3,39,0.4,2,180,0,0,0.7373917999993864,['y'],1.1988237999994453,1.8439999999999999,1873.8712951999996,,,,,565,18,Woman,Right,
,,,,,,,,,,,,,,,,,565,18,Woman,Right,3,70,0.15,1,180,-,180,0.9273682999992161,['n'],1.518946700000015,1.068,1879.5885977999997,,,,,565,18,Woman,Right,
,,,,,,,,,,,,,,,,,565,18,Woman,Right,3,41,0.4,2,0,180,180,0.49108700000033423,['y'],0.42307029999938095,2.0,1882.972116,,,,,565,18,Woman,Right,
,,,,,,,,,,,,,,,,,565,18,Woman,Right,3,1,1,2,0,180,180,0.4481704999998328,['y'],0.8628554000006261,1.926,1886.9043487999998,,,,,565,18,Woman,Right,
,,,,,,,,,,,,,,,,,565,18,Woman,Right,3,69,0.15,2,0,180,180,0.7387636000003113,['y'],0.43888929999957327,1.96,1890.3212782,,,,,565,18,Woman,Right,
,,,,,,,,,,,,,,,,,565,18,Woman,Right,3,42,0.4,1,180,-,0,0.4492083000004641,['y'],0.32649920000039856,1.946,1893.3211237999994,,,,,565,18,Woman,Right,
,,,,,,,,,,,,,,,,,565,18,Woman,Right,3,3,1,2,180,0,0,0.4842277000007016,['y'],0.31874769999922137,1.948,1896.2044133999998,,,,,565,18,Woman,Right,
,,,,,,,,,,,,,,,,,565,18,Woman,Right,3,62,0.15,1,180,-,180,0.48401560000093014,['y'],1.1589309999999386,1.02,1900.637909,,,,,565,18,Woman,Right,
,,,,,,,,,,,,,,,,,565,18,Woman,Right,3,30,0.4,1,180,-,0,0.4048211999997875,['y'],0.5033481999998912,1.938,1903.8379806000003,,,,,565,18,Woman,Right,
,,,,,,,,,,,,,,,,,565,18,Woman,Right,3,12,0.4,1,0,-,0,1.4235951999999088,['n'],0.4548504000013054,1.944,1907.9878455999997,,,,,565,18,Woman,Right,
,,,,,,,,,,,,,,,,,565,18,Woman,Right,3,43,0.4,2,180,0,0,0.47802299999966635,['y'],0.3183024000009027,1.99,1911.488796300001,,,,,565,18,Woman,Right,
,,,,,,,,,,,,,,,,,565,18,Woman,Right,3,15,0.4,2,180,0,180,0.2627575999995315,['y'],0.8709208000000217,1.042,1916.3044994000002,,,,,565,18,Woman,Right,
,,,,,,,,,,,,,,,,,565,18,Woman,Right,3,47,0.15,2,180,0,0,0.3823043000011239,['y'],0.7586330999984057,1.736,1919.9715425999993,,,,,565,18,Woman,Right,
,,,,,,,,,,,,,,,,,565,18,Woman,Right,3,20,0.4,1,0,-,180,0.6893483000003471,['y'],0.5747825999987981,1.756,1923.3888562000002,,,,,565,18,Woman,Right,
,,,,,,,,,,,,,,,,,565,18,Woman,Right,3,19,0.4,2,180,0,0,0.2967499999995198,['y'],0.4471693999985291,1.748,1926.1877524000001,,,,,565,18,Woman,Right,
,,,,,,,,,,,,,,,,,565,18,Woman,Right,3,32,0.4,1,0,-,180,0.48541499999919324,['y'],2.2555403000005754,1.1280000000000001,1932.1044771999996,,,,,565,18,Woman,Right,
,,,,,,,,,,,,,,,,,565,18,Woman,Right,3,28,0.4,1,0,-,180,0.6069594000000507,['y'],0.29473959999995714,1.634,1935.5045204999997,,,,,565,18,Woman,Right,
,,,,,,,,,,,,,,,,,565,18,Woman,Right,3,51,0.15,2,180,0,0,0.28672050000022864,['y'],0.39065320000008796,1.78,1938.6047229000005,,,,,565,18,Woman,Right,
,,,,,,,,,,,,,,,,,565,18,Woman,Right,3,40,0.4,1,0,-,180,0.6061520999992354,['y'],1.7107901999988826,1.138,1944.4878443999996,,,,,565,18,Woman,Right,
,,,,,,,,,,,,,,,,,565,18,Woman,Right,3,68,0.15,1,0,-,180,3.157767900000181,['n'],0.902277299999696,1.138,1944.4878443999996,,,,,565,18,Woman,Right,
,,,,,,,,,,,,,,,,,565,18,Woman,Right,3,78,0.15,1,180,-,0,0.7783146999991004,['y'],1.3581629000000248,1.1059999999999999,1956.3712583000006,,,,,565,18,Woman,Right,
,,,,,,,,,,,,,,,,,565,18,Woman,Right,3,24,0.4,1,0,-,180,0.706062600000223,['y'],0.6706345999991754,1.684,1960.2545743,,,,,565,18,Woman,Right,
,,,,,,,,,,,,,,,,,565,18,Woman,Right,3,74,0.15,1,180,-,180,0.8483768000005512,"['n', 'y']",1.3912130999997316,1.1059999999999999,1965.4212543999993,,,,,565,18,Woman,Right,
,,,,,,,,,,,,,,,,,565,18,Woman,Right,3,52,0.15,1,0,-,180,0.3291398000001209,['n'],0.3507544999993115,1.0979999999999999,1968.7212334999995,,,,,565,18,Woman,Right,
,,,,,,,,,,,,,,,,,565,18,Woman,Right,3,56,0.15,1,0,-,180,0.41711430000032124,['y'],1.3185314999991533,1.096,1972.7879230000008,,,,,565,18,Woman,Right,
,,,,,,,,,,,,,,,,,565,18,Woman,Right,3,38,0.4,1,180,-,180,0.3864601000004768,['y'],0.4232581000014761,1.096,1976.0381707000006,,,,,565,18,Woman,Right,
,,,,,,,,,,,,,,,,,565,18,Woman,Right,3,16,0.4,1,0,-,180,0.44128810000074736,['y'],0.366695400000026,1.096,1979.3046351000003,,,,,565,18,Woman,Right,
,,,,,,,,,,,,,,,,,565,18,Woman,Right,3,59,0.15,2,180,0,180,0.32766999999876134,['y'],0.4068959999985964,1.096,1982.9379710000003,,,,,565,18,Woman,Right,
,,,,,,,,,,,,,,,,,565,18,Woman,Right,3,33,0.4,2,0,180,180,0.8639156999997795,['y'],0.3587299000009807,1.766,1986.7548945000008,,,,,565,18,Woman,Right,
,,,,,,,,,,,,,,,,,565,18,Woman,Right,3,35,0.4,2,180,0,0,0.5166692999991938,['y'],0.3321159000006446,1.698,1989.6879982,,,,,565,18,Woman,Right,
,,,,,,,,,,,,,,,,,565,18,Woman,Right,3,48,0.15,1,0,-,0,0.3281651999986934,['y'],0.7269304999990709,1.698,1989.6879982,,,,,565,18,Woman,Right,
,,,,,,,,,,,,,,,,,565,18,Woman,Right,3,61,0.15,2,0,180,180,0.9540548000004492,['n'],0.39089960000092105,1.306,1998.0715308000008,,,,,565,18,Woman,Right,
,,,,,,,,,,,,,,,,,565,18,Woman,Right,3,23,0.4,2,180,0,0,2.4670396000001347,['y'],0.5674551000010979,1.748,2003.5049217999995,,,,,565,18,Woman,Right,
,,,,,,,,,,,,,,,,,565,18,Woman,Right,3,6,1,1,180,-,180,1.0872849000006681,['n'],0.4144579000003432,1.696,2008.3546649999998,,,,,565,18,Woman,Right,
,,,,,,,,,,,,,,,,,565,18,Woman,Right,3,10,0.4,1,180,-,180,1.3739656999987346,['n'],0.4625336999997671,1.816,2012.4549106999993,,,,,565,18,Woman,Right,
,,,,,,,,,,,,,,,,,565,18,Woman,Right,4,12,0.4,1,0,-,0,0.8152464999984659,['n'],0.5185521000003064,1.064,2038.7547289000004,65.0,42.5,85.0,,565,18,Woman,Right,
,,,,,,,,,,,,,,,,,565,18,Woman,Right,4,28,0.4,1,0,-,0,0.3859413999998651,['n'],0.5507453999998688,1.67,2041.921411800001,,,,,565,18,Woman,Right,
,,,,,,,,,,,,,,,,,565,18,Woman,Right,4,14,0.4,1,180,-,180,0.5731546000006347,['n'],0.4307067999998253,1.726,2045.4548353,,,,,565,18,Woman,Right,
,,,,,,,,,,,,,,,,,565,18,Woman,Right,4,51,0.15,2,180,0,180,0.3399109000001772,['y'],0.42244860000027984,1.1059999999999999,2049.104770000001,,,,,565,18,Woman,Right,
,,,,,,,,,,,,,,,,,565,18,Woman,Right,4,1,1,2,0,180,180,0.6892566999995324,['y'],0.3666826000007859,1.8860000000000001,2053.0882826999996,,,,,565,18,Woman,Right,
,,,,,,,,,,,,,,,,,565,18,Woman,Right,4,56,0.15,1,0,-,180,0.41206050000073446,['y'],1.8469967000000906,1.322,2058.354816100001,,,,,565,18,Woman,Right,
,,,,,,,,,,,,,,,,,565,18,Woman,Right,4,33,0.4,2,0,180,180,1.793172500001674,['y'],0.6632224000004499,1.8439999999999999,2063.0715616999996,,,,,565,18,Woman,Right,
,,,,,,,,,,,,,,,,,565,18,Woman,Right,4,8,0.4,1,0,-,0,1.2521216999994067,['y'],0.2786625999997341,1.612,2066.8048714999995,,,,,565,18,Woman,Right,
,,,,,,,,,,,,,,,,,565,18,Woman,Right,4,37,0.4,2,0,180,180,4.084639900000184,['y'],0.5908099999996921,1.73,2073.9548263000006,,,,,565,18,Woman,Right,
,,,,,,,,,,,,,,,,,565,18,Woman,Right,4,4,1,1,0,-,0,1.241810000001351,['n'],1.4703398999990895,1.73,2079.2887741999994,,,,,565,18,Woman,Right,
,,,,,,,,,,,,,,,,,565,18,Woman,Right,4,21,0.4,2,0,180,180,0.5380604000001767,['y'],0.5192350999986957,1.762,2082.5050490999993,,,,,565,18,Woman,Right,
,,,,,,,,,,,,,,,,,565,18,Woman,Right,4,59,0.15,2,180,0,180,0.298521200000323,['y'],0.5514378999996552,1.194,2085.988438900001,,,,,565,18,Woman,Right,
,,,,,,,,,,,,,,,,,565,18,Woman,Right,4,54,0.15,1,180,-,180,0.3605772999999317,['n'],0.38308859999960987,1.0939999999999999,2089.7381479000005,,,,,565,18,Woman,Right,
,,,,,,,,,,,,,,,,,565,18,Woman,Right,4,45,0.15,2,0,180,180,0.2667332000000897,['n'],0.4225286999990203,1.084,2092.6717739999995,,,,,565,18,Woman,Right,
,,,,,,,,,,,,,,,,,565,18,Woman,Right,4,64,0.15,1,0,-,0,0.5453808000002027,['n'],0.6545384000000922,1.718,2096.5882178,,,,,565,18,Woman,Right,
,,,,,,,,,,,,,,,,,565,18,Woman,Right,4,62,0.15,1,180,-,180,0.33410840000033204,['n'],1.342710499999157,1.052,2100.888300900001,,,,,565,18,Woman,Right,
,,,,,,,,,,,,,,,,,565,18,Woman,Right,4,40,0.4,1,0,-,0,0.47858180000002903,['n'],0.2782558999988396,1.776,2104.1718229000007,,,,,565,18,Woman,Right,
,,,,,,,,,,,,,,,,,565,18,Woman,Right,4,60,0.15,1,0,-,180,0.224645899999814,['y'],1.4791126000000077,1.076,2108.4215823999994,,,,,565,18,Woman,Right,
,,,,,,,,,,,,,,,,,565,18,Woman,Right,4,29,0.4,2,0,180,180,0.611362999999983,['y'],0.32648519999929704,1.854,2112.1054044,,,,,565,18,Woman,Right,
,,,,,,,,,,,,,,,,,565,18,Woman,Right,4,79,0.15,2,180,0,180,0.2684255000003759,['y'],0.27092500000071595,1.052,2114.9718079000004,,,,,565,18,Woman,Right,
,,,,,,,,,,,,,,,,,565,18,Woman,Right,4,41,0.4,2,0,180,180,1.2649060000003374,['y'],0.5669237000001885,1.8,2119.5549352999997,,,,,565,18,Woman,Right,
,,,,,,,,,,,,,,,,,565,18,Woman,Right,4,6,1,1,180,-,180,0.49794870000005176,['n'],0.29455659999985073,1.91,2122.8551113000003,,,,,565,18,Woman,Right,
,,,,,,,,,,,,,,,,,565,18,Woman,Right,4,72,0.15,1,0,-,180,0.25034279999999853,['y'],0.23884410000027856,1.1280000000000001,2126.1549437000003,,,,,565,18,Woman,Right,
,,,,,,,,,,,,,,,,,565,18,Woman,Right,4,9,0.4,2,0,180,180,0.712508999999045,['y'],0.4628644999993412,1.8679999999999999,2129.8551412000006,,,,,565,18,Woman,Right,
,,,,,,,,,,,,,,,,,565,18,Woman,Right,4,3,1,2,180,0,0,0.43268840000018827,['y'],0.5107602999996743,1.94,2133.538308100001,,,,,565,18,Woman,Right,
,,,,,,,,,,,,,,,,,565,18,Woman,Right,4,2,1,1,180,-,180,0.5257308000000194,['n'],0.32683540000107314,1.98,2136.721568,,,,,565,18,Woman,Right,
,,,,,,,,,,,,,,,,,565,18,Woman,Right,4,31,0.4,2,180,0,0,0.38824380000005476,['y'],0.3508206999995309,1.94,2140.0549473,,,,,565,18,Woman,Right,
,,,,,,,,,,,,,,,,,565,18,Woman,Right,4,48,0.15,1,0,-,180,0.2956815000015922,"['n', 'y']",0.3267627999994147,1.062,2143.2217919999994,,,,,565,18,Woman,Right,
,,,,,,,,,,,,,,,,,565,18,Woman,Right,4,65,0.15,2,0,180,180,0.35833070000080625,['n'],0.4707809999999881,1.228,2147.155232600001,,,,,565,18,Woman,Right,
,,,,,,,,,,,,,,,,,565,18,Woman,Right,4,63,0.15,2,180,0,180,0.23312459999942803,['n'],0.2949088999994274,1.194,2150.0051166999992,,,,,565,18,Woman,Right,
,,,,,,,,,,,,,,,,,565,18,Woman,Right,4,77,0.15,2,0,180,180,0.3348750999994081,['y'],0.3431871000011597,1.22,2153.171932100001,,,,,565,18,Woman,Right,
,,,,,,,,,,,,,,,,,565,18,Woman,Right,4,61,0.15,2,0,180,180,0.22456640000018524,['n'],1.9751668999997491,1.194,2157.9383824000006,,,,,565,18,Woman,Right,
,,,,,,,,,,,,,,,,,565,18,Woman,Right,4,70,0.15,1,180,-,180,0.20863309999913326,['n'],0.7426292000000103,1.19,2161.3552912999994,,,,,565,18,Woman,Right,
,,,,,,,,,,,,,,,,,565,18,Woman,Right,4,20,0.4,1,0,-,0,0.47734219999983907,['n'],0.3111527000000933,1.796,2164.521606699999,,,,,565,18,Woman,Right,
,,,,,,,,,,,,,,,,,565,18,Woman,Right,4,39,0.4,2,180,0,0,0.3786610000006476,['y'],0.5269326999987243,1.798,2167.5884185999994,,,,,565,18,Woman,Right,
,,,,,,,,,,,,,,,,,565,18,Woman,Right,4,35,0.4,2,180,0,0,0.36692179999954533,['y'],0.6409480000002077,1.798,2171.1217769000004,,,,,565,18,Woman,Right,
,,,,,,,,,,,,,,,,,565,18,Woman,Right,4,58,0.15,1,180,-,180,0.3587833999990835,['n'],0.39183460000094783,1.224,2175.2719905999993,,,,,565,18,Woman,Right,
,,,,,,,,,,,,,,,,,565,18,Woman,Right,4,34,0.4,1,180,-,180,0.5131992000005994,['n'],0.2873361999991175,1.798,2178.4384280000004,,,,,565,18,Woman,Right,
,,,,,,,,,,,,,,,,,565,18,Woman,Right,4,30,0.4,1,180,-,0,0.29478109999945445,['y'],1.0789540999994642,1.744,2181.9218924000006,,,,,565,18,Woman,Right,
,,,,,,,,,,,,,,,,,565,18,Woman,Right,4,18,0.4,1,180,-,180,0.43601549999948475,['n'],0.2392388000007486,1.6280000000000001,2186.4051138999994,,,,,565,18,Woman,Right,
,,,,,,,,,,,,,,,,,565,18,Woman,Right,4,19,0.4,2,180,0,0,0.4626217999993969,['y'],0.2551190000012866,1.788,2189.221939100001,,,,,565,18,Woman,Right,
,,,,,,,,,,,,,,,,,565,18,Woman,Right,4,47,0.15,2,180,0,0,0.404108400000041,['y'],0.2548482000001968,1.818,2192.0888275999996,,,,,565,18,Woman,Right,
,,,,,,,,,,,,,,,,,565,18,Woman,Right,4,11,0.4,2,180,0,0,0.30016059999979916,['y'],0.30191670000021986,1.818,2195.0053264999997,,,,,565,18,Woman,Right,
,,,,,,,,,,,,,,,,,565,18,Woman,Right,4,27,0.4,2,180,0,0,0.19458899999881396,['y'],0.23912139999993087,1.818,2197.855392799999,,,,,565,18,Woman,Right,
,,,,,,,,,,,,,,,,,565,18,Woman,Right,4,15,0.4,2,180,0,0,0.4345582000005379,['y'],0.19917659999919124,1.818,2200.7885161000004,,,,,565,18,Woman,Right,
,,,,,,,,,,,,,,,,,565,18,Woman,Right,4,46,0.15,1,180,-,180,0.453932900001746,['n'],0.6391308999991452,1.1440000000000001,2204.9219932000005,,,,,565,18,Woman,Right,
,,,,,,,,,,,,,,,,,565,18,Woman,Right,4,10,0.4,1,180,-,180,1.0502312000007805,['n'],0.3425305999990087,1.6440000000000001,2208.8053370000007,,,,,565,18,Woman,Right,
,,,,,,,,,,,,,,,,,565,18,Woman,Right,4,17,0.4,2,0,180,180,1.1098609000000579,['y'],0.6072377000000415,1.662,2212.705176799999,,,,,565,18,Woman,Right,
,,,,,,,,,,,,,,,,,565,18,Woman,Right,4,16,0.4,1,0,-,0,0.9381879000011395,['y'],0.3345208000009734,1.75,2217.022113600001,,,,,565,18,Woman,Right,
,,,,,,,,,,,,,,,,,565,18,Woman,Right,4,53,0.15,2,0,180,180,0.5193327000015415,['n'],0.38278230000105395,1.22,2220.205179400001,,,,,565,18,Woman,Right,
,,,,,,,,,,,,,,,,,565,18,Woman,Right,4,68,0.15,1,0,-,180,0.32792780000090715,['n'],0.3275504000012006,1.276,2223.0385954999992,,,,,565,18,Woman,Right,
,,,,,,,,,,,,,,,,,565,18,Woman,Right,4,57,0.15,2,0,180,180,0.27574859999913315,['n'],1.302770899999814,1.142,2227.0385213,,,,,565,18,Woman,Right,
,,,,,,,,,,,,,,,,,565,18,Woman,Right,4,55,0.15,2,180,0,180,0.15894630000002508,['n'],0.5435119000012492,1.168,2230.155120800001,,,,,565,18,Woman,Right,
,,,,,,,,,,,,,,,,,565,18,Woman,Right,4,23,0.4,2,180,0,0,0.9634703000010632,['y'],0.3026140999991185,1.684,2233.6886136000003,,,,,565,18,Woman,Right,
,,,,,,,,,,,,,,,,,565,18,Woman,Right,4,78,0.15,1,180,-,0,0.33350769999924523,['y'],0.2550459000012779,1.684,2236.3217856,,,,,565,18,Woman,Right,
,,,,,,,,,,,,,,,,,565,18,Woman,Right,4,49,0.15,2,0,180,180,0.2850419000005786,"['n', 'y']",0.25509779999993043,1.22,2239.6221281000007,,,,,565,18,Woman,Right,
,,,,,,,,,,,,,,,,,565,18,Woman,Right,4,66,0.15,1,180,-,180,0.8998226000003342,['n'],0.830983700001525,1.1560000000000001,2243.7891477999992,,,,,565,18,Woman,Right,
,,,,,,,,,,,,,,,,,565,18,Woman,Right,4,76,0.15,1,0,-,180,0.251680800000031,"['n', 'y']",0.7196072000006097,1.194,2247.1388689000005,,,,,565,18,Woman,Right,
,,,,,,,,,,,,,,,,,565,18,Woman,Right,4,52,0.15,1,0,-,180,0.46295889999964857,"['n', 'y']",0.3114373999997042,1.15,2250.605369,,,,,565,18,Woman,Right,
,,,,,,,,,,,,,,,,,565,18,Woman,Right,4,0,1,1,0,-,0,0.4700787000001583,['n'],0.26258579999921494,1.798,2254.9052619000004,,,,,565,18,Woman,Right,
,,,,,,,,,,,,,,,,,565,18,Woman,Right,4,71,0.15,2,180,0,180,0.35512050000033923,['n'],0.5429316000008839,1.782,2258.0219773,,,,,565,18,Woman,Right,
,,,,,,,,,,,,,,,,,565,18,Woman,Right,4,22,0.4,1,180,-,180,0.2843155000009574,['n'],0.22325110000019777,1.778,2261.521888100001,,,,,565,18,Woman,Right,
,,,,,,,,,,,,,,,,,565,18,Woman,Right,4,73,0.15,2,0,180,180,0.7170786999995471,['n'],0.526810999999725,1.78,2265.5222053000007,,,,,565,18,Woman,Right,
,,,,,,,,,,,,,,,,,565,18,Woman,Right,4,32,0.4,1,0,-,0,0.4564992000014172,['n'],0.8709635000013805,1.428,2272.2386496999998,,,,,565,18,Woman,Right,
,,,,,,,,,,,,,,,,,565,18,Woman,Right,4,38,0.4,1,180,-,180,0.8287976999999955,['n'],0.5104792999991332,1.428,2272.2386496999998,,,,,565,18,Woman,Right,
,,,,,,,,,,,,,,,,,565,18,Woman,Right,4,25,0.4,2,0,180,180,1.0634823999989749,['y'],0.38286519999928714,1.834,2279.7553684999993,,,,,565,18,Woman,Right,
,,,,,,,,,,,,,,,,,565,18,Woman,Right,4,26,0.4,1,180,-,180,0.36058520000005956,['n'],0.6628454000001511,1.764,2283.1890685000008,,,,,565,18,Woman,Right,
,,,,,,,,,,,,,,,,,565,18,Woman,Right,4,7,1,2,180,0,0,0.5697579000006954,['y'],0.34307600000101957,1.764,2286.2887213000004,,,,,565,18,Woman,Right,
,,,,,,,,,,,,,,,,,565,18,Woman,Right,4,74,0.15,1,180,-,180,0.2075111999984074,['n'],0.35888949999934994,1.1480000000000001,2290.088704999999,,,,,565,18,Woman,Right,
,,,,,,,,,,,,,,,,,565,18,Woman,Right,4,13,0.4,2,0,180,180,0.7198537000003853,['y'],0.3266349999994418,1.732,2293.3220348999994,,,,,565,18,Woman,Right,
,,,,,,,,,,,,,,,,,565,18,Woman,Right,4,44,0.15,1,0,-,180,0.13696730000083335,"['n', 'y']",0.32693099999960396,1.188,2296.6229396999997,,,,,565,18,Woman,Right,
,,,,,,,,,,,,,,,,,565,18,Woman,Right,4,5,1,2,0,180,180,0.6544847000004665,['y'],0.3509424999992916,1.862,2299.7222845999995,,,,,565,18,Woman,Right,
,,,,,,,,,,,,,,,,,565,18,Woman,Right,4,69,0.15,2,0,180,180,0.26534840000022086,['n'],0.37479269999857934,1.134,2302.5720176999994,,,,,565,18,Woman,Right,
,,,,,,,,,,,,,,,,,565,18,Woman,Right,4,42,0.4,1,180,-,180,0.07827949999955308,"['n', 'y']",0.35150310000062746,1.1099999999999999,2305.4222352999996,,,,,565,18,Woman,Right,
,,,,,,,,,,,,,,,,,565,18,Woman,Right,4,43,0.4,2,180,0,0,0.649352499998713,['y'],0.3912906000005023,1.924,2309.305431400001,,,,,565,18,Woman,Right,
,,,,,,,,,,,,,,,,,565,18,Woman,Right,4,50,0.15,1,180,-,180,0.2738761999989947,['n'],0.33447679999881075,1.084,2312.2888845000007,,,,,565,18,Woman,Right,
,,,,,,,,,,,,,,,,,565,18,Woman,Right,4,24,0.4,1,0,-,0,0.8112851000005321,['n'],0.9268513000006351,1.8519999999999999,2316.3887327,,,,,565,18,Woman,Right,
,,,,,,,,,,,,,,,,,565,18,Woman,Right,4,36,0.4,1,0,-,0,0.6711592000010569,['n'],0.5025891000004776,1.6640000000000001,2319.8723223000006,,,,,565,18,Woman,Right,
,,,,,,,,,,,,,,,,,565,18,Woman,Right,4,75,0.15,2,180,0,180,0.6093270000001212,['y'],0.5751514999992651,1.176,2323.9888593000005,,,,,565,18,Woman,Right,
,,,,,,,,,,,,,,,,,565,18,Woman,Right,4,67,0.15,2,180,0,180,0.4307752000004257,['n'],0.32764599999973143,1.142,2327.0554650999993,,,,,565,18,Woman,Right,
,,,,,,,,,,,,,,,,,565,18,Woman,Right,5,30,0.4,1,180,-,180,1.881267900000239,['n'],0.534915500000352,1.7,2345.4226076000004,77.5,82.5,70.0,,565,18,Woman,Right,
,,,,,,,,,,,,,,,,,565,18,Woman,Right,5,51,0.15,2,180,0,180,0.38953179999953136,['y'],0.46274949999860837,1.12,2349.0723116,,,,,565,18,Woman,Right,
,,,,,,,,,,,,,,,,,565,18,Woman,Right,5,46,0.15,1,180,-,180,0.17176670000117156,['n'],0.2866349999985687,1.158,2351.7222360999995,,,,,565,18,Woman,Right,
,,,,,,,,,,,,,,,,,565,18,Woman,Right,5,68,0.15,1,0,-,0,0.2587063000009948,['n'],0.38318470000012894,1.604,2355.1224875,,,,,565,18,Woman,Right,
,,,,,,,,,,,,,,,,,565,18,Woman,Right,5,54,0.15,1,180,-,180,0.23067509999964386,"['n', 'y']",0.2871135999994294,1.168,2358.155511600001,,,,,565,18,Woman,Right,
,,,,,,,,,,,,,,,,,565,18,Woman,Right,5,20,0.4,1,0,-,0,0.8247240999990026,['n'],0.7671790000003966,1.752,2362.0724492,,,,,565,18,Woman,Right,
,,,,,,,,,,,,,,,,,565,18,Woman,Right,5,19,0.4,2,180,0,0,0.8986790999988443,['y'],1.2466916000012134,1.75,2366.422600500001,,,,,565,18,Woman,Right,
,,,,,,,,,,,,,,,,,565,18,Woman,Right,5,53,0.15,2,0,180,180,0.29196980000051553,['y'],1.0948608000016975,1.162,2371.022260500001,,,,,565,18,Woman,Right,
,,,,,,,,,,,,,,,,,565,18,Woman,Right,5,21,0.4,2,0,180,180,1.0960307999994257,['y'],0.6945233999995253,1.71,2375.0723778,,,,,565,18,Woman,Right,
,,,,,,,,,,,,,,,,,565,18,Woman,Right,5,32,0.4,1,0,-,180,0.778630400000111,['n'],0.8227668999988964,1.1099999999999999,2379.3556373,,,,,565,18,Woman,Right,
,,,,,,,,,,,,,,,,,565,18,Woman,Right,5,42,0.4,1,180,-,180,1.0158151000014186,['n'],1.1669127000004664,1.7,2384.1055761,,,,,565,18,Woman,Right,
,,,,,,,,,,,,,,,,,565,18,Woman,Right,5,67,0.15,2,180,0,180,0.21889980000014475,['n'],0.8627321000003576,1.1480000000000001,2387.805558000001,,,,,565,18,Woman,Right,
,,,,,,,,,,,,,,,,,565,18,Woman,Right,5,57,0.15,2,0,180,180,1.2884945000005246,['n'],0.6949299999996583,1.1520000000000001,2391.9556614000003,,,,,565,18,Woman,Right,
,,,,,,,,,,,,,,,,,565,18,Woman,Right,5,33,0.4,2,0,180,180,0.4727512999997998,['n'],0.3508347999995749,1.126,2396.205676300001,,,,,565,18,Woman,Right,
,,,,,,,,,,,,,,,,,565,18,Woman,Right,5,2,1,1,180,-,180,0.5748399000003701,['n'],0.5750368000008166,1.782,2400.2556622,,,,,565,18,Woman,Right,
,,,,,,,,,,,,,,,,,565,18,Woman,Right,5,15,0.4,2,180,0,0,0.33562610000080895,['y'],0.43123019999984535,1.814,2404.1056959000007,,,,,565,18,Woman,Right,
,,,,,,,,,,,,,,,,,565,18,Woman,Right,5,17,0.4,2,0,180,180,0.5569099999993341,['y'],0.3028171999994811,1.8519999999999999,2407.2392867999997,,,,,565,18,Woman,Right,
,,,,,,,,,,,,,,,,,565,18,Woman,Right,5,37,0.4,2,0,180,180,0.48957960000007006,['y'],0.3187422000009974,1.9060000000000001,2410.305653300001,,,,,565,18,Woman,Right,
,,,,,,,,,,,,,,,,,565,18,Woman,Right,5,63,0.15,2,180,0,180,0.34879220000038913,"['n', 'y']",0.41465290000087407,1.188,2413.6223256000003,,,,,565,18,Woman,Right,
,,,,,,,,,,,,,,,,,565,18,Woman,Right,5,13,0.4,2,0,180,180,0.8014467000011791,['y'],0.3028928999992786,2.0,2417.2556699000006,,,,,565,18,Woman,Right,
,,,,,,,,,,,,,,,,,565,18,Woman,Right,5,14,0.4,1,180,-,0,0.7322050000002491,['y'],0.638876099999834,1.79,2420.6890090000006,,,,,565,18,Woman,Right,
,,,,,,,,,,,,,,,,,565,18,Woman,Right,5,35,0.4,2,180,0,0,0.40902249999999185,['y'],0.23064460000023246,1.79,2423.4057435999994,,,,,565,18,Woman,Right,
,,,,,,,,,,,,,,,,,565,18,Woman,Right,5,50,0.15,1,180,-,180,0.2984024000015779,['y'],0.23107700000036857,1.18,2427.005774800001,,,,,565,18,Woman,Right,
,,,,,,,,,,,,,,,,,565,18,Woman,Right,5,41,0.4,2,0,180,180,0.382562599999801,['y'],0.39049269999850367,1.768,2429.889264800001,,,,,565,18,Woman,Right,
,,,,,,,,,,,,,,,,,565,18,Woman,Right,5,70,0.15,1,180,-,0,1.24755869999899,['y'],0.2632577999993373,1.768,2429.889264800001,,,,,565,18,Woman,Right,
,,,,,,,,,,,,,,,,,565,18,Woman,Right,5,55,0.15,2,180,0,180,0.4279583999996248,['y'],0.4063277000004746,1.1400000000000001,2437.7892736000003,,,,,565,18,Woman,Right,
,,,,,,,,,,,,,,,,,565,18,Woman,Right,5,6,1,1,180,-,180,1.0313420000002225,['n'],0.3669986000004428,1.732,2441.4223938000005,,,,,565,18,Woman,Right,
,,,,,,,,,,,,,,,,,565,18,Woman,Right,5,45,0.15,2,0,180,180,0.4303998000013962,['y'],1.5106759000009333,1.75,2445.5727008999993,,,,,565,18,Woman,Right,
,,,,,,,,,,,,,,,,,565,18,Woman,Right,5,56,0.15,1,0,-,0,0.48120620000008785,['n'],0.4787406000014016,1.8439999999999999,2449.039878300001,,,,,565,18,Woman,Right,
,,,,,,,,,,,,,,,,,565,18,Woman,Right,5,28,0.4,1,0,-,180,2.0460986999987654,['n'],1.1591616999994585,1.204,2456.0557854999997,,,,,565,18,Woman,Right,
,,,,,,,,,,,,,,,,,565,18,Woman,Right,5,22,0.4,1,180,-,180,0.6493700999999419,['n'],0.25488469999982044,1.592,2459.1893097,,,,,565,18,Woman,Right,
,,,,,,,,,,,,,,,,,565,18,Woman,Right,5,3,1,2,180,0,0,0.47286759999951755,['y'],0.4707037999996828,1.9020000000000001,2462.9725086999997,,,,,565,18,Woman,Right,
,,,,,,,,,,,,,,,,,565,18,Woman,Right,5,39,0.4,2,180,0,0,0.3109805000003689,['y'],0.24672170000121696,1.9060000000000001,2465.589320100001,,,,,565,18,Woman,Right,
,,,,,,,,,,,,,,,,,565,18,Woman,Right,5,69,0.15,2,0,180,180,0.2980372999991232,['n'],1.302907100000084,1.158,2470.0726143,,,,,565,18,Woman,Right,
,,,,,,,,,,,,,,,,,565,18,Woman,Right,5,25,0.4,2,0,180,180,0.5976899999986927,['y'],0.7347148999997444,1.788,2474.4057399000003,,,,,565,18,Woman,Right,
,,,,,,,,,,,,,,,,,565,18,Woman,Right,5,23,0.4,2,180,0,0,0.3499959000000672,['y'],0.7510358999988966,1.76,2477.5393388,,,,,565,18,Woman,Right,
,,,,,,,,,,,,,,,,,565,18,Woman,Right,5,9,0.4,2,0,180,180,1.0566720000006171,['y'],0.9748613000010664,1.88,2481.9393972999997,,,,,565,18,Woman,Right,
,,,,,,,,,,,,,,,,,565,18,Woman,Right,5,26,0.4,1,180,-,180,0.6100358000003325,['n'],1.0470825000011246,1.754,2486.0395818999996,,,,,565,18,Woman,Right,
,,,,,,,,,,,,,,,,,565,18,Woman,Right,5,7,1,2,180,0,0,0.2638822999997501,['y'],0.6231195000000298,1.704,2489.3225692000005,,,,,565,18,Woman,Right,
,,,,,,,,,,,,,,,,,565,18,Woman,Right,5,27,0.4,2,180,0,0,0.38821680000000924,['y'],0.3504921000003378,1.874,2492.2558629999994,,,,,565,18,Woman,Right,
,,,,,,,,,,,,,,,,,565,18,Woman,Right,5,49,0.15,2,0,180,180,0.5899285000014061,['y'],0.37487639999926614,1.798,2495.4058041,,,,,565,18,Woman,Right,
,,,,,,,,,,,,,,,,,565,18,Woman,Right,5,4,1,1,0,-,0,0.6642461999999796,['n'],0.27047529999981634,1.798,2498.655834100001,,,,,565,18,Woman,Right,
,,,,,,,,,,,,,,,,,565,18,Woman,Right,5,16,0.4,1,0,-,0,0.5681932999996206,['n'],0.28659929999957967,1.798,2502.2225542999995,,,,,565,18,Woman,Right,
,,,,,,,,,,,,,,,,,565,18,Woman,Right,5,64,0.15,1,0,-,180,0.4745151999995869,"['n', 'y']",0.7029665000009118,1.196,2506.8726338000006,,,,,565,18,Woman,Right,
,,,,,,,,,,,,,,,,,565,18,Woman,Right,5,66,0.15,1,180,-,180,0.955960999999661,['n'],0.510733999999502,1.4140000000000001,2510.523290100001,,,,,565,18,Woman,Right,
,,,,,,,,,,,,,,,,,565,18,Woman,Right,5,78,0.15,1,180,-,180,0.3290938999998616,['n'],0.2310817000015959,1.1520000000000001,2514.3725131,,,,,565,18,Woman,Right,
,,,,,,,,,,,,,,,,,565,18,Woman,Right,5,34,0.4,1,180,-,180,1.221891000001051,['n'],0.4867355000005773,1.194,2518.9892081999997,,,,,565,18,Woman,Right,
,,,,,,,,,,,,,,,,,565,18,Woman,Right,5,5,1,2,0,180,180,0.6408172000010381,['y'],0.5910920999995142,1.76,2522.6725667,,,,,565,18,Woman,Right,
,,,,,,,,,,,,,,,,,565,18,Woman,Right,5,71,0.15,2,180,0,180,0.3426019999988057,['y'],0.26232770000024175,1.3439999999999999,2526.8725991,,,,,565,18,Woman,Right,
,,,,,,,,,,,,,,,,,565,18,Woman,Right,5,61,0.15,2,0,180,0,1.0970938999998907,['n'],0.838850199999797,1.3479999999999999,2531.9560338,,,,,565,18,Woman,Right,
,,,,,,,,,,,,,,,,,565,18,Woman,Right,5,12,0.4,1,0,-,0,0.5773939000009705,['n'],0.614468300000226,1.8719999999999999,2535.3727064000004,,,,,565,18,Woman,Right,
,,,,,,,,,,,,,,,,,565,18,Woman,Right,5,65,0.15,2,0,180,180,0.2045589999997901,"['n', 'y']",0.46278430000165827,1.278,2538.622649600001,,,,,565,18,Woman,Right,
,,,,,,,,,,,,,,,,,565,18,Woman,Right,5,40,0.4,1,0,-,0,0.27772860000004584,['n'],0.3510491999986698,1.8559999999999999,2541.8892367,,,,,565,18,Woman,Right,
,,,,,,,,,,,,,,,,,565,18,Woman,Right,5,79,0.15,2,180,0,0,0.23367590000088967,['y'],0.29483259999869915,1.8559999999999999,2541.8892367,,,,,565,18,Woman,Right,
,,,,,,,,,,,,,,,,,565,18,Woman,Right,5,77,0.15,2,0,180,180,0.501681900001131,['y'],1.646991599998728,1.162,2549.4895392000008,,,,,565,18,Woman,Right,
,,,,,,,,,,,,,,,,,565,18,Woman,Right,5,44,0.15,1,0,-,0,0.24433020000105898,['n'],0.3351179000001139,1.554,2552.9229103000007,,,,,565,18,Woman,Right,
,,,,,,,,,,,,,,,,,565,18,Woman,Right,5,18,0.4,1,180,-,180,0.23793750000004366,['n'],0.7505175999995117,1.624,2556.372642200001,,,,,565,18,Woman,Right,
,,,,,,,,,,,,,,,,,565,18,Woman,Right,5,47,0.15,2,180,0,180,0.8015485999985685,['y'],0.3348645999994915,1.57,2560.8060053,,,,,565,18,Woman,Right,
,,,,,,,,,,,,,,,,,565,18,Woman,Right,5,58,0.15,1,180,-,180,1.130688299999747,['y'],0.34252250000099593,1.5899999999999999,2564.4726946,,,,,565,18,Woman,Right,
,,,,,,,,,,,,,,,,,565,18,Woman,Right,5,75,0.15,2,180,0,180,0.43430590000025404,['y'],0.23815519999880053,1.6179999999999999,2567.6393952000008,,,,,565,18,Woman,Right,
,,,,,,,,,,,,,,,,,565,18,Woman,Right,5,36,0.4,1,0,-,0,0.7800463000003219,['n'],0.2951072000014392,1.6139999999999999,2571.1894363,,,,,565,18,Woman,Right,
,,,,,,,,,,,,,,,,,565,18,Woman,Right,5,31,0.4,2,180,0,0,0.7295190999993793,['y'],0.23024099999929604,1.84,2575.6397104,,,,,565,18,Woman,Right,
,,,,,,,,,,,,,,,,,565,18,Woman,Right,5,72,0.15,1,0,-,180,1.4015607999990607,['y'],0.9910252000008768,1.916,2580.2231072999994,,,,,565,18,Woman,Right,
,,,,,,,,,,,,,,,,,565,18,Woman,Right,5,52,0.15,1,0,-,0,0.5876931999991939,['n'],0.5587302000003547,1.6440000000000001,2584.173678100001,,,,,565,18,Woman,Right,
,,,,,,,,,,,,,,,,,565,18,Woman,Right,5,48,0.15,1,0,-,180,1.7826946000004682,['y'],0.32671010000012757,1.232,2588.9728122000006,,,,,565,18,Woman,Right,
,,,,,,,,,,,,,,,,,565,18,Woman,Right,5,11,0.4,2,180,0,0,0.5449729000010848,['y'],0.27069289999963075,1.77,2592.1730129,,,,,565,18,Woman,Right,
,,,,,,,,,,,,,,,,,565,18,Woman,Right,5,60,0.15,1,0,-,0,0.30881290000070294,['y'],0.2388227999999799,1.756,2594.7905433000005,,,,,565,18,Woman,Right,
,,,,,,,,,,,,,,,,,565,18,Woman,Right,5,73,0.15,2,0,180,180,0.8127319999985048,['n'],0.6948326000001543,1.142,2600.3397379000007,,,,,565,18,Woman,Right,
,,,,,,,,,,,,,,,,,565,18,Woman,Right,5,8,0.4,1,0,-,0,0.43186530000093626,['n'],0.4469560999987152,1.762,2603.3897676000006,,,,,565,18,Woman,Right,
,,,,,,,,,,,,,,,,,565,18,Woman,Right,5,24,0.4,1,0,-,0,0.5118152999984886,['n'],0.3192225000002509,1.766,2606.2397253999998,,,,,565,18,Woman,Right,
,,,,,,,,,,,,,,,,,565,18,Woman,Right,5,76,0.15,1,0,-,0,0.34280480000052194,['n'],0.19077699999979814,1.194,2609.3560862000004,,,,,565,18,Woman,Right,
,,,,,,,,,,,,,,,,,565,18,Woman,Right,5,10,0.4,1,180,-,180,0.4881386000015482,['n'],0.27871830000003683,1.75,2612.9395460000005,,,,,565,18,Woman,Right,
,,,,,,,,,,,,,,,,,565,18,Woman,Right,5,59,0.15,2,180,0,180,0.6946430999996664,['n'],0.294781000000512,1.752,2615.9562868000003,,,,,565,18,Woman,Right,
,,,,,,,,,,,,,,,,,565,18,Woman,Right,5,0,1,1,0,-,0,0.27240709999932733,['n'],0.5504669000001741,1.8860000000000001,2619.8562417000003,,,,,565,18,Woman,Right,
,,,,,,,,,,,,,,,,,565,18,Woman,Right,5,43,0.4,2,180,0,180,0.35260700000071665,['n'],0.2705913000008877,1.982,2622.606162700001,,,,,565,18,Woman,Right,
,,,,,,,,,,,,,,,,,565,18,Woman,Right,5,38,0.4,1,180,-,180,0.6037066000008053,['n'],0.1986983999995573,2.0,2626.623115200001,,,,,565,18,Woman,Right,
,,,,,,,,,,,,,,,,,565,18,Woman,Right,5,62,0.15,1,180,-,0,0.2858045000011771,['n'],0.7433634999997594,1.168,2631.0230562999996,,,,,565,18,Woman,Right,
,,,,,,,,,,,,,,,,,565,18,Woman,Right,5,74,0.15,1,180,-,180,0.4308998000014981,['y'],0.37413550000019313,1.186,2634.4895399000006,,,,,565,18,Woman,Right,
,,,,,,,,,,,,,,,,,565,18,Woman,Right,5,29,0.4,2,0,180,0,0.7254312000004575,['n'],0.6869719000005716,1.782,2638.5562056999997,,,,,565,18,Woman,Right,
,,,,,,,,,,,,,,,,,565,18,Woman,Right,5,1,1,2,0,180,180,0.5361300000004121,['y'],0.4786155999991024,1.786,2641.6562151000007,,,,,565,18,Woman,Right,
,,,,,,,,,,,,,,,,,,,,,,,,,,,,,,,,,76.25,80.0,72.5,2267.7222891,,,,,
