p_block,p_section,p_coherence,p_direction1,p_direction2,p_direction_response,p_direction_RT,p_change_response,p_change_RT,p_confidence,p_full_correct,p_without5_correct,p_full_total,p_without5_total,p_full_avg,p_witout5_avg,p_total_time,sub,age,sex,handedness,loop,trial randomization,coherence,condition,direction1,direction2,direction_response,direction_RT,change_response,change_RT,change_confidence,change_confidence_RT,block_direction_avg,block_stable_avg,block_change_avg,total_time,sub,age,sex,handedness,
1,1,1.0,180,-,0,7.0432104000001345,-,-,-,,,,,,,,553,18,Woman,Right,,,,,,,,,,,,,,,,,553,18,Woman,Right,
1,1,1.0,0,-,0,0.3695566000001236,-,-,-,,,,,,,,553,18,Woman,Right,,,,,,,,,,,,,,,,,553,18,Woman,Right,
1,1,1.0,180,-,180,1.4333255999999892,-,-,-,,,,,,,,553,18,Woman,Right,,,,,,,,,,,,,,,,,553,18,Woman,Right,
1,1,1.0,0,-,0,0.5978536000000076,-,-,-,,,,,,,,553,18,Woman,Right,,,,,,,,,,,,,,,,,553,18,Woman,Right,
1,1,1.0,0,-,0,0.4847703000000365,-,-,-,,,,,,,,553,18,Woman,Right,,,,,,,,,,,,,,,,,553,18,Woman,Right,
1,1,1.0,180,-,180,0.8246441999999661,-,-,-,,,,,,,,553,18,Woman,Right,,,,,,,,,,,,,,,,,553,18,Woman,Right,
1,1,1.0,180,-,180,0.5020445000000109,-,-,-,,,,,,,,553,18,Woman,Right,,,,,,,,,,,,,,,,,553,18,Woman,Right,
1,1,1.0,180,-,180,0.28035640000007334,-,-,-,,,,,,,,553,18,Woman,Right,,,,,,,,,,,,,,,,,553,18,Woman,Right,
1,1,1.0,180,-,180,0.5822799999998551,-,-,-,,,,,,,,553,18,Woman,Right,,,,,,,,,,,,,,,,,553,18,Woman,Right,
1,1,1.0,0,-,0,0.4213326000001416,-,-,-,9,9,10,10,0.9,0.9,,553,18,Woman,Right,,,,,,,,,,,,,,,,,553,18,Woman,Right,
2,1,0.15,0,-,180,1.568340100000114,-,-,-,,,,,,,,553,18,Woman,Right,,,,,,,,,,,,,,,,,553,18,Woman,Right,
2,1,0.15,180,-,0,1.4681021999999757,-,-,-,,,,,,,,553,18,Woman,Right,,,,,,,,,,,,,,,,,553,18,Woman,Right,
2,1,0.15,0,-,0,1.0884141000001364,-,-,-,,,,,,,,553,18,Woman,Right,,,,,,,,,,,,,,,,,553,18,Woman,Right,
2,1,0.15,180,-,180,0.37160689999996066,-,-,-,,,,,,,,553,18,Woman,Right,,,,,,,,,,,,,,,,,553,18,Woman,Right,
2,1,0.4,180,-,180,0.24332810000009886,-,-,-,,,,,,,,553,18,Woman,Right,,,,,,,,,,,,,,,,,553,18,Woman,Right,
2,1,0.15,180,-,180,0.25643110000009983,-,-,-,,,,,,,,553,18,Woman,Right,,,,,,,,,,,,,,,,,553,18,Woman,Right,
2,1,0.4,0,-,0,0.03795280000008461,-,-,-,,,,,,,,553,18,Woman,Right,,,,,,,,,,,,,,,,,553,18,Woman,Right,
2,1,0.15,180,-,0,0.4521260000001348,-,-,-,,,,,,,,553,18,Woman,Right,,,,,,,,,,,,,,,,,553,18,Woman,Right,
2,1,0.4,0,-,0,0.3932402999998885,-,-,-,,,,,,,,553,18,Woman,Right,,,,,,,,,,,,,,,,,553,18,Woman,Right,
2,1,0.4,180,-,180,0.30574430000001485,-,-,-,7,4,10,4,0.7,1.0,,553,18,Woman,Right,,,,,,,,,,,,,,,,,553,18,Woman,Right,
3,2,1.0,180,0,0,3.4200913000001947,['y'],4.821129999999812,2,,,,,,,,553,18,Woman,Right,,,,,,,,,,,,,,,,,553,18,Woman,Right,
3,2,1.0,180,0,0,1.5596803999997064,['y'],0.9454797999997027,2.0,,,,,,,,553,18,Woman,Right,,,,,,,,,,,,,,,,,553,18,Woman,Right,
3,2,1.0,0,180,180,1.0351332000000184,['y'],1.3362209000001712,2.0,,,,,,,,553,18,Woman,Right,,,,,,,,,,,,,,,,,553,18,Woman,Right,
3,2,1.0,0,180,180,0.7186303000003136,['y'],0.4187245999996776,2.0,,,,,,,,553,18,Woman,Right,,,,,,,,,,,,,,,,,553,18,Woman,Right,
3,2,1.0,0,180,180,0.5907710999999836,['y'],0.5276043999997455,2.0,,,,,,,,553,18,Woman,Right,,,,,,,,,,,,,,,,,553,18,Woman,Right,
3,2,1.0,0,180,180,0.5846298000001298,['y'],0.5146219999996902,2.0,,,,,,,,553,18,Woman,Right,,,,,,,,,,,,,,,,,553,18,Woman,Right,
3,2,1.0,180,0,0,1.0229027000000315,['y'],1.1177609999999731,2.0,,,,,,,,553,18,Woman,Right,,,,,,,,,,,,,,,,,553,18,Woman,Right,
3,2,1.0,0,180,180,0.4358370999998442,['y'],0.29971599999998944,2.0,,,,,,,,553,18,Woman,Right,,,,,,,,,,,,,,,,,553,18,Woman,Right,
3,2,1.0,0,180,180,0.5749019999998382,['y'],0.41747480000003634,2.0,,,,,,,,553,18,Woman,Right,,,,,,,,,,,,,,,,,553,18,Woman,Right,
3,2,1.0,0,180,180,0.5913600000003498,['y'],1.1367748000002393,2.0,10,10,10,10,1.0,1.0,,553,18,Woman,Right,,,,,,,,,,,,,,,,,553,18,Woman,Right,
4,2,0.15,180,0,180,3.389571900000192,['y'],2.01952429999983,1.688,,,,,,,,553,18,Woman,Right,,,,,,,,,,,,,,,,,553,18,Woman,Right,
4,2,0.4,0,180,180,0.5754839000001084,['y'],0.24186989999998332,2.0,,,,,,,,553,18,Woman,Right,,,,,,,,,,,,,,,,,553,18,Woman,Right,
4,2,0.4,180,0,0,0.4687866999997823,['y'],0.6675560999997288,2.0,,,,,,,,553,18,Woman,Right,,,,,,,,,,,,,,,,,553,18,Woman,Right,
4,2,0.15,180,0,0,0.42321439999977883,['y'],0.3599005999999463,2.0,,,,,,,,553,18,Woman,Right,,,,,,,,,,,,,,,,,553,18,Woman,Right,
4,2,0.15,0,180,0,1.2042986000001292,['n'],0.9949051000003237,1.3940000000000001,,,,,,,,553,18,Woman,Right,,,,,,,,,,,,,,,,,553,18,Woman,Right,
4,2,0.15,0,180,180,2.4474261999998816,['y'],0.03730489999998099,2.0,,,,,,,,553,18,Woman,Right,,,,,,,,,,,,,,,,,553,18,Woman,Right,
4,2,0.15,0,180,180,0.5803671999997277,['y'],0.2864602999998169,1.77,,,,,,,,553,18,Woman,Right,,,,,,,,,,,,,,,,,553,18,Woman,Right,
4,2,0.15,180,0,0,0.3641293999999107,['y'],0.27081490000000485,1.812,,,,,,,,553,18,Woman,Right,,,,,,,,,,,,,,,,,553,18,Woman,Right,
4,2,0.4,0,180,180,0.2622769999998127,['y'],0.24465179999970132,2.0,,,,,,,,553,18,Woman,Right,,,,,,,,,,,,,,,,,553,18,Woman,Right,
4,2,0.15,180,0,0,0.236605800000234,['y'],0.26084309999987454,2.0,8,3,10,3,0.8,1.0,,553,18,Woman,Right,,,,,,,,,,,,,,,,,553,18,Woman,Right,
5,3,0.4,180,-,180,3.0357632000000194,['n'],0.3422132999999121,2.0,,,,,,,,553,18,Woman,Right,,,,,,,,,,,,,,,,,553,18,Woman,Right,
5,3,0.15,180,-,0,1.0421566999998504,['n'],0.7218078999999307,2.0,,,,,,,,553,18,Woman,Right,,,,,,,,,,,,,,,,,553,18,Woman,Right,
5,3,1.0,0,-,0,1.0353039999999964,['n'],0.27415659999996933,2.0,,,,,,,,553,18,Woman,Right,,,,,,,,,,,,,,,,,553,18,Woman,Right,
5,3,0.15,180,0,0,0.6855663000001186,['y'],0.24256289999993896,2.0,,,,,,,,553,18,Woman,Right,,,,,,,,,,,,,,,,,553,18,Woman,Right,
5,3,1.0,180,0,0,0.4725157000002582,['y'],0.262495399999807,2.0,,,,,,,,553,18,Woman,Right,,,,,,,,,,,,,,,,,553,18,Woman,Right,
5,3,1.0,0,180,180,0.42603079999980764,['y'],0.2498238000002857,2.0,,,,,,,,553,18,Woman,Right,,,,,,,,,,,,,,,,,553,18,Woman,Right,
5,3,0.15,0,180,0,1.27114389999997,['n'],0.3640616999996382,1.19,,,,,,,,553,18,Woman,Right,,,,,,,,,,,,,,,,,553,18,Woman,Right,
5,3,0.4,180,0,0,0.40227939999977025,['y'],0.23590930000000299,2.0,,,,,,,,553,18,Woman,Right,,,,,,,,,,,,,,,,,553,18,Woman,Right,
5,3,0.15,180,0,0,0.6166779999998653,['n'],0.25723999999991065,1.274,,,,,,,,553,18,Woman,Right,,,,,,,,,,,,,,,,,553,18,Woman,Right,
5,3,0.15,180,-,180,0.30166460000009465,['n'],0.2587079999998423,2.0,8,5,10,5,0.8,1.0,,553,18,Woman,Right,,,,,,,,,,,,,,,,,553,18,Woman,Right,
,,,,,,,,,,,,,,,,5.299999884300632e-06,553,18,Woman,Right,,,,,,,,,,,,,,,,,553,18,Woman,Right,
,,,,,,,,,,,,,,,,,553,18,Woman,Right,0,56,0.15,1,0,-,180,0.8511034000002837,['n'],1.832235800000035,1.734,296.4951102,,,,,553,18,Woman,Right,
,,,,,,,,,,,,,,,,,553,18,Woman,Right,0,5,1,2,0,180,180,0.9264546999997947,['y'],0.9907874999998967,2.0,301.61701010000024,,,,,553,18,Woman,Right,
,,,,,,,,,,,,,,,,,553,18,Woman,Right,0,52,0.15,1,0,-,0,0.5368791999999303,['n'],0.8629949999999553,1.684,306.68869650000033,,,,,553,18,Woman,Right,
,,,,,,,,,,,,,,,,,553,18,Woman,Right,0,22,0.4,1,180,-,180,1.0203786000001855,['n'],0.7347948999999971,1.33,312.31082590000005,,,,,553,18,Woman,Right,
,,,,,,,,,,,,,,,,,553,18,Woman,Right,0,32,0.4,1,0,-,0,1.4276291999999557,['n'],0.8946484000002783,1.304,317.8495750000002,,,,,553,18,Woman,Right,
,,,,,,,,,,,,,,,,,553,18,Woman,Right,0,63,0.15,2,180,0,0,0.4498884999998154,['y'],0.8549412999996093,1.616,322.10394620000034,,,,,553,18,Woman,Right,
,,,,,,,,,,,,,,,,,553,18,Woman,Right,0,45,0.15,2,0,180,180,0.8499642000001586,['n'],0.942641999999978,1.306,327.22569870000007,,,,,553,18,Woman,Right,
,,,,,,,,,,,,,,,,,553,18,Woman,Right,0,23,0.4,2,180,0,0,0.5105625999999575,['y'],0.7911609999996472,1.654,331.4965053000001,,,,,553,18,Woman,Right,
,,,,,,,,,,,,,,,,,553,18,Woman,Right,0,31,0.4,2,180,0,0,0.49309489999996003,['y'],0.6469139000000723,2.0,335.5675524000003,,,,,553,18,Woman,Right,
,,,,,,,,,,,,,,,,,553,18,Woman,Right,0,79,0.15,2,180,0,0,0.7933439000003091,['y'],0.6305651000002399,1.876,340.0384519000004,,,,,553,18,Woman,Right,
,,,,,,,,,,,,,,,,,553,18,Woman,Right,0,37,0.4,2,0,180,180,0.19128989999990154,['y'],0.6310496999999486,2.0,343.97584080000024,,,,,553,18,Woman,Right,
,,,,,,,,,,,,,,,,,553,18,Woman,Right,0,49,0.15,2,0,180,0,1.1589374000000134,['y'],0.7265199999997094,2.0,348.6138277,,,,,553,18,Woman,Right,
,,,,,,,,,,,,,,,,,553,18,Woman,Right,0,19,0.4,2,180,0,180,1.117868400000134,['y'],0.6677115000002232,2.0,353.1850942000001,,,,,553,18,Woman,Right,
,,,,,,,,,,,,,,,,,553,18,Woman,Right,0,26,0.4,1,180,-,0,0.7102002999999968,['n'],0.7827510000001894,1.68,357.5561560000001,,,,,553,18,Woman,Right,
,,,,,,,,,,,,,,,,,553,18,Woman,Right,0,24,0.4,1,0,-,0,2.4890893000001597,['n'],0.7668227999997725,1.688,365.14685640000016,,,,,553,18,Woman,Right,
,,,,,,,,,,,,,,,,,553,18,Woman,Right,0,34,0.4,1,180,-,180,0.5101254000001063,['n'],0.7590864000003421,2.0,369.2676222,,,,,553,18,Woman,Right,
,,,,,,,,,,,,,,,,,553,18,Woman,Right,0,78,0.15,1,180,-,180,1.2653159000001324,['n'],1.054858299999978,1.276,374.8897809,,,,,553,18,Woman,Right,
,,,,,,,,,,,,,,,,,553,18,Woman,Right,0,29,0.4,2,0,180,180,0.12612689999969007,['y'],0.886666200000036,2.0,378.5600311000003,,,,,553,18,Woman,Right,
,,,,,,,,,,,,,,,,,553,18,Woman,Right,0,57,0.15,2,0,180,180,0.6175299999999879,['y'],0.6624212000001535,1.77,382.53062530000034,,,,,553,18,Woman,Right,
,,,,,,,,,,,,,,,,,553,18,Woman,Right,0,50,0.15,1,180,-,180,0.47738440000011906,['n'],0.7909569000003103,1.6600000000000001,386.5847181000004,,,,,553,18,Woman,Right,
,,,,,,,,,,,,,,,,,553,18,Woman,Right,0,64,0.15,1,0,-,0,0.8648158999999396,['n'],0.5751973000001271,1.682,390.7055015000001,,,,,553,18,Woman,Right,
,,,,,,,,,,,,,,,,,553,18,Woman,Right,0,15,0.4,2,180,0,0,0.8226814999998169,['y'],0.7749398000000838,2.0,395.0937365,,,,,553,18,Woman,Right,
,,,,,,,,,,,,,,,,,553,18,Woman,Right,0,77,0.15,2,0,180,0,1.7458768000001328,['n'],0.8946224000001166,1.6059999999999999,400.74877890000016,,,,,553,18,Woman,Right,
,,,,,,,,,,,,,,,,,553,18,Woman,Right,0,30,0.4,1,180,-,180,0.5286593999999241,['n'],0.9908583000001272,1.188,405.11991850000004,,,,,553,18,Woman,Right,
,,,,,,,,,,,,,,,,,553,18,Woman,Right,0,43,0.4,2,180,0,0,0.5108539000002565,['y'],0.5184816999999384,1.804,408.9569273000002,,,,,553,18,Woman,Right,
,,,,,,,,,,,,,,,,,553,18,Woman,Right,0,7,1,2,180,0,0,0.30601690000003146,['y'],0.5987887000001137,2.0,412.5271739,,,,,553,18,Woman,Right,
,,,,,,,,,,,,,,,,,553,18,Woman,Right,0,73,0.15,2,0,180,0,0.6878050999998777,['n'],0.4066150999997262,1.678,416.6813019000001,,,,,553,18,Woman,Right,
,,,,,,,,,,,,,,,,,553,18,Woman,Right,0,40,0.4,1,0,-,0,0.4121293999996851,['n'],0.5588655000001381,1.718,420.2682178,,,,,553,18,Woman,Right,
,,,,,,,,,,,,,,,,,553,18,Woman,Right,0,70,0.15,1,180,-,180,1.0754185999999208,['n'],0.7505102999998599,1.164,424.9729218000002,,,,,553,18,Woman,Right,
,,,,,,,,,,,,,,,,,553,18,Woman,Right,0,17,0.4,2,0,180,180,0.7234631000001173,['y'],0.5589687000001504,1.696,429.17713490000006,,,,,553,18,Woman,Right,
,,,,,,,,,,,,,,,,,553,18,Woman,Right,0,55,0.15,2,180,0,0,0.6611109000000397,['n'],0.542899000000034,1.294,433.7482950000003,,,,,553,18,Woman,Right,
,,,,,,,,,,,,,,,,,553,18,Woman,Right,0,65,0.15,2,0,180,0,1.1534007000000202,['n'],1.078712699999869,1.0,439.12055720000035,,,,,553,18,Woman,Right,
,,,,,,,,,,,,,,,,,553,18,Woman,Right,0,60,0.15,1,0,-,0,0.40040510000017093,['n'],0.6196190999999089,1.774,442.9407557000004,,,,,553,18,Woman,Right,
,,,,,,,,,,,,,,,,,553,18,Woman,Right,0,59,0.15,2,180,0,0,0.7373618999999962,['n'],0.3748246999998628,1.71,446.66116520000014,,,,,553,18,Woman,Right,
,,,,,,,,,,,,,,,,,553,18,Woman,Right,0,14,0.4,1,180,-,0,1.0388550999996369,['y'],0.5588106000000153,1.728,450.8986261,,,,,553,18,Woman,Right,
,,,,,,,,,,,,,,,,,553,18,Woman,Right,0,61,0.15,2,0,180,180,0.3886168999997608,['y'],0.6149642999998832,1.802,455.2029384000002,,,,,553,18,Woman,Right,
,,,,,,,,,,,,,,,,,553,18,Woman,Right,0,20,0.4,1,0,-,180,0.523900500000309,['y'],1.7268322999998418,1.508,462.6769868000001,,,,,553,18,Woman,Right,
,,,,,,,,,,,,,,,,,553,18,Woman,Right,0,1,1,2,0,180,180,0.4947076000003108,['y'],0.510865300000205,2.0,466.39741520000007,,,,,553,18,Woman,Right,
,,,,,,,,,,,,,,,,,553,18,Woman,Right,0,38,0.4,1,180,-,180,0.882559399999991,['n'],0.6702847999999904,1.77,471.20205780000015,,,,,553,18,Woman,Right,
,,,,,,,,,,,,,,,,,553,18,Woman,Right,0,33,0.4,2,0,180,180,0.3503636999998889,['y'],0.5647822999999335,1.888,474.8725184,,,,,553,18,Woman,Right,
,,,,,,,,,,,,,,,,,553,18,Woman,Right,0,54,0.15,1,180,-,0,0.9055441000000428,['n'],0.3588263999999981,1.3559999999999999,479.1936816000002,,,,,553,18,Woman,Right,
,,,,,,,,,,,,,,,,,553,18,Woman,Right,0,53,0.15,2,0,180,180,2.4061522000001787,['y'],1.2870879000001878,1.016,485.3998716000001,,,,,553,18,Woman,Right,
,,,,,,,,,,,,,,,,,553,18,Woman,Right,0,11,0.4,2,180,0,0,1.622544900000321,['y'],0.6629373000000669,1.1560000000000001,490.5881015,,,,,553,18,Woman,Right,
,,,,,,,,,,,,,,,,,553,18,Woman,Right,0,21,0.4,2,0,180,0,1.8522299999999632,['y'],2.1100836000000527,1.346,498.4460135000004,,,,,553,18,Woman,Right,
,,,,,,,,,,,,,,,,,553,18,Woman,Right,0,48,0.15,1,0,-,0,0.6724798000000192,['n'],0.7184367999998358,1.776,502.98377400000027,,,,,553,18,Woman,Right,
,,,,,,,,,,,,,,,,,553,18,Woman,Right,0,25,0.4,2,0,180,180,0.7996141000003263,['y'],0.5587556999998924,1.736,507.0878236000003,,,,,553,18,Woman,Right,
,,,,,,,,,,,,,,,,,553,18,Woman,Right,0,67,0.15,2,180,0,0,0.5981127999998535,['n'],0.5429454000000078,1.836,510.92500050000035,,,,,553,18,Woman,Right,
,,,,,,,,,,,,,,,,,553,18,Woman,Right,0,47,0.15,2,180,0,0,1.131147300000066,['y'],0.5829337000000123,1.3639999999999999,515.5963838000002,,,,,553,18,Woman,Right,
,,,,,,,,,,,,,,,,,553,18,Woman,Right,0,72,0.15,1,0,-,0,0.37112440000009883,['n'],0.8709807999998702,1.608,519.3500571000004,,,,,553,18,Woman,Right,
,,,,,,,,,,,,,,,,,553,18,Woman,Right,0,10,0.4,1,180,-,180,1.0661638000001403,['y'],0.5668045000002166,1.968,523.6210246,,,,,553,18,Woman,Right,
,,,,,,,,,,,,,,,,,553,18,Woman,Right,0,58,0.15,1,180,-,0,0.42525300000033894,['y'],0.7266276000000289,1.0,528.2589163000002,,,,,553,18,Woman,Right,
,,,,,,,,,,,,,,,,,553,18,Woman,Right,0,9,0.4,2,0,180,180,0.6403294000001551,['y'],0.38276249999989886,1.916,531.9630572000001,,,,,553,18,Woman,Right,
,,,,,,,,,,,,,,,,,553,18,Woman,Right,0,35,0.4,2,180,0,0,1.1348794999998972,['y'],0.4307933999998568,2.0,537.9686148000001,,,,,553,18,Woman,Right,
,,,,,,,,,,,,,,,,,553,18,Woman,Right,0,66,0.15,1,180,-,180,2.1658244000000195,['n'],0.4544589000001906,1.65,544.8419513000003,,,,,553,18,Woman,Right,
,,,,,,,,,,,,,,,,,553,18,Woman,Right,0,27,0.4,2,180,0,0,0.7878564999996343,['y'],0.38291190000018105,2.0,548.5958993000004,,,,,553,18,Woman,Right,
,,,,,,,,,,,,,,,,,553,18,Woman,Right,0,69,0.15,2,0,180,0,0.901061000000027,['n'],0.6309738999998444,1.8900000000000001,552.8508923000004,,,,,553,18,Woman,Right,
,,,,,,,,,,,,,,,,,553,18,Woman,Right,0,12,0.4,1,0,-,0,0.6051528999996663,['n'],1.0228557999998884,1.726,558.2387408000004,,,,,553,18,Woman,Right,
,,,,,,,,,,,,,,,,,553,18,Woman,Right,0,75,0.15,2,180,0,180,2.7360281999999643,['n'],1.1107192999998006,1.74,564.8119332000001,,,,,553,18,Woman,Right,
,,,,,,,,,,,,,,,,,553,18,Woman,Right,0,62,0.15,1,180,-,180,0.4333574000002045,['n'],0.639237399999729,1.8,568.6993808000002,,,,,553,18,Woman,Right,
,,,,,,,,,,,,,,,,,553,18,Woman,Right,0,8,0.4,1,0,-,0,0.3294280999998591,['n'],0.7108875000003536,2.0,572.5031443000003,,,,,553,18,Woman,Right,
,,,,,,,,,,,,,,,,,553,18,Woman,Right,0,18,0.4,1,180,-,180,0.8562289999999848,['n'],0.646274700000049,1.896,576.9075461000002,,,,,553,18,Woman,Right,
,,,,,,,,,,,,,,,,,553,18,Woman,Right,0,36,0.4,1,0,-,0,0.84530309999991,['n'],1.190939999999955,1.81,581.6119991,,,,,553,18,Woman,Right,
,,,,,,,,,,,,,,,,,553,18,Woman,Right,0,74,0.15,1,180,-,0,1.3340273999997407,['n'],0.5748896999998578,1.286,586.2499408000003,,,,,553,18,Woman,Right,
,,,,,,,,,,,,,,,,,553,18,Woman,Right,0,44,0.15,1,0,-,0,0.934916499999872,['n'],0.7829643999998552,1.258,590.6542844,,,,,553,18,Woman,Right,
,,,,,,,,,,,,,,,,,553,18,Woman,Right,0,28,0.4,1,0,-,0,0.46692810000013196,['n'],0.9428804999997737,1.846,594.7917416,,,,,553,18,Woman,Right,
,,,,,,,,,,,,,,,,,553,18,Woman,Right,0,71,0.15,2,180,0,0,0.760443000000123,['y'],0.6549540000000889,1.308,600.8820020000003,,,,,553,18,Woman,Right,
,,,,,,,,,,,,,,,,,553,18,Woman,Right,0,51,0.15,2,180,0,180,1.5810827000000245,['n'],0.5985575999998218,1.7,605.7359469000003,,,,,553,18,Woman,Right,
,,,,,,,,,,,,,,,,,553,18,Woman,Right,0,3,1,2,180,0,0,0.7054593000002569,['y'],0.543134800000189,2.0,609.5909610000003,,,,,553,18,Woman,Right,
,,,,,,,,,,,,,,,,,553,18,Woman,Right,0,46,0.15,1,180,-,0,0.34623869999995804,['n'],0.6147366999998667,1.694,613.2100171000002,,,,,553,18,Woman,Right,
,,,,,,,,,,,,,,,,,553,18,Woman,Right,0,0,1,1,0,-,0,0.47597369999994044,['n'],0.5748238999999558,2.0,616.9304492000001,,,,,553,18,Woman,Right,
,,,,,,,,,,,,,,,,,553,18,Woman,Right,0,39,0.4,2,180,0,0,0.48321260000011534,['y'],0.5747479000001476,2.0,620.9510188000004,,,,,553,18,Woman,Right,
,,,,,,,,,,,,,,,,,553,18,Woman,Right,0,41,0.4,2,0,180,180,0.8011255000001256,['y'],0.4622131000000991,2.0,624.8885938000003,,,,,553,18,Woman,Right,
,,,,,,,,,,,,,,,,,553,18,Woman,Right,0,16,0.4,1,0,-,180,0.6642937999999958,['y'],0.759386799999902,2.0,628.8258067000002,,,,,553,18,Woman,Right,
,,,,,,,,,,,,,,,,,553,18,Woman,Right,0,4,1,1,0,-,0,0.330214199999773,['n'],0.7275771999998142,2.0,632.8462915,,,,,553,18,Woman,Right,
,,,,,,,,,,,,,,,,,553,18,Woman,Right,0,76,0.15,1,0,-,0,0.71145770000021,['n'],0.3897244999998293,2.0,636.7668013000002,,,,,553,18,Woman,Right,
,,,,,,,,,,,,,,,,,553,18,Woman,Right,0,2,1,1,180,-,180,0.27517580000039743,['y'],0.7271115999997164,1.0,641.6216488,,,,,553,18,Woman,Right,
,,,,,,,,,,,,,,,,,553,18,Woman,Right,0,68,0.15,1,0,-,180,1.2923094999996465,['y'],0.20707619999984672,1.202,646.1097522,,,,,553,18,Woman,Right,
,,,,,,,,,,,,,,,,,553,18,Woman,Right,0,6,1,1,180,-,180,0.35452659999964453,['n'],0.5748090000001866,2.0,650.8308315000004,,,,,553,18,Woman,Right,
,,,,,,,,,,,,,,,,,553,18,Woman,Right,0,13,0.4,2,0,180,180,0.6005635999999868,['y'],0.5674636999997347,2.0,654.9684467000002,,,,,553,18,Woman,Right,
,,,,,,,,,,,,,,,,,553,18,Woman,Right,0,42,0.4,1,180,-,180,1.2865637999998398,['n'],0.31885170000032304,2.0,659.1057074,,,,,553,18,Woman,Right,
,,,,,,,,,,,,,,,,,553,18,Woman,Right,1,50,0.15,1,180,-,0,2.4027169999999387,['n'],0.4377665000001798,1.726,697.5441542000003,76.25,82.5,75.0,,553,18,Woman,Right,
,,,,,,,,,,,,,,,,,553,18,Woman,Right,1,2,1,1,180,-,180,0.8697359999996479,['n'],0.7267240000001038,2.0,703.0828006000002,,,,,553,18,Woman,Right,
,,,,,,,,,,,,,,,,,553,18,Woman,Right,1,54,0.15,1,180,-,0,1.1692155999999159,['n'],0.49477050000041345,1.174,708.8050942,,,,,553,18,Woman,Right,
,,,,,,,,,,,,,,,,,553,18,Woman,Right,1,1,1,2,0,180,180,1.4014826000002358,['y'],0.5173617000000377,2.0,713.3763503,,,,,553,18,Woman,Right,
,,,,,,,,,,,,,,,,,553,18,Woman,Right,1,39,0.4,2,180,0,0,1.4066416999999092,['y'],0.5746107999998458,1.684,720.0830425000004,,,,,553,18,Woman,Right,
,,,,,,,,,,,,,,,,,553,18,Woman,Right,1,14,0.4,1,180,-,180,1.1728962999995929,['n'],0.5028085000003557,1.73,724.3205844000004,,,,,553,18,Woman,Right,
,,,,,,,,,,,,,,,,,553,18,Woman,Right,1,3,1,2,180,0,0,0.5412572999998702,['y'],0.6628580000001421,2.0,728.2410606000003,,,,,553,18,Woman,Right,
,,,,,,,,,,,,,,,,,553,18,Woman,Right,1,49,0.15,2,0,180,0,0.33894199999986085,['n'],0.4548110999999153,1.8940000000000001,731.5947852000004,,,,,553,18,Woman,Right,
,,,,,,,,,,,,,,,,,553,18,Woman,Right,1,35,0.4,2,180,0,0,0.6125019999999495,['y'],0.5427883000002112,1.714,735.4985044,,,,,553,18,Woman,Right,
,,,,,,,,,,,,,,,,,553,18,Woman,Right,1,74,0.15,1,180,-,180,0.5314542999999503,['n'],0.46288219999996727,1.4100000000000001,739.2855894000004,,,,,553,18,Woman,Right,
,,,,,,,,,,,,,,,,,553,18,Woman,Right,1,5,1,2,0,180,180,0.8426703999998608,['y'],0.4465688999998747,2.0,743.1727317,,,,,553,18,Woman,Right,
,,,,,,,,,,,,,,,,,553,18,Woman,Right,1,70,0.15,1,180,-,0,0.5700121999998373,['n'],0.5667877999999291,1.248,747.8944078000004,,,,,553,18,Woman,Right,
,,,,,,,,,,,,,,,,,553,18,Woman,Right,1,29,0.4,2,0,180,180,1.5444811000002119,['y'],0.5347579999997834,1.846,752.5819806000004,,,,,553,18,Woman,Right,
,,,,,,,,,,,,,,,,,553,18,Woman,Right,1,60,0.15,1,0,-,0,0.3990569000002324,['n'],0.47072220000018206,1.76,756.2857390000004,,,,,553,18,Woman,Right,
,,,,,,,,,,,,,,,,,553,18,Woman,Right,1,44,0.15,1,0,-,0,0.364260099999683,['n'],0.4385809000000336,1.796,759.5556081,,,,,553,18,Woman,Right,
,,,,,,,,,,,,,,,,,553,18,Woman,Right,1,13,0.4,2,0,180,180,0.5416207999996914,['y'],0.5188148000002002,1.72,763.4597249000003,,,,,553,18,Woman,Right,
,,,,,,,,,,,,,,,,,553,18,Woman,Right,1,36,0.4,1,0,-,0,0.5251868999998806,['n'],0.44666110000025583,1.3519999999999999,767.4135518000003,,,,,553,18,Woman,Right,
,,,,,,,,,,,,,,,,,553,18,Woman,Right,1,69,0.15,2,0,180,180,1.0429927999998654,['y'],3.078988400000071,1.278,774.7874089000002,,,,,553,18,Woman,Right,
,,,,,,,,,,,,,,,,,553,18,Woman,Right,1,58,0.15,1,180,-,0,0.835694699999749,['n'],0.38303959999984727,1.304,778.6411888000002,,,,,553,18,Woman,Right,
,,,,,,,,,,,,,,,,,553,18,Woman,Right,1,31,0.4,2,180,0,0,0.7820345000000088,['y'],0.4468799000001127,2.0,782.6452074000003,,,,,553,18,Woman,Right,
,,,,,,,,,,,,,,,,,553,18,Woman,Right,1,15,0.4,2,180,0,0,0.7533924999997907,['y'],0.5908473999998023,1.748,786.8493908,,,,,553,18,Woman,Right,
,,,,,,,,,,,,,,,,,553,18,Woman,Right,1,71,0.15,2,180,0,0,1.109441699999934,['n'],0.47885249999990265,1.218,791.3874974,,,,,553,18,Woman,Right,
,,,,,,,,,,,,,,,,,553,18,Woman,Right,1,63,0.15,2,180,0,180,0.70073739999998,['n'],0.5912565999997241,1.272,795.3411896000002,,,,,553,18,Woman,Right,
,,,,,,,,,,,,,,,,,553,18,Woman,Right,1,34,0.4,1,180,-,180,2.289282899999762,['n'],0.3987939999997252,1.172,800.6797064000002,,,,,553,18,Woman,Right,
,,,,,,,,,,,,,,,,,553,18,Woman,Right,1,16,0.4,1,0,-,0,0.38392479999993157,['n'],0.4489234000002398,1.18,804.1501836000002,,,,,553,18,Woman,Right,
,,,,,,,,,,,,,,,,,553,18,Woman,Right,1,52,0.15,1,0,-,0,0.21478699999988748,['n'],0.56670639999993,1.524,807.7378018000004,,,,,553,18,Woman,Right,
,,,,,,,,,,,,,,,,,553,18,Woman,Right,1,11,0.4,2,180,0,0,0.7163387999999031,['y'],0.6544060000001082,1.31,813.5094025000003,,,,,553,18,Woman,Right,
,,,,,,,,,,,,,,,,,553,18,Woman,Right,1,8,0.4,1,0,-,0,0.5260213000001386,['n'],0.5188683999999739,1.38,817.1127812,,,,,553,18,Woman,Right,
,,,,,,,,,,,,,,,,,553,18,Woman,Right,1,38,0.4,1,180,-,180,0.7218704000001708,['n'],0.47877390000030573,1.3359999999999999,821.2672585,,,,,553,18,Woman,Right,
,,,,,,,,,,,,,,,,,553,18,Woman,Right,1,30,0.4,1,180,-,180,0.5821286000000327,['n'],0.3908814999999777,1.634,824.7705261000001,,,,,553,18,Woman,Right,
,,,,,,,,,,,,,,,,,553,18,Woman,Right,1,18,0.4,1,180,-,0,0.5541565999997147,['y'],0.582982500000071,1.0,828.9581625000001,,,,,553,18,Woman,Right,
,,,,,,,,,,,,,,,,,553,18,Woman,Right,1,40,0.4,1,0,-,0,0.717655299999933,['n'],0.3023390999996991,2.0,832.5949496000003,,,,,553,18,Woman,Right,
,,,,,,,,,,,,,,,,,553,18,Woman,Right,1,59,0.15,2,180,0,0,0.6949349000001348,['y'],0.5670873999997639,1.21,836.4989468000003,,,,,553,18,Woman,Right,
,,,,,,,,,,,,,,,,,553,18,Woman,Right,1,45,0.15,2,0,180,0,1.244330699999864,['n'],0.5586223000000246,1.412,841.3208101,,,,,553,18,Woman,Right,
,,,,,,,,,,,,,,,,,553,18,Woman,Right,1,77,0.15,2,0,180,0,0.3613308999997571,['n'],0.39114589999962845,1.726,844.4567353000002,,,,,553,18,Woman,Right,
,,,,,,,,,,,,,,,,,553,18,Woman,Right,1,67,0.15,2,180,0,180,0.7517750000001797,['n'],0.33472600000004604,1.274,848.0936500000003,,,,,553,18,Woman,Right,
,,,,,,,,,,,,,,,,,553,18,Woman,Right,1,21,0.4,2,0,180,180,1.131480499999725,['y'],0.4554118999999446,1.6360000000000001,852.3148149000003,,,,,553,18,Woman,Right,
,,,,,,,,,,,,,,,,,553,18,Woman,Right,1,42,0.4,1,180,-,180,1.3783308000001853,['y'],0.7270668000001024,1.0,857.5196804000002,,,,,553,18,Woman,Right,
,,,,,,,,,,,,,,,,,553,18,Woman,Right,1,25,0.4,2,0,180,180,0.4601760999998987,['y'],0.9907361000000492,1.774,862.3080054000002,,,,,553,18,Woman,Right,
,,,,,,,,,,,,,,,,,553,18,Woman,Right,1,68,0.15,1,0,-,0,0.6863607000000229,['n'],0.37474740000016027,1.328,866.4118921000004,,,,,553,18,Woman,Right,
,,,,,,,,,,,,,,,,,553,18,Woman,Right,1,4,1,1,0,-,0,0.38132820000009815,['n'],1.2068011000001206,2.0,870.8163981000002,,,,,553,18,Woman,Right,
,,,,,,,,,,,,,,,,,553,18,Woman,Right,1,6,1,1,180,-,180,0.9009869000001345,['n'],0.5585541999998895,2.0,874.9038169,,,,,553,18,Woman,Right,
,,,,,,,,,,,,,,,,,553,18,Woman,Right,1,7,1,2,180,0,0,0.7588245000001734,['y'],0.5036200999998073,2.0,879.2412198000002,,,,,553,18,Woman,Right,
,,,,,,,,,,,,,,,,,553,18,Woman,Right,1,55,0.15,2,180,0,0,1.7843523999999888,['n'],0.4308264999999665,1.698,884.3473737000004,,,,,553,18,Woman,Right,
,,,,,,,,,,,,,,,,,553,18,Woman,Right,1,61,0.15,2,0,180,0,2.2139635999997154,['n'],0.502663499999926,1.1179999999999999,889.6861634000002,,,,,553,18,Woman,Right,
,,,,,,,,,,,,,,,,,553,18,Woman,Right,1,56,0.15,1,0,-,0,0.917991400000119,['n'],0.465476000000308,1.1520000000000001,893.8226808000004,,,,,553,18,Woman,Right,
,,,,,,,,,,,,,,,,,553,18,Woman,Right,1,73,0.15,2,0,180,180,1.3672362000002067,['y'],0.4308379999997669,1.162,898.5939203000003,,,,,553,18,Woman,Right,
,,,,,,,,,,,,,,,,,553,18,Woman,Right,1,76,0.15,1,0,-,0,0.7098836000000119,['n'],0.3027874000003976,1.374,902.3142767000004,,,,,553,18,Woman,Right,
,,,,,,,,,,,,,,,,,553,18,Woman,Right,1,0,1,1,0,-,0,0.33989729999984775,['n'],0.9822670999997172,2.0,906.4351126000001,,,,,553,18,Woman,Right,
,,,,,,,,,,,,,,,,,553,18,Woman,Right,1,28,0.4,1,0,-,0,1.7853353000000425,['n'],1.2868054000000484,1.0,912.2908366000001,,,,,553,18,Woman,Right,
,,,,,,,,,,,,,,,,,553,18,Woman,Right,1,17,0.4,2,0,180,180,1.0084612000000561,['y'],0.4228747000001931,1.286,916.7953322000003,,,,,553,18,Woman,Right,
,,,,,,,,,,,,,,,,,553,18,Woman,Right,1,75,0.15,2,180,0,180,3.273698599999989,['n'],0.43054309999979523,1.0,923.3017794000002,,,,,553,18,Woman,Right,
,,,,,,,,,,,,,,,,,553,18,Woman,Right,1,22,0.4,1,180,-,180,1.354872300000352,['n'],0.4469395999999506,1.688,929.1244650000003,,,,,553,18,Woman,Right,
,,,,,,,,,,,,,,,,,553,18,Woman,Right,1,24,0.4,1,0,-,0,0.16672819999985222,['n'],0.5348401999999624,1.3,932.6778349000001,,,,,553,18,Woman,Right,
,,,,,,,,,,,,,,,,,553,18,Woman,Right,1,51,0.15,2,180,0,0,1.0238423999999213,['n'],0.38273019999996905,1.286,937.0321842000003,,,,,553,18,Woman,Right,
,,,,,,,,,,,,,,,,,553,18,Woman,Right,1,41,0.4,2,0,180,180,0.5934139000000869,['y'],0.42278340000029857,1.6520000000000001,940.7358108000003,,,,,553,18,Woman,Right,
,,,,,,,,,,,,,,,,,553,18,Woman,Right,1,46,0.15,1,180,-,0,0.444604000000254,['n'],0.310447600000316,1.32,944.1393860000003,,,,,553,18,Woman,Right,
,,,,,,,,,,,,,,,,,553,18,Woman,Right,1,64,0.15,1,0,-,0,0.5813843000000816,['n'],0.4226314000002276,1.5979999999999999,948.1431417000003,,,,,553,18,Woman,Right,
,,,,,,,,,,,,,,,,,553,18,Woman,Right,1,10,0.4,1,180,-,180,0.8272149999997964,['n'],0.32693399999971007,1.0,951.8635389000001,,,,,553,18,Woman,Right,
,,,,,,,,,,,,,,,,,553,18,Woman,Right,1,12,0.4,1,0,-,0,0.521715999999742,['n'],0.8384667999998783,1.634,955.7840542000004,,,,,553,18,Woman,Right,
,,,,,,,,,,,,,,,,,553,18,Woman,Right,1,66,0.15,1,180,-,0,0.8942989000001944,['n'],0.5345757999998568,1.3599999999999999,959.8713641000004,,,,,553,18,Woman,Right,
,,,,,,,,,,,,,,,,,553,18,Woman,Right,1,37,0.4,2,0,180,180,0.9361967999998342,['y'],0.27873859999999695,1.69,964.1593111000002,,,,,553,18,Woman,Right,
,,,,,,,,,,,,,,,,,553,18,Woman,Right,1,43,0.4,2,180,0,0,1.3621361000000434,['y'],0.6703853999997591,1.616,968.8814464000002,,,,,553,18,Woman,Right,
,,,,,,,,,,,,,,,,,553,18,Woman,Right,1,72,0.15,1,0,-,0,0.6511885999998412,['n'],0.5025507999998808,1.3,972.7342535000002,,,,,553,18,Woman,Right,
,,,,,,,,,,,,,,,,,553,18,Woman,Right,1,48,0.15,1,0,-,0,0.6336560999998255,['n'],0.4225704999998925,1.268,976.2716332,,,,,553,18,Woman,Right,
,,,,,,,,,,,,,,,,,553,18,Woman,Right,1,65,0.15,2,0,180,180,1.155218800000057,['n'],0.5189777000000504,1.28,980.5088217000002,,,,,553,18,Woman,Right,
,,,,,,,,,,,,,,,,,553,18,Woman,Right,1,27,0.4,2,180,0,0,0.6743098000001737,['y'],0.7183630999998059,1.6320000000000001,984.5460337000004,,,,,553,18,Woman,Right,
,,,,,,,,,,,,,,,,,553,18,Woman,Right,1,78,0.15,1,180,-,0,1.2430217000000994,['n'],0.6627487000000656,1.65,989.1506204000002,,,,,553,18,Woman,Right,
,,,,,,,,,,,,,,,,,553,18,Woman,Right,1,62,0.15,1,180,-,180,0.7157151999999769,['n'],0.8149524999998903,1.256,993.5715283000004,,,,,553,18,Woman,Right,
,,,,,,,,,,,,,,,,,553,18,Woman,Right,1,79,0.15,2,180,0,0,2.444493400000283,['y'],0.5268016999998508,1.0,1000.0782663,,,,,553,18,Woman,Right,
,,,,,,,,,,,,,,,,,553,18,Woman,Right,1,57,0.15,2,0,180,0,0.6480576000003566,['n'],0.6226581999999325,1.224,1004.1322147000001,,,,,553,18,Woman,Right,
,,,,,,,,,,,,,,,,,553,18,Woman,Right,1,26,0.4,1,180,-,180,0.5071167000000969,['n'],0.4304869000002327,1.706,1008.0026010000001,,,,,553,18,Woman,Right,
,,,,,,,,,,,,,,,,,553,18,Woman,Right,1,53,0.15,2,0,180,180,0.27007680000042456,['y'],0.638841400000274,1.314,1011.8064331,,,,,553,18,Woman,Right,
,,,,,,,,,,,,,,,,,553,18,Woman,Right,1,23,0.4,2,180,0,0,0.3291331000000355,['n'],0.5190529000001334,1.0,1015.6270967,,,,,553,18,Woman,Right,
,,,,,,,,,,,,,,,,,553,18,Woman,Right,1,47,0.15,2,180,0,0,0.5935684000000947,['y'],0.3665057000002889,1.6059999999999999,1019.1805075000002,,,,,553,18,Woman,Right,
,,,,,,,,,,,,,,,,,553,18,Woman,Right,1,19,0.4,2,180,0,0,0.5326586000001043,['y'],0.39098950000015975,1.5899999999999999,1022.6341104000003,,,,,553,18,Woman,Right,
,,,,,,,,,,,,,,,,,553,18,Woman,Right,1,9,0.4,2,0,180,180,1.2390129999998862,['y'],0.36675190000005387,1.6560000000000001,1027.2217109000003,,,,,553,18,Woman,Right,
,,,,,,,,,,,,,,,,,553,18,Woman,Right,1,33,0.4,2,0,180,180,0.9851286000002801,['y'],0.3906981000000087,1.798,1031.6762048,,,,,553,18,Woman,Right,
,,,,,,,,,,,,,,,,,553,18,Woman,Right,1,32,0.4,1,0,-,0,0.5663005999999768,['n'],0.4226362999997946,1.658,1036.9815484,,,,,553,18,Woman,Right,
,,,,,,,,,,,,,,,,,553,18,Woman,Right,1,20,0.4,1,0,-,0,0.5975507000002835,['n'],0.4865839999997661,1.934,1040.4183082000004,,,,,553,18,Woman,Right,
,,,,,,,,,,,,,,,,,553,18,Woman,Right,2,17,0.4,2,0,180,180,1.1347897000000557,['y'],0.3965459999999439,1.838,1074.4187942000003,80.0,95.0,67.5,,553,18,Woman,Right,
,,,,,,,,,,,,,,,,,553,18,Woman,Right,2,32,0.4,1,0,-,0,0.38078570000016043,['n'],0.446947899999941,1.124,1078.4730039,,,,,553,18,Woman,Right,
,,,,,,,,,,,,,,,,,553,18,Woman,Right,2,10,0.4,1,180,-,180,0.6495177000001604,['n'],0.7103706000002603,1.74,1083.4109413,,,,,553,18,Woman,Right,
,,,,,,,,,,,,,,,,,553,18,Woman,Right,2,6,1,1,180,-,180,0.33327890000009575,['n'],0.871346800000083,2.0,1087.3151298000002,,,,,553,18,Woman,Right,
,,,,,,,,,,,,,,,,,553,18,Woman,Right,2,38,0.4,1,180,-,0,0.6345135000001392,['y'],0.6309881999995923,1.0,1091.5692573000001,,,,,553,18,Woman,Right,
,,,,,,,,,,,,,,,,,553,18,Woman,Right,2,20,0.4,1,0,-,0,2.079225299999962,['n'],0.574663899999905,1.0,1102.2130192,,,,,553,18,Woman,Right,
,,,,,,,,,,,,,,,,,553,18,Woman,Right,2,3,1,2,180,0,0,0.30075510000006034,['y'],1.3013292000000547,2.0,1107.2847235000004,,,,,553,18,Woman,Right,
,,,,,,,,,,,,,,,,,553,18,Woman,Right,2,37,0.4,2,0,180,0,2.6572048000002724,['n'],0.3187480000001415,1.0,1113.2907292,,,,,553,18,Woman,Right,
,,,,,,,,,,,,,,,,,553,18,Woman,Right,2,27,0.4,2,180,0,0,0.43522159999974974,['y'],0.6792626000001292,1.784,1117.2948608000002,,,,,553,18,Woman,Right,
,,,,,,,,,,,,,,,,,553,18,Woman,Right,2,63,0.15,2,180,0,0,0.40424350000012055,['y'],0.5586530000000494,1.6480000000000001,1120.6813251000003,,,,,553,18,Woman,Right,
,,,,,,,,,,,,,,,,,553,18,Woman,Right,2,75,0.15,2,180,0,0,0.5253955000002861,['y'],0.9268145999999433,1.804,1124.7021035000002,,,,,553,18,Woman,Right,
,,,,,,,,,,,,,,,,,553,18,Woman,Right,2,33,0.4,2,0,180,180,1.5014398000002984,['y'],0.5507164999999077,1.728,1129.4568018,,,,,553,18,Woman,Right,
,,,,,,,,,,,,,,,,,553,18,Woman,Right,2,51,0.15,2,180,0,180,1.0514855999999781,['n'],0.45934200000010605,2.0,1133.6609896,,,,,553,18,Woman,Right,
,,,,,,,,,,,,,,,,,553,18,Woman,Right,2,78,0.15,1,180,-,0,1.0688629999999648,['n'],0.7423699999999371,1.0,1138.0320011000003,,,,,553,18,Woman,Right,
,,,,,,,,,,,,,,,,,553,18,Woman,Right,2,19,0.4,2,180,0,0,0.4027160999999069,['y'],0.5027671000002556,1.294,1141.6355286000003,,,,,553,18,Woman,Right,
,,,,,,,,,,,,,,,,,553,18,Woman,Right,2,64,0.15,1,0,-,0,0.3556883999999627,['n'],0.5269170000001395,1.836,1145.0723144000003,,,,,553,18,Woman,Right,
,,,,,,,,,,,,,,,,,553,18,Woman,Right,2,44,0.15,1,0,-,0,0.2805890999998155,['n'],0.4465447000002314,1.014,1148.3255920000001,,,,,553,18,Woman,Right,
,,,,,,,,,,,,,,,,,553,18,Woman,Right,2,5,1,2,0,180,180,2.223320799999783,['y'],0.6865216000001055,1.836,1153.9311561000004,,,,,553,18,Woman,Right,
,,,,,,,,,,,,,,,,,553,18,Woman,Right,2,48,0.15,1,0,-,0,0.40648160000000644,['n'],0.4549744999999348,2.0,1157.3178146,,,,,553,18,Woman,Right,
,,,,,,,,,,,,,,,,,553,18,Woman,Right,2,68,0.15,1,0,-,0,0.4501980999998523,['n'],0.5188259000001381,1.604,1161.2717773000004,,,,,553,18,Woman,Right,
,,,,,,,,,,,,,,,,,553,18,Woman,Right,2,16,0.4,1,0,-,0,0.29694610000024113,['n'],0.49478769999996075,1.736,1164.5916439000002,,,,,553,18,Woman,Right,
,,,,,,,,,,,,,,,,,553,18,Woman,Right,2,28,0.4,1,0,-,0,2.1771670000002814,['n'],0.606854900000144,1.3399999999999999,1169.9637282000003,,,,,553,18,Woman,Right,
,,,,,,,,,,,,,,,,,553,18,Woman,Right,2,67,0.15,2,180,0,180,0.752026399999977,['n'],0.5827885999997306,2.0,1174.2180654000003,,,,,553,18,Woman,Right,
,,,,,,,,,,,,,,,,,553,18,Woman,Right,2,11,0.4,2,180,0,0,0.5827212999997755,['y'],0.5830950999998095,2.0,1178.4388453000001,,,,,553,18,Woman,Right,
,,,,,,,,,,,,,,,,,553,18,Woman,Right,2,34,0.4,1,180,-,180,0.21073279999973238,['n'],0.42263039999988905,2.0,1181.6085766,,,,,553,18,Woman,Right,
,,,,,,,,,,,,,,,,,553,18,Woman,Right,2,56,0.15,1,0,-,0,1.663890100000117,['n'],0.6149003999998968,1.0,1187.4476949,,,,,553,18,Woman,Right,
,,,,,,,,,,,,,,,,,553,18,Woman,Right,2,30,0.4,1,180,-,180,0.8815831000001708,['n'],0.46282549999978073,1.0,1191.2014913000003,,,,,553,18,Woman,Right,
,,,,,,,,,,,,,,,,,553,18,Woman,Right,2,58,0.15,1,180,-,180,0.9770198999999593,['n'],0.44664209999973536,1.234,1196.0563534000003,,,,,553,18,Woman,Right,
,,,,,,,,,,,,,,,,,553,18,Woman,Right,2,53,0.15,2,0,180,0,0.7217054000002463,['n'],0.38307709999980943,1.676,1200.9611858000003,,,,,553,18,Woman,Right,
,,,,,,,,,,,,,,,,,553,18,Woman,Right,2,9,0.4,2,0,180,180,0.48134410000011485,['y'],0.48729610000009416,1.774,1204.9654719,,,,,553,18,Woman,Right,
,,,,,,,,,,,,,,,,,553,18,Woman,Right,2,21,0.4,2,0,180,180,0.2931595999998535,['y'],0.4628357000001415,2.0,1208.5354230000003,,,,,553,18,Woman,Right,
,,,,,,,,,,,,,,,,,553,18,Woman,Right,2,29,0.4,2,0,180,180,0.46582260000013775,['y'],0.49483839999993506,1.8820000000000001,1212.1724026000002,,,,,553,18,Woman,Right,
,,,,,,,,,,,,,,,,,553,18,Woman,Right,2,59,0.15,2,180,0,0,0.8788399000000027,['y'],0.6147639999999228,1.0,1216.7603083000004,,,,,553,18,Woman,Right,
,,,,,,,,,,,,,,,,,553,18,Woman,Right,2,54,0.15,1,180,-,180,0.6911196000000928,['y'],1.5906528000000435,1.0,1222.3158299000002,,,,,553,18,Woman,Right,
,,,,,,,,,,,,,,,,,553,18,Woman,Right,2,14,0.4,1,180,-,0,0.5677866000000904,['n'],0.8464176000002226,1.306,1226.7201687000002,,,,,553,18,Woman,Right,
,,,,,,,,,,,,,,,,,553,18,Woman,Right,2,39,0.4,2,180,0,0,0.6190409999999247,['y'],0.47907420000001366,1.744,1230.5241659000003,,,,,553,18,Woman,Right,
,,,,,,,,,,,,,,,,,553,18,Woman,Right,2,0,1,1,0,-,0,0.29258489999983794,['y'],0.5431616000000759,1.0,1234.4612155,,,,,553,18,Woman,Right,
,,,,,,,,,,,,,,,,,553,18,Woman,Right,2,24,0.4,1,0,-,0,0.5076409000002968,['n'],0.3826094999999441,1.544,1238.2649854000001,,,,,553,18,Woman,Right,
,,,,,,,,,,,,,,,,,553,18,Woman,Right,2,4,1,1,0,-,0,0.6108549000000494,['n'],0.430598800000098,2.0,1242.1190745000004,,,,,553,18,Woman,Right,
,,,,,,,,,,,,,,,,,553,18,Woman,Right,2,41,0.4,2,0,180,180,0.7693346000000929,['y'],0.5104735999998411,2.0,1246.1895394000003,,,,,553,18,Woman,Right,
,,,,,,,,,,,,,,,,,553,18,Woman,Right,2,43,0.4,2,180,0,0,0.6447304000002987,['y'],0.6630160999998225,1.834,1250.0934868000004,,,,,553,18,Woman,Right,
,,,,,,,,,,,,,,,,,553,18,Woman,Right,2,69,0.15,2,0,180,0,0.7011486999999761,['n'],0.45561959999986357,1.174,1253.8638060000003,,,,,553,18,Woman,Right,
,,,,,,,,,,,,,,,,,553,18,Woman,Right,2,65,0.15,2,0,180,0,0.5845859999999448,['n'],0.43129190000036033,1.6440000000000001,1257.4340609,,,,,553,18,Woman,Right,
,,,,,,,,,,,,,,,,,553,18,Woman,Right,2,2,1,1,180,-,180,0.5403006000001369,['n'],0.494859599999927,2.0,1261.3548700000001,,,,,553,18,Woman,Right,
,,,,,,,,,,,,,,,,,553,18,Woman,Right,2,52,0.15,1,0,-,0,0.7992295000003651,['n'],0.3105983999998898,1.826,1265.1919065000002,,,,,553,18,Woman,Right,
,,,,,,,,,,,,,,,,,553,18,Woman,Right,2,35,0.4,2,180,0,0,0.5280711000000338,['y'],0.5427976999999373,1.778,1268.9287672,,,,,553,18,Woman,Right,
,,,,,,,,,,,,,,,,,553,18,Woman,Right,2,12,0.4,1,0,-,0,0.7697768999996697,['n'],0.6148277000002054,1.012,1273.3332004000004,,,,,553,18,Woman,Right,
,,,,,,,,,,,,,,,,,553,18,Woman,Right,2,60,0.15,1,0,-,0,0.4917556999998851,['n'],0.5746201000001747,1.29,1277.4206155000002,,,,,553,18,Woman,Right,
,,,,,,,,,,,,,,,,,553,18,Woman,Right,2,8,0.4,1,0,-,0,0.4609392999996089,['n'],0.454851200000121,1.0,1280.9575082000001,,,,,553,18,Woman,Right,
,,,,,,,,,,,,,,,,,553,18,Woman,Right,2,7,1,2,180,0,0,0.5883481000000756,['y'],0.4553435999996509,2.0,1284.4275848000002,,,,,553,18,Woman,Right,
,,,,,,,,,,,,,,,,,553,18,Woman,Right,2,73,0.15,2,0,180,180,0.7975414999996246,['y'],0.942862200000036,1.708,1288.8486189,,,,,553,18,Woman,Right,
,,,,,,,,,,,,,,,,,553,18,Woman,Right,2,62,0.15,1,180,-,180,1.7447259999999005,['n'],0.4946271999997407,1.0,1293.6366798000004,,,,,553,18,Woman,Right,
,,,,,,,,,,,,,,,,,553,18,Woman,Right,2,36,0.4,1,0,-,0,0.39871820000007574,['n'],0.5748435999998946,1.604,1297.2071628000003,,,,,553,18,Woman,Right,
,,,,,,,,,,,,,,,,,553,18,Woman,Right,2,76,0.15,1,0,-,180,0.6750870999999279,['y'],0.5985766000003423,1.304,1300.994224,,,,,553,18,Woman,Right,
,,,,,,,,,,,,,,,,,553,18,Woman,Right,2,1,1,2,0,180,180,0.677416699999867,['y'],0.5584635999998682,2.0,1304.8979233,,,,,553,18,Woman,Right,
,,,,,,,,,,,,,,,,,553,18,Woman,Right,2,13,0.4,2,0,180,180,0.4067982999999913,['y'],0.5110138000000006,2.0,1308.3012469,,,,,553,18,Woman,Right,
,,,,,,,,,,,,,,,,,553,18,Woman,Right,2,15,0.4,2,180,0,0,2.1684046000000308,['y'],0.5541027999997823,1.646,1313.5899097000001,,,,,553,18,Woman,Right,
,,,,,,,,,,,,,,,,,553,18,Woman,Right,2,77,0.15,2,0,180,0,0.4826386000004277,['n'],0.398747899999762,1.672,1317.0113335,,,,,553,18,Woman,Right,
,,,,,,,,,,,,,,,,,553,18,Woman,Right,2,40,0.4,1,0,-,0,0.7178341999997429,['n'],0.7990541000003759,1.072,1320.9472592000002,,,,,553,18,Woman,Right,
,,,,,,,,,,,,,,,,,553,18,Woman,Right,2,42,0.4,1,180,-,180,1.4685800000002018,['n'],0.8786669000000984,1.0,1326.7363312000002,,,,,553,18,Woman,Right,
,,,,,,,,,,,,,,,,,553,18,Woman,Right,2,74,0.15,1,180,-,0,2.362356699999964,['n'],0.9826763000000938,1.02,1332.8759750000004,,,,,553,18,Woman,Right,
,,,,,,,,,,,,,,,,,553,18,Woman,Right,2,72,0.15,1,0,-,0,0.5587516000000505,['n'],0.9029892999997173,1.624,1337.1299861000002,,,,,553,18,Woman,Right,
,,,,,,,,,,,,,,,,,553,18,Woman,Right,2,26,0.4,1,180,-,180,0.3619085999998788,['n'],0.478793300000234,1.322,1340.8173197,,,,,553,18,Woman,Right,
,,,,,,,,,,,,,,,,,553,18,Woman,Right,2,55,0.15,2,180,0,0,1.8669228000003386,['y'],0.2787522999997236,1.322,1340.8173197,,,,,553,18,Woman,Right,
,,,,,,,,,,,,,,,,,553,18,Woman,Right,2,49,0.15,2,0,180,0,1.5690289000003759,['n'],0.6142680000002656,1.0,1350.8769932,,,,,553,18,Woman,Right,
,,,,,,,,,,,,,,,,,553,18,Woman,Right,2,50,0.15,1,180,-,180,3.090432899999996,['y'],0.6145113000002311,1.0,1357.8506120000002,,,,,553,18,Woman,Right,
,,,,,,,,,,,,,,,,,553,18,Woman,Right,2,22,0.4,1,180,-,0,0.28690450000021883,['n'],0.6709759000000304,1.642,1361.2873592,,,,,553,18,Woman,Right,
,,,,,,,,,,,,,,,,,553,18,Woman,Right,2,70,0.15,1,180,-,180,1.9139674999996714,['n'],0.7425987000001442,1.154,1367.2603846000002,,,,,553,18,Woman,Right,
,,,,,,,,,,,,,,,,,553,18,Woman,Right,2,25,0.4,2,0,180,180,0.6784481999998206,['y'],0.4550888000003397,1.748,1371.0803089,,,,,553,18,Woman,Right,
,,,,,,,,,,,,,,,,,553,18,Woman,Right,2,31,0.4,2,180,0,0,0.31459929999982705,['y'],0.5023348999998234,2.0,1374.2670017,,,,,553,18,Woman,Right,
,,,,,,,,,,,,,,,,,553,18,Woman,Right,2,61,0.15,2,0,180,180,0.9989811000000373,['n'],0.5348358999999618,1.73,1378.3375549000002,,,,,553,18,Woman,Right,
,,,,,,,,,,,,,,,,,553,18,Woman,Right,2,71,0.15,2,180,0,0,0.5051487000000634,['n'],0.39874079999981404,1.0979999999999999,1382.2081011,,,,,553,18,Woman,Right,
,,,,,,,,,,,,,,,,,553,18,Woman,Right,2,18,0.4,1,180,-,180,0.2642940999999155,['n'],0.4548661000003449,1.734,1385.4946027,,,,,553,18,Woman,Right,
,,,,,,,,,,,,,,,,,553,18,Woman,Right,2,66,0.15,1,180,-,0,0.6117297999999209,['y'],0.41479160000017146,1.218,1390.0993579,,,,,553,18,Woman,Right,
,,,,,,,,,,,,,,,,,553,18,Woman,Right,2,46,0.15,1,180,-,0,0.3511389999998755,['n'],0.486853500000052,1.23,1393.6028479000001,,,,,553,18,Woman,Right,
,,,,,,,,,,,,,,,,,553,18,Woman,Right,2,45,0.15,2,0,180,0,0.5669511000000966,['y'],0.38145699999995486,1.0,1399.5919501000003,,,,,553,18,Woman,Right,
,,,,,,,,,,,,,,,,,553,18,Woman,Right,2,47,0.15,2,180,0,0,0.6011979999998402,['y'],0.4389621000000261,1.306,1403.3457683000001,,,,,553,18,Woman,Right,
,,,,,,,,,,,,,,,,,553,18,Woman,Right,2,57,0.15,2,0,180,0,0.5343462999999247,['n'],0.6972616000002745,1.0,1407.868073,,,,,553,18,Woman,Right,
,,,,,,,,,,,,,,,,,553,18,Woman,Right,2,79,0.15,2,180,0,0,0.41006830000014816,['y'],1.270815500000026,1.0,1412.1721363000001,,,,,553,18,Woman,Right,
,,,,,,,,,,,,,,,,,553,18,Woman,Right,2,23,0.4,2,180,0,0,0.9191132000000835,['y'],1.0869333999999071,1.696,1417.0094525000004,,,,,553,18,Woman,Right,
,,,,,,,,,,,,,,,,,553,18,Woman,Right,3,33,0.4,2,0,180,180,0.8307371000000785,['y'],0.5908214999999473,2.0,1448.8410642000003,77.5,85.0,72.5,,553,18,Woman,Right,
,,,,,,,,,,,,,,,,,553,18,Woman,Right,3,27,0.4,2,180,0,0,0.24784820000013497,['y'],0.4629950000003191,2.0,1452.4948131,,,,,553,18,Woman,Right,
,,,,,,,,,,,,,,,,,553,18,Woman,Right,3,56,0.15,1,0,-,180,0.41172690000030343,['n'],0.47080659999983254,1.0979999999999999,1455.8479889,,,,,553,18,Woman,Right,
,,,,,,,,,,,,,,,,,553,18,Woman,Right,3,69,0.15,2,0,180,180,0.5211012999998275,['n'],0.5588268000001335,1.0,1460.3026158000002,,,,,553,18,Woman,Right,
,,,,,,,,,,,,,,,,,553,18,Woman,Right,3,59,0.15,2,180,0,0,1.3247458000000734,['n'],1.1107272000003832,1.0,1465.9413332000004,,,,,553,18,Woman,Right,
,,,,,,,,,,,,,,,,,553,18,Woman,Right,3,11,0.4,2,180,0,0,0.3743475999999646,['y'],0.41457790000004024,2.0,1469.6786537000003,,,,,553,18,Woman,Right,
,,,,,,,,,,,,,,,,,553,18,Woman,Right,3,6,1,1,180,-,180,0.9307419000001573,['n'],0.26344410000001517,2.0,1473.3157879,,,,,553,18,Woman,Right,
,,,,,,,,,,,,,,,,,553,18,Woman,Right,3,53,0.15,2,0,180,0,1.2788862999996127,['n'],0.44672639999998864,2.0,1473.3157879,,,,,553,18,Woman,Right,
,,,,,,,,,,,,,,,,,553,18,Woman,Right,3,14,0.4,1,180,-,180,0.5189766000003146,['n'],0.27861750000010943,1.626,1481.4568444000001,,,,,553,18,Woman,Right,
,,,,,,,,,,,,,,,,,553,18,Woman,Right,3,66,0.15,1,180,-,180,1.5905741000001399,['n'],1.0709234999999353,1.0,1488.1301297,,,,,553,18,Woman,Right,
,,,,,,,,,,,,,,,,,553,18,Woman,Right,3,17,0.4,2,0,180,180,1.049622399999862,['y'],0.43875000000025466,1.696,1492.0506014000002,,,,,553,18,Woman,Right,
,,,,,,,,,,,,,,,,,553,18,Woman,Right,3,23,0.4,2,180,0,0,0.32720800000015515,['y'],0.7029496999998628,1.6560000000000001,1497.7567020000001,,,,,553,18,Woman,Right,
,,,,,,,,,,,,,,,,,553,18,Woman,Right,3,8,0.4,1,0,-,0,0.7747526999996808,['n'],0.27851479999981166,1.6480000000000001,1501.3765467000003,,,,,553,18,Woman,Right,
,,,,,,,,,,,,,,,,,553,18,Woman,Right,3,37,0.4,2,0,180,180,4.098360899999989,['y'],0.4547023000000081,1.176,1510.2020886,,,,,553,18,Woman,Right,
,,,,,,,,,,,,,,,,,553,18,Woman,Right,3,2,1,1,180,-,180,0.672625700000026,['n'],0.5505567999998675,2.0,1513.9724063000003,,,,,553,18,Woman,Right,
,,,,,,,,,,,,,,,,,553,18,Woman,Right,3,4,1,1,0,-,0,0.49359340000000884,['n'],0.5508368000000701,2.0,1517.6094019000002,,,,,553,18,Woman,Right,
,,,,,,,,,,,,,,,,,553,18,Woman,Right,3,44,0.15,1,0,-,180,1.626893999999993,['n'],0.5265052999998261,1.0,1522.7147095,,,,,553,18,Woman,Right,
,,,,,,,,,,,,,,,,,553,18,Woman,Right,3,42,0.4,1,180,-,180,0.43058380000002217,['n'],0.3272326000001158,1.0,1526.0511703000002,,,,,553,18,Woman,Right,
,,,,,,,,,,,,,,,,,553,18,Woman,Right,3,68,0.15,1,0,-,0,2.391859899999872,['n'],0.19065060000002632,1.31,1531.3563826,,,,,553,18,Woman,Right,
,,,,,,,,,,,,,,,,,553,18,Woman,Right,3,22,0.4,1,180,-,180,0.5743779999997969,['n'],0.2710917000003974,1.196,1534.5264422,,,,,553,18,Woman,Right,
,,,,,,,,,,,,,,,,,553,18,Woman,Right,3,31,0.4,2,180,0,0,0.5637834999997722,['y'],0.4784594000002471,1.694,1538.1968038,,,,,553,18,Woman,Right,
,,,,,,,,,,,,,,,,,553,18,Woman,Right,3,74,0.15,1,180,-,180,0.413742899999761,['n'],0.3190472999999656,1.258,1541.3668296,,,,,553,18,Woman,Right,
,,,,,,,,,,,,,,,,,553,18,Woman,Right,3,51,0.15,2,180,0,0,0.5390975000000253,['y'],0.446983100000125,1.168,1544.9365114000002,,,,,553,18,Woman,Right,
,,,,,,,,,,,,,,,,,553,18,Woman,Right,3,62,0.15,1,180,-,180,0.5516089000002466,['n'],0.3347585000001345,1.0,1548.5238405,,,,,553,18,Woman,Right,
,,,,,,,,,,,,,,,,,553,18,Woman,Right,3,52,0.15,1,0,-,0,0.5027541999997993,['n'],0.8468437000001359,1.3519999999999999,1552.3940796000002,,,,,553,18,Woman,Right,
,,,,,,,,,,,,,,,,,553,18,Woman,Right,3,30,0.4,1,180,-,180,0.45761640000000625,['n'],0.40687449999995806,1.0,1555.8307464000004,,,,,553,18,Woman,Right,
,,,,,,,,,,,,,,,,,553,18,Woman,Right,3,78,0.15,1,180,-,0,0.8503350000000864,['n'],0.30240839999987656,1.0,1560.3187549000004,,,,,553,18,Woman,Right,
,,,,,,,,,,,,,,,,,553,18,Woman,Right,3,73,0.15,2,0,180,0,2.556351800000357,['y'],0.20669889999999214,1.302,1565.5406453,,,,,553,18,Woman,Right,
,,,,,,,,,,,,,,,,,553,18,Woman,Right,3,28,0.4,1,0,-,0,0.7397839000000204,['n'],0.6547408000001269,1.6400000000000001,1570.6791046000003,,,,,553,18,Woman,Right,
,,,,,,,,,,,,,,,,,553,18,Woman,Right,3,43,0.4,2,180,0,0,0.4788677000001371,['y'],0.5188418999996429,1.6320000000000001,1574.6161150000003,,,,,553,18,Woman,Right,
,,,,,,,,,,,,,,,,,553,18,Woman,Right,3,12,0.4,1,0,-,0,0.8401923000001261,['n'],0.8627572999998847,1.596,1578.8035361000002,,,,,553,18,Woman,Right,
,,,,,,,,,,,,,,,,,553,18,Woman,Right,3,47,0.15,2,180,0,0,1.0710085999999137,['y'],0.41463470000007874,1.6059999999999999,1584.3257425000002,,,,,553,18,Woman,Right,
,,,,,,,,,,,,,,,,,553,18,Woman,Right,3,41,0.4,2,0,180,180,1.2847900000001573,['y'],1.9681981000003361,1.976,1590.6487383000003,,,,,553,18,Woman,Right,
,,,,,,,,,,,,,,,,,553,18,Woman,Right,3,77,0.15,2,0,180,180,1.0567819999996573,['y'],0.35073259999990114,1.678,1594.9196857000002,,,,,553,18,Woman,Right,
,,,,,,,,,,,,,,,,,553,18,Woman,Right,3,48,0.15,1,0,-,0,0.8816821000000346,['n'],0.27874289999999746,1.3780000000000001,1598.9570581000003,,,,,553,18,Woman,Right,
,,,,,,,,,,,,,,,,,553,18,Woman,Right,3,20,0.4,1,0,-,180,0.4654629000001478,['y'],0.3669198000002325,1.3319999999999999,1602.6941089000002,,,,,553,18,Woman,Right,
,,,,,,,,,,,,,,,,,553,18,Woman,Right,3,40,0.4,1,0,-,180,1.449676300000192,['y'],0.49454279999963546,1.3719999999999999,1608.8001617,,,,,553,18,Woman,Right,
,,,,,,,,,,,,,,,,,553,18,Woman,Right,3,5,1,2,0,180,180,0.29078489999983503,['y'],0.5826391000000513,2.0,1612.1203649000004,,,,,553,18,Woman,Right,
,,,,,,,,,,,,,,,,,553,18,Woman,Right,3,24,0.4,1,0,-,180,1.6069014999998217,['y'],0.6224706000002698,1.0,1617.1417697000002,,,,,553,18,Woman,Right,
,,,,,,,,,,,,,,,,,553,18,Woman,Right,3,39,0.4,2,180,0,0,0.3099317000001065,['y'],1.3109653999999864,1.6480000000000001,1621.6962168,,,,,553,18,Woman,Right,
,,,,,,,,,,,,,,,,,553,18,Woman,Right,3,57,0.15,2,0,180,180,0.9158908999997948,['y'],0.390831100000014,1.322,1626.4845724000002,,,,,553,18,Woman,Right,
,,,,,,,,,,,,,,,,,553,18,Woman,Right,3,65,0.15,2,0,180,0,0.7596470000003137,['n'],0.5264526999999362,1.362,1630.1380155000002,,,,,553,18,Woman,Right,
,,,,,,,,,,,,,,,,,553,18,Woman,Right,3,79,0.15,2,180,0,0,1.8449094000002333,['n'],0.9105437999996866,1.0,1635.8270466000004,,,,,553,18,Woman,Right,
,,,,,,,,,,,,,,,,,553,18,Woman,Right,3,49,0.15,2,0,180,180,1.5411600999996153,['n'],0.41481489999978294,1.0,1640.3481684000003,,,,,553,18,Woman,Right,
,,,,,,,,,,,,,,,,,553,18,Woman,Right,3,1,1,2,0,180,180,0.7270571000003656,['y'],0.5664864999998827,2.0,1644.2021113,,,,,553,18,Woman,Right,
,,,,,,,,,,,,,,,,,553,18,Woman,Right,3,55,0.15,2,180,0,0,0.6513832000000548,['n'],0.7115865000000667,1.0,1648.4895963000004,,,,,553,18,Woman,Right,
,,,,,,,,,,,,,,,,,553,18,Woman,Right,3,10,0.4,1,180,-,180,1.0764291999998932,['n'],0.4628410000000258,1.742,1652.5269454000004,,,,,553,18,Woman,Right,
,,,,,,,,,,,,,,,,,553,18,Woman,Right,3,63,0.15,2,180,0,0,0.6418091999998978,['y'],1.0548266000000694,1.12,1657.0147473000002,,,,,553,18,Woman,Right,
,,,,,,,,,,,,,,,,,553,18,Woman,Right,3,67,0.15,2,180,0,180,1.2871350000000348,['n'],0.35076900000012756,1.0,1661.0856035000002,,,,,553,18,Woman,Right,
,,,,,,,,,,,,,,,,,553,18,Woman,Right,3,54,0.15,1,180,-,180,0.7636448999996901,['n'],0.29474819999995816,1.042,1664.7893284000002,,,,,553,18,Woman,Right,
,,,,,,,,,,,,,,,,,553,18,Woman,Right,3,70,0.15,1,180,-,0,1.3921706000000995,['n'],0.3027876000001015,1.162,1668.9935748000003,,,,,553,18,Woman,Right,
,,,,,,,,,,,,,,,,,553,18,Woman,Right,3,9,0.4,2,0,180,180,1.051235700000234,['y'],0.42697369999996226,1.064,1673.0975511000001,,,,,553,18,Woman,Right,
,,,,,,,,,,,,,,,,,553,18,Woman,Right,3,19,0.4,2,180,0,0,0.31327950000013516,['y'],0.5188306000000011,1.758,1676.3682143,,,,,553,18,Woman,Right,
,,,,,,,,,,,,,,,,,553,18,Woman,Right,3,7,1,2,180,0,0,0.4434652999998434,['y'],0.406908200000089,2.0,1679.7876135000001,,,,,553,18,Woman,Right,
,,,,,,,,,,,,,,,,,553,18,Woman,Right,3,46,0.15,1,180,-,180,0.3465245999996114,['n'],0.35884710000027553,1.26,1683.0905967000003,,,,,553,18,Woman,Right,
,,,,,,,,,,,,,,,,,553,18,Woman,Right,3,15,0.4,2,180,0,0,0.5994803999997202,['y'],0.6066040999999132,1.8559999999999999,1686.6775899000004,,,,,553,18,Woman,Right,
,,,,,,,,,,,,,,,,,553,18,Woman,Right,3,3,1,2,180,0,0,0.41828050000003714,['y'],0.42276289999972505,2.0,1689.7974217,,,,,553,18,Woman,Right,
,,,,,,,,,,,,,,,,,553,18,Woman,Right,3,0,1,1,0,-,0,0.6886342999996486,['n'],0.40707609999981287,1.948,1693.6346524,,,,,553,18,Woman,Right,
,,,,,,,,,,,,,,,,,553,18,Woman,Right,3,58,0.15,1,180,-,180,0.6846023000002788,['n'],0.35041329999967274,1.276,1697.0548241000001,,,,,553,18,Woman,Right,
,,,,,,,,,,,,,,,,,553,18,Woman,Right,3,72,0.15,1,0,-,0,1.2676676000000953,['n'],0.43067999999993845,1.196,1701.0595967000004,,,,,553,18,Woman,Right,
,,,,,,,,,,,,,,,,,553,18,Woman,Right,3,60,0.15,1,0,-,0,0.23134970000000976,['n'],0.4387990999998692,1.714,1704.4785694000002,,,,,553,18,Woman,Right,
,,,,,,,,,,,,,,,,,553,18,Woman,Right,3,50,0.15,1,180,-,180,0.7847418999999718,['n'],0.6343733999997312,1.138,1708.2490455000002,,,,,553,18,Woman,Right,
,,,,,,,,,,,,,,,,,553,18,Woman,Right,3,21,0.4,2,0,180,0,1.0411354000002575,['n'],1.0625812000002952,1.0,1714.1715992000004,,,,,553,18,Woman,Right,
,,,,,,,,,,,,,,,,,553,18,Woman,Right,3,26,0.4,1,180,-,180,0.9046362999997655,['n'],0.462789800000337,1.702,1719.1100283,,,,,553,18,Woman,Right,
,,,,,,,,,,,,,,,,,553,18,Woman,Right,3,36,0.4,1,0,-,0,0.5516798999997263,['n'],0.31875429999990956,1.31,1722.8301287000004,,,,,553,18,Woman,Right,
,,,,,,,,,,,,,,,,,553,18,Woman,Right,3,71,0.15,2,180,0,180,2.0088771000000634,['y'],0.5102966999997989,1.1,1728.1188582,,,,,553,18,Woman,Right,
,,,,,,,,,,,,,,,,,553,18,Woman,Right,3,35,0.4,2,180,0,0,0.4464435999998386,['y'],0.5276072000001477,1.814,1731.6556493000003,,,,,553,18,Woman,Right,
,,,,,,,,,,,,,,,,,553,18,Woman,Right,3,75,0.15,2,180,0,0,1.1224715999996988,['n'],0.3267667000000074,1.252,1736.0099518000002,,,,,553,18,Woman,Right,
,,,,,,,,,,,,,,,,,553,18,Woman,Right,3,16,0.4,1,0,-,0,1.078704900000048,['y'],1.3269203999998354,1.3519999999999999,1742.8172978000002,,,,,553,18,Woman,Right,
,,,,,,,,,,,,,,,,,553,18,Woman,Right,3,34,0.4,1,180,-,180,0.6057916000004298,['n'],0.2627556000002187,1.6320000000000001,1746.1200046000004,,,,,553,18,Woman,Right,
,,,,,,,,,,,,,,,,,553,18,Woman,Right,3,76,0.15,1,0,-,0,0.23457250000001295,['n'],0.29480439999997543,1.276,1749.3734851000004,,,,,553,18,Woman,Right,
,,,,,,,,,,,,,,,,,553,18,Woman,Right,3,29,0.4,2,0,180,180,0.5167719999999463,['y'],0.4228824000001623,1.71,1752.9269391000003,,,,,553,18,Woman,Right,
,,,,,,,,,,,,,,,,,553,18,Woman,Right,3,64,0.15,1,0,-,0,0.7871579000002384,['n'],0.7028468999997131,1.362,1757.1643278000001,,,,,553,18,Woman,Right,
,,,,,,,,,,,,,,,,,553,18,Woman,Right,3,45,0.15,2,0,180,0,0.3494735000003857,['n'],0.439510700000028,1.272,1760.7011819000004,,,,,553,18,Woman,Right,
,,,,,,,,,,,,,,,,,553,18,Woman,Right,3,25,0.4,2,0,180,180,0.6705719999999928,['y'],0.9989101999999548,1.824,1766.0899288,,,,,553,18,Woman,Right,
,,,,,,,,,,,,,,,,,553,18,Woman,Right,3,38,0.4,1,180,-,180,0.5953505000002224,['y'],1.1906141999998,1.824,1766.0899288,,,,,553,18,Woman,Right,
,,,,,,,,,,,,,,,,,553,18,Woman,Right,3,18,0.4,1,180,-,180,0.5629457000000002,['y'],0.46282109999992826,1.0,1775.1827557000001,,,,,553,18,Woman,Right,
,,,,,,,,,,,,,,,,,553,18,Woman,Right,3,61,0.15,2,0,180,180,1.1322347000000264,['y'],0.286664600000222,1.84,1779.0697561000002,,,,,553,18,Woman,Right,
,,,,,,,,,,,,,,,,,553,18,Woman,Right,3,32,0.4,1,0,-,0,0.547023800000261,['n'],0.4869549999998526,1.608,1784.5751730000002,,,,,553,18,Woman,Right,
,,,,,,,,,,,,,,,,,553,18,Woman,Right,3,13,0.4,2,0,180,180,0.7857472999999118,['y'],0.19064899999966656,1.754,1788.3621012000003,,,,,553,18,Woman,Right,
,,,,,,,,,,,,,,,,,553,18,Woman,Right,4,3,1,2,180,0,0,0.8686362999997073,['y'],0.5346589000000677,1.984,1828.2517581000002,82.5,85.0,72.5,,553,18,Woman,Right,
,,,,,,,,,,,,,,,,,553,18,Woman,Right,4,62,0.15,1,180,-,0,0.4728840999996464,['n'],0.4305586000000403,1.0,1831.5549267000001,,,,,553,18,Woman,Right,
,,,,,,,,,,,,,,,,,553,18,Woman,Right,4,9,0.4,2,0,180,180,0.2838419999998223,['y'],0.40648440000040864,1.8980000000000001,1834.7750142,,,,,553,18,Woman,Right,
,,,,,,,,,,,,,,,,,553,18,Woman,Right,4,42,0.4,1,180,-,180,1.1691811000000598,['n'],0.2865372999999636,1.362,1838.7120493000002,,,,,553,18,Woman,Right,
,,,,,,,,,,,,,,,,,553,18,Woman,Right,4,6,1,1,180,-,180,0.6109097000003203,['n'],0.3589099000000715,1.88,1842.1156581,,,,,553,18,Woman,Right,
,,,,,,,,,,,,,,,,,553,18,Woman,Right,4,77,0.15,2,0,180,180,0.6211840999999367,['y'],0.6788470000001325,1.714,1846.1034666,,,,,553,18,Woman,Right,
,,,,,,,,,,,,,,,,,553,18,Woman,Right,4,18,0.4,1,180,-,0,0.6049613000000136,['n'],0.4707730000000083,1.0,1849.5565135000002,,,,,553,18,Woman,Right,
,,,,,,,,,,,,,,,,,553,18,Woman,Right,4,48,0.15,1,0,-,0,0.48366570000007414,['n'],0.3832076000003326,1.422,1852.8095190000004,,,,,553,18,Woman,Right,
,,,,,,,,,,,,,,,,,553,18,Woman,Right,4,40,0.4,1,0,-,0,0.3732972999996491,['n'],0.5105592999998407,1.672,1856.1794133000003,,,,,553,18,Woman,Right,
,,,,,,,,,,,,,,,,,553,18,Woman,Right,4,21,0.4,2,0,180,180,0.32712979999996605,['y'],0.542782200000147,1.772,1859.7329935000002,,,,,553,18,Woman,Right,
,,,,,,,,,,,,,,,,,553,18,Woman,Right,4,55,0.15,2,180,0,0,0.2948676000000887,['n'],0.3833180000001448,1.3980000000000001,1862.6859202,,,,,553,18,Woman,Right,
,,,,,,,,,,,,,,,,,553,18,Woman,Right,4,41,0.4,2,0,180,180,0.3300193999998555,['y'],0.3829702000002726,1.728,1866.0392646,,,,,553,18,Woman,Right,
,,,,,,,,,,,,,,,,,553,18,Woman,Right,4,4,1,1,0,-,0,0.3131238000000849,['n'],0.36680840000008175,2.0,1869.0756310000002,,,,,553,18,Woman,Right,
,,,,,,,,,,,,,,,,,553,18,Woman,Right,4,16,0.4,1,0,-,0,0.6622554999999011,['n'],0.39874409999993077,2.0,1869.0756310000002,,,,,553,18,Woman,Right,
,,,,,,,,,,,,,,,,,553,18,Woman,Right,4,65,0.15,2,0,180,0,1.165270800000144,['n'],0.4707840999999462,1.26,1876.6665083000003,,,,,553,18,Woman,Right,
,,,,,,,,,,,,,,,,,553,18,Woman,Right,4,7,1,2,180,0,0,0.23996690000012677,['y'],0.5029653000001417,2.0,1880.1536029000004,,,,,553,18,Woman,Right,
,,,,,,,,,,,,,,,,,553,18,Woman,Right,4,31,0.4,2,180,0,0,0.20802649999995992,['y'],0.5585842000000412,2.0,1883.2732839,,,,,553,18,Woman,Right,
,,,,,,,,,,,,,,,,,553,18,Woman,Right,4,29,0.4,2,0,180,180,0.5449506000004476,['y'],0.48714319999999134,2.0,1886.7933608000003,,,,,553,18,Woman,Right,
,,,,,,,,,,,,,,,,,553,18,Woman,Right,4,75,0.15,2,180,0,180,0.977813999999853,['n'],0.2867578999998841,1.304,1890.5812628000003,,,,,553,18,Woman,Right,
,,,,,,,,,,,,,,,,,553,18,Woman,Right,4,39,0.4,2,180,0,0,0.4290009999999711,['y'],0.46276269999998476,2.0,1893.7668419000001,,,,,553,18,Woman,Right,
,,,,,,,,,,,,,,,,,553,18,Woman,Right,4,70,0.15,1,180,-,0,0.9795223999999507,['n'],0.5107676999996329,1.054,1898.1210419000004,,,,,553,18,Woman,Right,
,,,,,,,,,,,,,,,,,553,18,Woman,Right,4,49,0.15,2,0,180,180,0.6027862999999343,['y'],0.718666100000064,1.67,1901.8581960000001,,,,,553,18,Woman,Right,
,,,,,,,,,,,,,,,,,553,18,Woman,Right,4,71,0.15,2,180,0,0,0.918891799999983,['y'],0.7268275999999787,1.3820000000000001,1906.0459411000002,,,,,553,18,Woman,Right,
,,,,,,,,,,,,,,,,,553,18,Woman,Right,4,23,0.4,2,180,0,0,0.2369404000000941,['y'],0.438886100000218,1.666,1909.0820503,,,,,553,18,Woman,Right,
,,,,,,,,,,,,,,,,,553,18,Woman,Right,4,47,0.15,2,180,0,0,0.7841241999999511,['n'],0.4070128999996996,1.3780000000000001,1912.5691528000002,,,,,553,18,Woman,Right,
,,,,,,,,,,,,,,,,,553,18,Woman,Right,4,17,0.4,2,0,180,180,0.5046892999998818,['y'],0.4463624999998501,1.6360000000000001,1916.2225938000001,,,,,553,18,Woman,Right,
,,,,,,,,,,,,,,,,,553,18,Woman,Right,4,59,0.15,2,180,0,0,0.4133357000000615,['y'],0.40672280000035244,1.6640000000000001,1919.5591966000002,,,,,553,18,Woman,Right,
,,,,,,,,,,,,,,,,,553,18,Woman,Right,4,19,0.4,2,180,0,0,0.2772944000003008,['y'],0.23841089999996257,1.714,1922.9625866000001,,,,,553,18,Woman,Right,
,,,,,,,,,,,,,,,,,553,18,Woman,Right,4,27,0.4,2,180,0,180,2.760589600000003,['n'],0.4708872999999585,1.442,1929.9528338,,,,,553,18,Woman,Right,
,,,,,,,,,,,,,,,,,553,18,Woman,Right,4,64,0.15,1,0,-,180,1.1544917000001078,['n'],0.15852210000002742,1.442,1929.9528338,,,,,553,18,Woman,Right,
,,,,,,,,,,,,,,,,,553,18,Woman,Right,4,34,0.4,1,180,-,180,0.3185083999997005,['n'],0.7591511000000537,1.69,1937.376893,,,,,553,18,Woman,Right,
,,,,,,,,,,,,,,,,,553,18,Woman,Right,4,1,1,2,0,180,180,0.546291999999994,['y'],0.43855489999987185,1.968,1940.8636060000003,,,,,553,18,Woman,Right,
,,,,,,,,,,,,,,,,,553,18,Woman,Right,4,53,0.15,2,0,180,0,0.8833895000002485,['n'],0.27111269999977594,1.3479999999999999,1944.3840790000004,,,,,553,18,Woman,Right,
,,,,,,,,,,,,,,,,,553,18,Woman,Right,4,73,0.15,2,0,180,0,1.4016993000000184,['n'],0.5262493000000177,1.076,1948.8382733000003,,,,,553,18,Woman,Right,
,,,,,,,,,,,,,,,,,553,18,Woman,Right,4,68,0.15,1,0,-,0,0.5612340000002405,['n'],0.36677949999966586,1.0,1952.2417956000004,,,,,553,18,Woman,Right,
,,,,,,,,,,,,,,,,,553,18,Woman,Right,4,51,0.15,2,180,0,0,0.3054025000001275,['y'],1.030883299999914,1.0,1952.2417956000004,,,,,553,18,Woman,Right,
,,,,,,,,,,,,,,,,,553,18,Woman,Right,4,24,0.4,1,0,-,0,0.6216613999999936,['n'],0.3350322999999662,1.796,1959.5656008,,,,,553,18,Woman,Right,
,,,,,,,,,,,,,,,,,553,18,Woman,Right,4,44,0.15,1,0,-,180,0.8623412000001736,['y'],0.5025700999999572,1.288,1963.4202420000001,,,,,553,18,Woman,Right,
,,,,,,,,,,,,,,,,,553,18,Woman,Right,4,43,0.4,2,180,0,0,0.44822819999990315,['y'],0.6947943999998643,1.242,1966.9230981,,,,,553,18,Woman,Right,
,,,,,,,,,,,,,,,,,553,18,Woman,Right,4,8,0.4,1,0,-,0,0.41552350000029037,['n'],0.3348263000002589,1.178,1970.1930429000004,,,,,553,18,Woman,Right,
,,,,,,,,,,,,,,,,,553,18,Woman,Right,4,76,0.15,1,0,-,180,1.7856062000000748,['n'],0.15787420000015118,1.178,1970.1930429000004,,,,,553,18,Woman,Right,
,,,,,,,,,,,,,,,,,553,18,Woman,Right,4,22,0.4,1,180,-,180,0.6236775000002126,['n'],0.27854560000014317,1.246,1978.4676783,,,,,553,18,Woman,Right,
,,,,,,,,,,,,,,,,,553,18,Woman,Right,4,69,0.15,2,0,180,0,0.8623186999998325,['y'],0.47877410000000964,1.0,1982.4383993000001,,,,,553,18,Woman,Right,
,,,,,,,,,,,,,,,,,553,18,Woman,Right,4,30,0.4,1,180,-,180,0.6119746999997915,['n'],0.4702508999998827,1.12,1986.2923861000004,,,,,553,18,Woman,Right,
,,,,,,,,,,,,,,,,,553,18,Woman,Right,4,12,0.4,1,0,-,0,0.4061194000000796,['n'],0.3908040000001165,1.12,1986.2923861000004,,,,,553,18,Woman,Right,
,,,,,,,,,,,,,,,,,553,18,Woman,Right,4,52,0.15,1,0,-,0,0.583161100000325,['n'],1.022950000000037,1.222,1993.4326117,,,,,553,18,Woman,Right,
,,,,,,,,,,,,,,,,,553,18,Woman,Right,4,36,0.4,1,0,-,0,0.5345742999998038,['n'],0.4107678999998825,1.822,1997.1032361000002,,,,,553,18,Woman,Right,
,,,,,,,,,,,,,,,,,553,18,Woman,Right,4,60,0.15,1,0,-,0,0.4215270999998211,['n'],0.39023290000022826,1.822,1997.1032361000002,,,,,553,18,Woman,Right,
,,,,,,,,,,,,,,,,,553,18,Woman,Right,4,50,0.15,1,180,-,0,0.29031320000012784,['n'],0.39878019999969183,1.304,2003.2757623000002,,,,,553,18,Woman,Right,
,,,,,,,,,,,,,,,,,553,18,Woman,Right,4,11,0.4,2,180,0,0,0.2698488000000907,['y'],0.414931599999818,2.0,2006.3789963000004,,,,,553,18,Woman,Right,
,,,,,,,,,,,,,,,,,553,18,Woman,Right,4,45,0.15,2,0,180,180,1.5521416999999929,['n'],0.6712916999999834,1.254,2011.4174623000004,,,,,553,18,Woman,Right,
,,,,,,,,,,,,,,,,,553,18,Woman,Right,4,10,0.4,1,180,-,0,1.4622284999995827,['n'],0.3746894999999313,1.0,2016.0384047000002,,,,,553,18,Woman,Right,
,,,,,,,,,,,,,,,,,553,18,Woman,Right,4,32,0.4,1,0,-,0,0.357191800000237,['n'],0.5671692000000803,1.0,2016.0384047000002,,,,,553,18,Woman,Right,
,,,,,,,,,,,,,,,,,553,18,Woman,Right,4,67,0.15,2,180,0,0,0.5889554000000317,['y'],0.34247430000004897,1.35,2022.6624795000002,,,,,553,18,Woman,Right,
,,,,,,,,,,,,,,,,,553,18,Woman,Right,4,63,0.15,2,180,0,0,0.36252239999976155,['n'],0.694830599999932,1.35,2022.6624795000002,,,,,553,18,Woman,Right,
,,,,,,,,,,,,,,,,,553,18,Woman,Right,4,26,0.4,1,180,-,180,0.7944966000000022,['n'],0.41480300000011994,1.0,2030.8866336,,,,,553,18,Woman,Right,
,,,,,,,,,,,,,,,,,553,18,Woman,Right,4,79,0.15,2,180,0,0,0.3504955999997037,['y'],0.47601959999974497,1.334,2034.3568409000004,,,,,553,18,Woman,Right,
,,,,,,,,,,,,,,,,,553,18,Woman,Right,4,46,0.15,1,180,-,180,1.1660749000002397,['n'],0.5586190999997598,1.074,2038.6108706,,,,,553,18,Woman,Right,
,,,,,,,,,,,,,,,,,553,18,Woman,Right,4,78,0.15,1,180,-,180,0.8780710999999428,['n'],1.1827339000001302,1.074,2038.6108706,,,,,553,18,Woman,Right,
,,,,,,,,,,,,,,,,,553,18,Woman,Right,4,56,0.15,1,0,-,0,0.3619018999997934,['n'],0.43087649999961286,1.5,2045.6937380999998,,,,,553,18,Woman,Right,
,,,,,,,,,,,,,,,,,553,18,Woman,Right,4,2,1,1,180,-,180,0.4462038000001485,['n'],1.031014000000141,1.5,2049.5982201000006,,,,,553,18,Woman,Right,
,,,,,,,,,,,,,,,,,553,18,Woman,Right,4,28,0.4,1,0,-,0,0.3341160999998465,['n'],0.5429385999996157,2.0,2053.9429668000002,,,,,553,18,Woman,Right,
,,,,,,,,,,,,,,,,,553,18,Woman,Right,4,74,0.15,1,180,-,180,0.6474153999997725,['n'],0.49478890000045794,1.6600000000000001,2057.6797712,,,,,553,18,Woman,Right,
,,,,,,,,,,,,,,,,,553,18,Woman,Right,4,0,1,1,0,-,0,0.5940557000003537,['n'],0.39861389999987296,2.0,2061.2166808,,,,,553,18,Woman,Right,
,,,,,,,,,,,,,,,,,553,18,Woman,Right,4,54,0.15,1,180,-,180,0.6100663999995959,['n'],0.3664063999995051,1.0,2065.0037972,,,,,553,18,Woman,Right,
,,,,,,,,,,,,,,,,,553,18,Woman,Right,4,61,0.15,2,0,180,0,0.3434717999998611,['n'],0.5105118000001312,1.294,2068.2569600000006,,,,,553,18,Woman,Right,
,,,,,,,,,,,,,,,,,553,18,Woman,Right,4,58,0.15,1,180,-,0,0.5524758000001384,['n'],0.2868476000003284,1.27,2071.4437463000004,,,,,553,18,Woman,Right,
,,,,,,,,,,,,,,,,,553,18,Woman,Right,4,15,0.4,2,180,0,0,0.4164234999998371,['y'],0.35843150000073365,1.692,2075.1471487999997,,,,,553,18,Woman,Right,
,,,,,,,,,,,,,,,,,553,18,Woman,Right,4,66,0.15,1,180,-,0,0.568444499999714,['n'],0.3188324000002467,1.282,2078.9176431000005,,,,,553,18,Woman,Right,
,,,,,,,,,,,,,,,,,553,18,Woman,Right,4,38,0.4,1,180,-,180,0.254451899999367,['n'],0.36658840000018245,1.72,2082.2541858000004,,,,,553,18,Woman,Right,
,,,,,,,,,,,,,,,,,553,18,Woman,Right,4,33,0.4,2,0,180,180,0.7815883000002941,['y'],0.31042150000030233,1.576,2086.8922337000004,,,,,553,18,Woman,Right,
,,,,,,,,,,,,,,,,,553,18,Woman,Right,4,35,0.4,2,180,0,0,0.45181529999990744,['y'],0.9830630999995265,1.576,2086.8922337000004,,,,,553,18,Woman,Right,
,,,,,,,,,,,,,,,,,553,18,Woman,Right,4,20,0.4,1,0,-,0,0.5587909999994736,['n'],0.8626628000001801,1.32,2097.0691564,,,,,553,18,Woman,Right,
,,,,,,,,,,,,,,,,,553,18,Woman,Right,4,72,0.15,1,0,-,0,0.4251337000005151,['n'],0.83881780000047,1.318,2100.8393975999998,,,,,553,18,Woman,Right,
,,,,,,,,,,,,,,,,,553,18,Woman,Right,4,13,0.4,2,0,180,180,0.9406110999998418,['y'],0.3822627999998076,1.728,2104.6767753000004,,,,,553,18,Woman,Right,
,,,,,,,,,,,,,,,,,553,18,Woman,Right,4,14,0.4,1,180,-,180,0.631305899999461,['n'],0.49454509999941365,1.26,2108.3302104000004,,,,,553,18,Woman,Right,
,,,,,,,,,,,,,,,,,553,18,Woman,Right,4,5,1,2,0,180,180,0.6144454000004771,['y'],1.1108087000002342,2.0,2113.0181779000004,,,,,553,18,Woman,Right,
,,,,,,,,,,,,,,,,,553,18,Woman,Right,4,37,0.4,2,0,180,180,0.6604525000002468,['y'],0.5828226000003269,1.676,2117.1223166,,,,,553,18,Woman,Right,
,,,,,,,,,,,,,,,,,553,18,Woman,Right,4,57,0.15,2,0,180,0,0.8315869999996721,['n'],0.39847939999981463,1.238,2120.9928558,,,,,553,18,Woman,Right,
,,,,,,,,,,,,,,,,,553,18,Woman,Right,4,25,0.4,2,0,180,180,0.5585679000005257,['y'],0.3907798999998704,1.324,2124.7299235,,,,,553,18,Woman,Right,
,,,,,,,,,,,,,,,,,553,18,Woman,Right,5,5,1,2,0,180,180,0.7470034999996642,['y'],0.5191027000000759,2.0,2168.4067171000006,77.5,97.5,72.5,,553,18,Woman,Right,
,,,,,,,,,,,,,,,,,553,18,Woman,Right,5,27,0.4,2,180,0,0,0.4847012000000177,['y'],0.6388881000002584,2.0,2172.7776589000005,,,,,553,18,Woman,Right,
,,,,,,,,,,,,,,,,,553,18,Woman,Right,5,68,0.15,1,0,-,0,0.5108984999997119,['n'],0.39839740000024904,1.1400000000000001,2176.6814923,,,,,553,18,Woman,Right,
,,,,,,,,,,,,,,,,,553,18,Woman,Right,5,70,0.15,1,180,-,180,0.9306741000000329,['n'],0.48657679999996617,1.3,2180.9691849,,,,,553,18,Woman,Right,
,,,,,,,,,,,,,,,,,553,18,Woman,Right,5,30,0.4,1,180,-,180,1.2970240000004196,['n'],0.4627709999995204,1.3,2180.9691849,,,,,553,18,Woman,Right,
,,,,,,,,,,,,,,,,,553,18,Woman,Right,5,61,0.15,2,0,180,180,0.4548647000001438,['y'],0.2865961999996216,1.58,2189.4108273,,,,,553,18,Woman,Right,
,,,,,,,,,,,,,,,,,553,18,Woman,Right,5,73,0.15,2,0,180,0,0.37391679999927874,['n'],0.5593908999999258,1.58,2189.4108273,,,,,553,18,Woman,Right,
,,,,,,,,,,,,,,,,,553,18,Woman,Right,5,10,0.4,1,180,-,180,1.49130359999981,['n'],0.1587853000000905,1.5,2196.5333983,,,,,553,18,Woman,Right,
,,,,,,,,,,,,,,,,,553,18,Woman,Right,5,44,0.15,1,0,-,0,0.5328019999997196,['n'],0.3987716999999975,1.5,2200.4534679,,,,,553,18,Woman,Right,
,,,,,,,,,,,,,,,,,553,18,Woman,Right,5,17,0.4,2,0,180,180,0.2801872000000003,['y'],0.44640740000068035,1.5,2203.9014779,,,,,553,18,Woman,Right,
,,,,,,,,,,,,,,,,,553,18,Woman,Right,5,2,1,1,180,-,180,0.6165971999998874,['n'],0.3268337999998039,2.0,2207.8957841,,,,,553,18,Woman,Right,
,,,,,,,,,,,,,,,,,553,18,Woman,Right,5,59,0.15,2,180,0,180,1.3058854999999312,['n'],0.7189545999999609,2.0,2207.8957841,,,,,553,18,Woman,Right,
,,,,,,,,,,,,,,,,,553,18,Woman,Right,5,48,0.15,1,0,-,0,0.8710735000004206,['n'],0.48691599999983737,1.0,2216.0373558,,,,,553,18,Woman,Right,
,,,,,,,,,,,,,,,,,553,18,Woman,Right,5,6,1,1,180,-,180,0.4021339999999327,['n'],0.7585939999999027,2.0,2219.7743823,,,,,553,18,Woman,Right,
,,,,,,,,,,,,,,,,,553,18,Woman,Right,5,23,0.4,2,180,0,0,0.4153169999999591,['y'],0.47867589999987104,2.0,2223.2611783,,,,,553,18,Woman,Right,
,,,,,,,,,,,,,,,,,553,18,Woman,Right,5,42,0.4,1,180,-,180,0.40517350000027363,['n'],0.3827609999998458,1.3,2226.7481718,,,,,553,18,Woman,Right,
,,,,,,,,,,,,,,,,,553,18,Woman,Right,5,11,0.4,2,180,0,0,0.5611595999998826,['y'],0.3991563999998107,1.63,2230.718823,,,,,553,18,Woman,Right,
,,,,,,,,,,,,,,,,,553,18,Woman,Right,5,66,0.15,1,180,-,180,0.5115169999999125,['n'],0.2949382000006153,1.162,2234.3557406,,,,,553,18,Woman,Right,
,,,,,,,,,,,,,,,,,553,18,Woman,Right,5,28,0.4,1,0,-,0,0.5428848000001381,['n'],0.3105531000001065,1.314,2237.9591381,,,,,553,18,Woman,Right,
,,,,,,,,,,,,,,,,,553,18,Woman,Right,5,71,0.15,2,180,0,0,1.171073499999693,['y'],0.118564399999741,1.0,2243.3646129,,,,,553,18,Woman,Right,
,,,,,,,,,,,,,,,,,553,18,Woman,Right,5,36,0.4,1,0,-,0,0.5982767000004969,['n'],0.14274060000025202,1.274,2246.5344245000006,,,,,553,18,Woman,Right,
,,,,,,,,,,,,,,,,,553,18,Woman,Right,5,60,0.15,1,0,-,180,2.5029443000003084,['n'],0.6191308000006757,1.15,2252.3902504,,,,,553,18,Woman,Right,
,,,,,,,,,,,,,,,,,553,18,Woman,Right,5,12,0.4,1,0,-,0,0.35656879999987723,['n'],0.8868202000003294,1.138,2256.2606645000005,,,,,553,18,Woman,Right,
,,,,,,,,,,,,,,,,,553,18,Woman,Right,5,22,0.4,1,180,-,180,0.24616669999977603,['n'],0.6547528000000966,1.1,2259.7807651000003,,,,,553,18,Woman,Right,
,,,,,,,,,,,,,,,,,553,18,Woman,Right,5,29,0.4,2,0,180,180,0.26675579999937327,['y'],0.6869435999997222,2.0,2263.7180711,,,,,553,18,Woman,Right,
,,,,,,,,,,,,,,,,,553,18,Woman,Right,5,51,0.15,2,180,0,0,0.8692664999998669,['n'],0.27106240000011894,1.1280000000000001,2267.4552412000003,,,,,553,18,Woman,Right,
,,,,,,,,,,,,,,,,,553,18,Woman,Right,5,76,0.15,1,0,-,0,0.401346999999987,['n'],0.6868896999994831,2.0,2270.8918774000003,,,,,553,18,Woman,Right,
,,,,,,,,,,,,,,,,,553,18,Woman,Right,5,38,0.4,1,180,-,180,1.0009791000002224,['n'],0.5945182000004934,1.0,2275.7800529000006,,,,,553,18,Woman,Right,
,,,,,,,,,,,,,,,,,553,18,Woman,Right,5,54,0.15,1,180,-,180,2.4401888000002145,['n'],0.7987285999997766,1.214,2282.670215,,,,,553,18,Woman,Right,
,,,,,,,,,,,,,,,,,553,18,Woman,Right,5,40,0.4,1,0,-,0,0.5171651000000566,['n'],0.551152799999727,1.214,2282.670215,,,,,553,18,Woman,Right,
,,,,,,,,,,,,,,,,,553,18,Woman,Right,5,13,0.4,2,0,180,180,0.34468530000049213,['y'],0.4228972999999314,1.6640000000000001,2289.1433609000005,,,,,553,18,Woman,Right,
,,,,,,,,,,,,,,,,,553,18,Woman,Right,5,63,0.15,2,180,0,0,2.503797499999564,['n'],0.2790517000003092,1.424,2297.3848779,,,,,553,18,Woman,Right,
,,,,,,,,,,,,,,,,,553,18,Woman,Right,5,14,0.4,1,180,-,180,1.3438038999993296,['n'],0.5747815999993691,1.0979999999999999,2301.8559910000004,,,,,553,18,Woman,Right,
,,,,,,,,,,,,,,,,,553,18,Woman,Right,5,39,0.4,2,180,0,0,0.4330450000006749,['y'],0.49433589999989636,1.63,2305.5097549,,,,,553,18,Woman,Right,
,,,,,,,,,,,,,,,,,553,18,Woman,Right,5,43,0.4,2,180,0,0,0.36135360000025685,['y'],0.4951258000000962,1.63,2305.5097549,,,,,553,18,Woman,Right,
,,,,,,,,,,,,,,,,,553,18,Woman,Right,5,49,0.15,2,0,180,180,0.6381228999998712,['y'],0.38268280000011146,1.756,2312.5332385,,,,,553,18,Woman,Right,
,,,,,,,,,,,,,,,,,553,18,Woman,Right,5,31,0.4,2,180,0,0,0.3859187000007296,['y'],0.5431504999996832,1.754,2316.0869473000002,,,,,553,18,Woman,Right,
,,,,,,,,,,,,,,,,,553,18,Woman,Right,5,53,0.15,2,0,180,180,1.551664499999788,['y'],0.5347518999997192,1.0,2320.9249643000003,,,,,553,18,Woman,Right,
,,,,,,,,,,,,,,,,,553,18,Woman,Right,5,16,0.4,1,0,-,0,0.41379219999998895,['n'],0.3185622000000876,1.0,2320.9249643000003,,,,,553,18,Woman,Right,
,,,,,,,,,,,,,,,,,553,18,Woman,Right,5,52,0.15,1,0,-,180,0.91624850000062,['n'],0.2944532999999865,1.254,2327.6650656,,,,,553,18,Woman,Right,
,,,,,,,,,,,,,,,,,553,18,Woman,Right,5,15,0.4,2,180,0,0,0.41725419999966107,['y'],0.35040380000009463,2.0,2330.9515380000003,,,,,553,18,Woman,Right,
,,,,,,,,,,,,,,,,,553,18,Woman,Right,5,25,0.4,2,0,180,180,0.3004448000001503,['y'],0.2933924000008119,2.0,2333.9546437,,,,,553,18,Woman,Right,
,,,,,,,,,,,,,,,,,553,18,Woman,Right,5,7,1,2,180,0,0,0.44721490000029007,['y'],0.35077409999939846,2.0,2337.1920983,,,,,553,18,Woman,Right,
,,,,,,,,,,,,,,,,,553,18,Woman,Right,5,26,0.4,1,180,-,180,0.5459956999993665,['n'],0.31005090000053315,2.0,2337.1920983,,,,,553,18,Woman,Right,
,,,,,,,,,,,,,,,,,553,18,Woman,Right,5,18,0.4,1,180,-,180,2.1328131000000212,['n'],0.6787974000008035,1.5,2344.9414247000004,,,,,553,18,Woman,Right,
,,,,,,,,,,,,,,,,,553,18,Woman,Right,5,20,0.4,1,0,-,0,0.43745960000069317,['n'],0.3427100999997492,1.712,2350.4545052000003,,,,,553,18,Woman,Right,
,,,,,,,,,,,,,,,,,553,18,Woman,Right,5,24,0.4,1,0,-,0,0.4197972000001755,['n'],0.23872080000001006,1.3980000000000001,2353.3404646,,,,,553,18,Woman,Right,
,,,,,,,,,,,,,,,,,553,18,Woman,Right,5,75,0.15,2,180,0,0,0.40462420000039856,['y'],0.4232843999998295,1.716,2356.6440235,,,,,553,18,Woman,Right,
,,,,,,,,,,,,,,,,,553,18,Woman,Right,5,58,0.15,1,180,-,0,0.39949539999997796,['y'],1.1586867999994865,1.276,2361.0314782000005,,,,,553,18,Woman,Right,
,,,,,,,,,,,,,,,,,553,18,Woman,Right,5,78,0.15,1,180,-,0,2.040361999999732,['n'],0.7426023999996687,1.276,2361.0314782000005,,,,,553,18,Woman,Right,
,,,,,,,,,,,,,,,,,553,18,Woman,Right,5,45,0.15,2,0,180,0,0.37697790000038367,['y'],0.5029108000007909,1.5,2368.8853514,,,,,553,18,Woman,Right,
,,,,,,,,,,,,,,,,,553,18,Woman,Right,5,62,0.15,1,180,-,180,0.6002590999996755,['n'],0.5505793000002086,1.0,2374.3783277,,,,,553,18,Woman,Right,
,,,,,,,,,,,,,,,,,553,18,Woman,Right,5,1,1,2,0,180,180,0.5104584000000614,['y'],0.3507873999997173,2.0,2377.5146098000005,,,,,553,18,Woman,Right,
,,,,,,,,,,,,,,,,,553,18,Woman,Right,5,56,0.15,1,0,-,180,1.5346954000006008,['n'],0.934775400000035,1.278,2382.4364467000005,,,,,553,18,Woman,Right,
,,,,,,,,,,,,,,,,,553,18,Woman,Right,5,35,0.4,2,180,0,0,0.13215020000006916,['y'],0.30346600000029866,2.0,2385.3558994000005,,,,,553,18,Woman,Right,
,,,,,,,,,,,,,,,,,553,18,Woman,Right,5,72,0.15,1,0,-,0,0.9742708000003404,['n'],0.4066749000003256,1.0,2389.8110249,,,,,553,18,Woman,Right,
,,,,,,,,,,,,,,,,,553,18,Woman,Right,5,64,0.15,1,0,-,0,0.4004476000000068,['n'],1.9568053000002692,1.192,2395.0654101,,,,,553,18,Woman,Right,
,,,,,,,,,,,,,,,,,553,18,Woman,Right,5,32,0.4,1,0,-,0,0.5745335999999952,['n'],0.3666538000006767,1.194,2398.7022764000003,,,,,553,18,Woman,Right,
,,,,,,,,,,,,,,,,,553,18,Woman,Right,5,0,1,1,0,-,0,0.581149199999345,['n'],0.47859319999952277,2.0,2402.1390843,,,,,553,18,Woman,Right,
,,,,,,,,,,,,,,,,,553,18,Woman,Right,5,33,0.4,2,0,180,180,0.4989339000003383,['y'],0.6785745999995925,2.0,2405.9762565,,,,,553,18,Woman,Right,
,,,,,,,,,,,,,,,,,553,18,Woman,Right,5,67,0.15,2,180,0,180,0.6811562000002596,['n'],0.4545942000004288,2.0,2405.9762565,,,,,553,18,Woman,Right,
,,,,,,,,,,,,,,,,,553,18,Woman,Right,5,34,0.4,1,180,-,180,0.37475459999950544,['n'],0.5196205999991435,1.17,2413.1334102,,,,,553,18,Woman,Right,
,,,,,,,,,,,,,,,,,553,18,Woman,Right,5,47,0.15,2,180,0,0,0.48508159999983036,['y'],0.534927599999719,1.808,2416.6202465000006,,,,,553,18,Woman,Right,
,,,,,,,,,,,,,,,,,553,18,Woman,Right,5,50,0.15,1,180,-,180,0.8304504999996425,['n'],0.3587429000008342,1.25,2420.4071830000003,,,,,553,18,Woman,Right,
,,,,,,,,,,,,,,,,,553,18,Woman,Right,5,41,0.4,2,0,180,180,0.5227596000004269,['y'],0.31873689999974886,2.0,2423.5270041000003,,,,,553,18,Woman,Right,
,,,,,,,,,,,,,,,,,553,18,Woman,Right,5,19,0.4,2,180,0,0,0.37812469999971654,['y'],0.9827324000007138,2.0,2427.2475941000002,,,,,553,18,Woman,Right,
,,,,,,,,,,,,,,,,,553,18,Woman,Right,5,21,0.4,2,0,180,180,0.4676024000000325,['y'],0.4036567000002833,2.0,2430.4007777000006,,,,,553,18,Woman,Right,
,,,,,,,,,,,,,,,,,553,18,Woman,Right,5,4,1,1,0,-,0,0.4554282000008243,['n'],0.3825265000004947,2.0,2433.7871895,,,,,553,18,Woman,Right,
,,,,,,,,,,,,,,,,,553,18,Woman,Right,5,79,0.15,2,180,0,0,0.6356230000001233,['n'],0.8382902999992439,1.178,2437.7412620000005,,,,,553,18,Woman,Right,
,,,,,,,,,,,,,,,,,553,18,Woman,Right,5,69,0.15,2,0,180,180,0.9580860999994911,['n'],0.4466277999999875,1.224,2441.7284086,,,,,553,18,Woman,Right,
,,,,,,,,,,,,,,,,,553,18,Woman,Right,5,77,0.15,2,0,180,180,0.6251234999999724,['y'],0.326580500000091,1.694,2445.0485564,,,,,553,18,Woman,Right,
,,,,,,,,,,,,,,,,,553,18,Woman,Right,5,3,1,2,180,0,0,0.3467411000001448,['y'],0.5110189999995782,2.0,2448.4517749000006,,,,,553,18,Woman,Right,
,,,,,,,,,,,,,,,,,553,18,Woman,Right,5,46,0.15,1,180,-,0,1.1965319000000818,['y'],0.4783603000005314,2.0,2448.4517749000006,,,,,553,18,Woman,Right,
,,,,,,,,,,,,,,,,,553,18,Woman,Right,5,37,0.4,2,0,180,180,0.4109951999998884,['y'],0.6067819999998392,1.5,2455.5091486,,,,,553,18,Woman,Right,
,,,,,,,,,,,,,,,,,553,18,Woman,Right,5,8,0.4,1,0,-,0,0.6235911999992823,['n'],0.3904134000003978,1.752,2460.0634148999998,,,,,553,18,Woman,Right,
,,,,,,,,,,,,,,,,,553,18,Woman,Right,5,9,0.4,2,0,180,180,0.338840500000515,['y'],0.6384416999999303,1.752,2460.0634148999998,,,,,553,18,Woman,Right,
,,,,,,,,,,,,,,,,,553,18,Woman,Right,5,55,0.15,2,180,0,0,0.7055602000000363,['n'],0.670945899999424,1.204,2467.7044341,,,,,553,18,Woman,Right,
,,,,,,,,,,,,,,,,,553,18,Woman,Right,5,65,0.15,2,0,180,0,0.3534621999997398,['y'],3.7261199000004126,1.204,2467.7044341,,,,,553,18,Woman,Right,
,,,,,,,,,,,,,,,,,553,18,Woman,Right,5,57,0.15,2,0,180,180,0.3587880999994013,['y'],0.6957812999999078,1.5,2477.918219,,,,,553,18,Woman,Right,
,,,,,,,,,,,,,,,,,553,18,Woman,Right,5,74,0.15,1,180,-,0,0.46894590000010794,['y'],0.3833682999993471,1.5,2481.2699123,,,,,553,18,Woman,Right,
,,,,,,,,,,,,,,,,,,,,,,,,,,,,,,,,,85.0,92.5,80.0,2203.1092236000004,,,,,
