p_block,p_section,p_coherence,p_direction1,p_direction2,p_direction_response,p_direction_RT,p_change_response,p_change_RT,p_confidence,p_full_correct,p_without5_correct,p_full_total,p_without5_total,p_full_avg,p_witout5_avg,p_total_time,sub,age,sex,handedness,loop,trial randomization,coherence,condition,direction1,direction2,direction_response,direction_RT,change_response,change_RT,change_confidence,change_confidence_RT,block_direction_avg,block_stable_avg,block_change_avg,total_time,sub,age,sex,handedness,
1,1,1.0,0,-,0,1.3991343000016059,-,-,-,,,,,,,,575,22,Woman,Right,,,,,,,,,,,,,,,,,575,22,Woman,Right,
1,1,1.0,0,-,0,0.7137739000027068,-,-,-,,,,,,,,575,22,Woman,Right,,,,,,,,,,,,,,,,,575,22,Woman,Right,
1,1,1.0,0,-,0,0.4503361000024597,-,-,-,,,,,,,,575,22,Woman,Right,,,,,,,,,,,,,,,,,575,22,Woman,Right,
1,1,1.0,0,-,0,0.2651986000055331,-,-,-,,,,,,,,575,22,Woman,Right,,,,,,,,,,,,,,,,,575,22,Woman,Right,
1,1,1.0,180,-,180,0.24160370000026887,-,-,-,,,,,,,,575,22,Woman,Right,,,,,,,,,,,,,,,,,575,22,Woman,Right,
1,1,1.0,0,-,0,0.017206099997565616,-,-,-,,,,,,,,575,22,Woman,Right,,,,,,,,,,,,,,,,,575,22,Woman,Right,
1,1,1.0,0,-,0,0.027643600005831104,-,-,-,,,,,,,,575,22,Woman,Right,,,,,,,,,,,,,,,,,575,22,Woman,Right,
1,1,1.0,0,-,0,0.06986150000011548,-,-,-,,,,,,,,575,22,Woman,Right,,,,,,,,,,,,,,,,,575,22,Woman,Right,
1,1,1.0,180,-,180,0.15764849999686703,-,-,-,,,,,,,,575,22,Woman,Right,,,,,,,,,,,,,,,,,575,22,Woman,Right,
1,1,1.0,0,-,0,0.09809300000051735,-,-,-,10,10,10,10,1.0,1.0,,575,22,Woman,Right,,,,,,,,,,,,,,,,,575,22,Woman,Right,
2,1,0.15,0,-,0,2.164949899997737,-,-,-,,,,,,,,575,22,Woman,Right,,,,,,,,,,,,,,,,,575,22,Woman,Right,
2,1,0.15,180,-,0,2.7857113999998546,-,-,-,,,,,,,,575,22,Woman,Right,,,,,,,,,,,,,,,,,575,22,Woman,Right,
2,1,0.15,0,-,180,1.0529206999999587,-,-,-,,,,,,,,575,22,Woman,Right,,,,,,,,,,,,,,,,,575,22,Woman,Right,
2,1,0.15,180,-,0,0.5172976999965613,-,-,-,,,,,,,,575,22,Woman,Right,,,,,,,,,,,,,,,,,575,22,Woman,Right,
2,1,0.15,180,-,180,0.5230318999965675,-,-,-,,,,,,,,575,22,Woman,Right,,,,,,,,,,,,,,,,,575,22,Woman,Right,
2,1,0.4,180,-,180,0.3688086999973166,-,-,-,,,,,,,,575,22,Woman,Right,,,,,,,,,,,,,,,,,575,22,Woman,Right,
2,1,0.4,0,-,0,0.1805411000023014,-,-,-,,,,,,,,575,22,Woman,Right,,,,,,,,,,,,,,,,,575,22,Woman,Right,
2,1,0.4,0,-,0,1.1124364999996033,-,-,-,,,,,,,,575,22,Woman,Right,,,,,,,,,,,,,,,,,575,22,Woman,Right,
2,1,0.15,0,-,0,0.3587684000012814,-,-,-,,,,,,,,575,22,Woman,Right,,,,,,,,,,,,,,,,,575,22,Woman,Right,
2,1,0.4,0,-,0,0.0591467999984161,-,-,-,7,4,10,4,0.7,1.0,,575,22,Woman,Right,,,,,,,,,,,,,,,,,575,22,Woman,Right,
3,2,1.0,180,0,180,4.050435600001947,['y'],8.512287499994272,2.0,,,,,,,,575,22,Woman,Right,,,,,,,,,,,,,,,,,575,22,Woman,Right,
3,2,1.0,180,0,0,5.841848600000958,['y'],3.2358695000002626,2.0,,,,,,,,575,22,Woman,Right,,,,,,,,,,,,,,,,,575,22,Woman,Right,
3,2,1.0,0,180,0,1.210766500000318,['y'],3.3422744999988936,2.0,,,,,,,,575,22,Woman,Right,,,,,,,,,,,,,,,,,575,22,Woman,Right,
3,2,1.0,180,0,180,1.0758284999974421,['y'],2.7621587999965413,2.0,,,,,,,,575,22,Woman,Right,,,,,,,,,,,,,,,,,575,22,Woman,Right,
3,2,1.0,180,0,180,0.9808158000014373,['y'],2.086844299999939,2.0,,,,,,,,575,22,Woman,Right,,,,,,,,,,,,,,,,,575,22,Woman,Right,
3,2,1.0,180,0,180,0.8237568999975338,['y'],2.2871184999967227,2.0,,,,,,,,575,22,Woman,Right,,,,,,,,,,,,,,,,,575,22,Woman,Right,
3,2,1.0,0,180,0,0.4312606000021333,['y'],2.2448480000020936,2.0,,,,,,,,575,22,Woman,Right,,,,,,,,,,,,,,,,,575,22,Woman,Right,
3,2,1.0,180,0,180,0.37236330000450835,['y'],1.234472199997981,2.0,,,,,,,,575,22,Woman,Right,,,,,,,,,,,,,,,,,575,22,Woman,Right,
3,2,1.0,180,0,180,0.5472035999991931,['y'],2.4177931000012904,2.0,,,,,,,,575,22,Woman,Right,,,,,,,,,,,,,,,,,575,22,Woman,Right,
3,2,1.0,0,180,0,0.4614021000015782,['y'],1.702663099997153,2.0,,,,,,,,575,22,Woman,Right,,,,,,,,,,,,,,,,,575,22,Woman,Right,
3,2,1.0,0,180,180,0.5417837999993935,['y'],2.193447499994363,2.0,,,,,,,,575,22,Woman,Right,,,,,,,,,,,,,,,,,575,22,Woman,Right,
3,2,1.0,0,180,0,0.08496520000335295,['y'],0.8181296999973711,2.0,,,,,,,,575,22,Woman,Right,,,,,,,,,,,,,,,,,575,22,Woman,Right,
3,2,1.0,0,180,180,0.38738089999969816,['y'],0.9238448000032804,2.0,,,,,,,,575,22,Woman,Right,,,,,,,,,,,,,,,,,575,22,Woman,Right,
3,2,1.0,0,180,180,0.01668010000139475,['y'],0.7490155999985291,2.0,,,,,,,,575,22,Woman,Right,,,,,,,,,,,,,,,,,575,22,Woman,Right,
3,2,1.0,0,180,180,0.9840659999972559,['y'],0.7188603000031435,2.0,,,,,,,,575,22,Woman,Right,,,,,,,,,,,,,,,,,575,22,Woman,Right,
3,2,1.0,0,180,0,0.22440899999492103,['y'],2.7884054999958607,2.0,,,,,,,,575,22,Woman,Right,,,,,,,,,,,,,,,,,575,22,Woman,Right,
3,2,1.0,0,180,180,0.2937381000010646,['y'],1.0148887999966973,2.0,,,,,,,,575,22,Woman,Right,,,,,,,,,,,,,,,,,575,22,Woman,Right,
3,2,1.0,0,180,0,0.6034574000004795,['y'],0.6147415000014007,2.0,,,,,,,,575,22,Woman,Right,,,,,,,,,,,,,,,,,575,22,Woman,Right,
3,2,1.0,180,0,180,1.0234044999961043,['y'],0.8720033999998122,2.0,,,,,,,,575,22,Woman,Right,,,,,,,,,,,,,,,,,575,22,Woman,Right,
3,2,1.0,0,180,0,0.08333619999757502,['y'],1.1600299999990966,2.0,,,,,,,,575,22,Woman,Right,,,,,,,,,,,,,,,,,575,22,Woman,Right,
3,2,1.0,0,180,180,0.48468470000079833,['y'],1.3130789999995613,2.0,,,,,,,,575,22,Woman,Right,,,,,,,,,,,,,,,,,575,22,Woman,Right,
3,2,1.0,180,0,0,0.42422220000298694,['y'],0.9505881000004592,2.0,,,,,,,,575,22,Woman,Right,,,,,,,,,,,,,,,,,575,22,Woman,Right,
3,2,1.0,180,0,0,0.38758429999870714,['y'],0.7540485999998054,2.0,,,,,,,,575,22,Woman,Right,,,,,,,,,,,,,,,,,575,22,Woman,Right,
3,2,1.0,0,180,180,0.4242196999985026,['y'],0.8767994000008912,2.0,,,,,,,,575,22,Woman,Right,,,,,,,,,,,,,,,,,575,22,Woman,Right,
3,2,1.0,180,0,0,0.3092149000003701,['y'],1.053754000000481,2.0,,,,,,,,575,22,Woman,Right,,,,,,,,,,,,,,,,,575,22,Woman,Right,
3,2,1.0,180,0,0,0.4040221000032034,['y'],0.9266248999992968,2.0,,,,,,,,575,22,Woman,Right,,,,,,,,,,,,,,,,,575,22,Woman,Right,
3,2,1.0,180,0,0,0.3070069000023068,['y'],0.408663100002741,2.0,,,,,,,,575,22,Woman,Right,,,,,,,,,,,,,,,,,575,22,Woman,Right,
3,2,1.0,0,180,180,0.3940041000023484,['y'],0.49996459999965737,2.0,,,,,,,,575,22,Woman,Right,,,,,,,,,,,,,,,,,575,22,Woman,Right,
3,2,1.0,0,180,180,0.553826499999559,['y'],1.0274805999943055,2.0,,,,,,,,575,22,Woman,Right,,,,,,,,,,,,,,,,,575,22,Woman,Right,
3,2,1.0,0,180,180,0.41790160000527976,['y'],0.840554800000973,2.0,10,10,10,10,1.0,1.0,,575,22,Woman,Right,,,,,,,,,,,,,,,,,575,22,Woman,Right,
4,2,0.15,180,0,180,2.2228429000024335,['n'],5.691687700003968,1.0,,,,,,,,575,22,Woman,Right,,,,,,,,,,,,,,,,,575,22,Woman,Right,
4,2,0.4,0,180,180,5.013642199999595,['y'],1.4645008000006783,1.832,,,,,,,,575,22,Woman,Right,,,,,,,,,,,,,,,,,575,22,Woman,Right,
4,2,0.4,0,180,180,1.4030189000040991,['n'],1.5568100000018603,1.646,,,,,,,,575,22,Woman,Right,,,,,,,,,,,,,,,,,575,22,Woman,Right,
4,2,0.15,0,180,180,0.9183571999965352,['y'],1.3769866000002366,2.0,,,,,,,,575,22,Woman,Right,,,,,,,,,,,,,,,,,575,22,Woman,Right,
4,2,0.15,180,0,180,0.47087359999568434,['n'],2.4997271000029286,1.316,,,,,,,,575,22,Woman,Right,,,,,,,,,,,,,,,,,575,22,Woman,Right,
4,2,0.4,0,180,180,0.8822216999978991,['n'],1.5330203999983496,1.3,,,,,,,,575,22,Woman,Right,,,,,,,,,,,,,,,,,575,22,Woman,Right,
4,2,0.15,180,0,180,0.5331867000058992,['y'],1.5014220000011846,1.464,,,,,,,,575,22,Woman,Right,,,,,,,,,,,,,,,,,575,22,Woman,Right,
4,2,0.15,180,0,180,0.41872460000013234,['y'],0.7092020999989472,1.478,,,,,,,,575,22,Woman,Right,,,,,,,,,,,,,,,,,575,22,Woman,Right,
4,2,0.4,0,180,0,0.6568431999985478,['y'],1.0827873000016552,1.54,,,,,,,,575,22,Woman,Right,,,,,,,,,,,,,,,,,575,22,Woman,Right,
4,2,0.4,0,180,0,0.8752894999997807,['y'],0.8362005999952089,1.552,,,,,,,,575,22,Woman,Right,,,,,,,,,,,,,,,,,575,22,Woman,Right,
4,2,0.15,180,0,180,0.3306233999974211,['y'],0.36803920000238577,1.6,,,,,,,,575,22,Woman,Right,,,,,,,,,,,,,,,,,575,22,Woman,Right,
4,2,0.4,0,180,180,0.41644999999698484,['y'],0.9123607000001357,1.626,,,,,,,,575,22,Woman,Right,,,,,,,,,,,,,,,,,575,22,Woman,Right,
4,2,0.4,180,0,180,0.32086010000057286,['y'],0.38937919999443693,1.654,,,,,,,,575,22,Woman,Right,,,,,,,,,,,,,,,,,575,22,Woman,Right,
4,2,0.4,180,0,0,0.9613940999988699,['y'],1.0683417999971425,1.6,,,,,,,,575,22,Woman,Right,,,,,,,,,,,,,,,,,575,22,Woman,Right,
4,2,0.4,0,180,180,0.4378784000000451,['y'],0.8026729000048363,1.634,,,,,,,,575,22,Woman,Right,,,,,,,,,,,,,,,,,575,22,Woman,Right,
4,2,0.15,0,180,180,0.22596100000373553,['y'],0.7508727000022191,1.6280000000000001,,,,,,,,575,22,Woman,Right,,,,,,,,,,,,,,,,,575,22,Woman,Right,
4,2,0.15,180,0,180,0.3533358999993652,['y'],0.8097000999987358,1.592,,,,,,,,575,22,Woman,Right,,,,,,,,,,,,,,,,,575,22,Woman,Right,
4,2,0.15,0,180,180,0.2182874999998603,['y'],0.7498991999964346,1.6059999999999999,,,,,,,,575,22,Woman,Right,,,,,,,,,,,,,,,,,575,22,Woman,Right,
4,2,0.4,0,180,180,0.09433619999617804,['y'],0.6936462000012398,1.608,,,,,,,,575,22,Woman,Right,,,,,,,,,,,,,,,,,575,22,Woman,Right,
4,2,0.15,180,0,180,0.06513580000319052,['y'],0.7851653000034275,1.616,6,4,10,5,0.6,0.8,,575,22,Woman,Right,,,,,,,,,,,,,,,,,575,22,Woman,Right,
5,3,0.4,0,-,180,1.215813300004811,['y'],2.03598939999938,1.366,,,,,,,,575,22,Woman,Right,,,,,,,,,,,,,,,,,575,22,Woman,Right,
5,3,0.4,180,0,0,1.053793199993379,['y'],0.7692666000002646,1.554,,,,,,,,575,22,Woman,Right,,,,,,,,,,,,,,,,,575,22,Woman,Right,
5,3,0.4,0,180,180,0.6929450999959954,['y'],0.4936613000027137,1.654,,,,,,,,575,22,Woman,Right,,,,,,,,,,,,,,,,,575,22,Woman,Right,
5,3,1.0,0,-,0,2.8623785999952815,['y'],0.4086329999990994,1.45,,,,,,,,575,22,Woman,Right,,,,,,,,,,,,,,,,,575,22,Woman,Right,
5,3,1.0,0,180,180,0.5753107000055024,['y'],0.33112590000382625,1.51,,,,,,,,575,22,Woman,Right,,,,,,,,,,,,,,,,,575,22,Woman,Right,
5,3,1.0,0,-,0,0.7884027999971295,['n'],0.8143454000019119,1.564,,,,,,,,575,22,Woman,Right,,,,,,,,,,,,,,,,,575,22,Woman,Right,
5,3,0.15,0,180,180,2.214749099999608,['n'],1.1497686999937287,1.456,,,,,,,,575,22,Woman,Right,,,,,,,,,,,,,,,,,575,22,Woman,Right,
5,3,0.4,0,180,180,0.5381854999941424,['y'],0.4597929000010481,1.552,,,,,,,,575,22,Woman,Right,,,,,,,,,,,,,,,,,575,22,Woman,Right,
5,3,0.15,180,0,180,0.4892296999969403,['y'],0.8608724000005168,1.54,,,,,,,,575,22,Woman,Right,,,,,,,,,,,,,,,,,575,22,Woman,Right,
5,3,1.0,180,0,0,0.7859867999941343,['y'],0.4640408999985084,1.566,8,7,10,8,0.8,0.875,,575,22,Woman,Right,,,,,,,,,,,,,,,,,575,22,Woman,Right,
,,,,,,,,,,,,,,,,3.9000005926936865e-06,575,22,Woman,Right,,,,,,,,,,,,,,,,,575,22,Woman,Right,
,,,,,,,,,,,,,,,,,575,22,Woman,Right,0,76,0.15,1,0,-,180,2.5376886000012746,['y'],2.951577499996347,1.604,558.2003016000017,,,,,575,22,Woman,Right,
,,,,,,,,,,,,,,,,,575,22,Woman,Right,0,39,0.4,2,180,0,0,1.352086299993971,['y'],4.143077699998685,1.5939999999999999,567.0673384000038,,,,,575,22,Woman,Right,
,,,,,,,,,,,,,,,,,575,22,Woman,Right,0,27,0.4,2,180,0,0,1.2179214999996475,['y'],2.2777323000045726,1.6099999999999999,573.616969200004,,,,,575,22,Woman,Right,
,,,,,,,,,,,,,,,,,575,22,Woman,Right,0,62,0.15,1,180,-,180,1.0678430999978445,['n'],1.3011514999961946,1.6019999999999999,579.1836631999977,,,,,575,22,Woman,Right,
,,,,,,,,,,,,,,,,,575,22,Woman,Right,0,51,0.15,2,180,0,0,1.7646217000001343,['y'],1.2357896999965305,1.718,585.3170247000016,,,,,575,22,Woman,Right,
,,,,,,,,,,,,,,,,,575,22,Woman,Right,0,35,0.4,2,180,0,0,1.5682164000027115,['y'],1.2278984999938984,1.732,591.1668931000022,,,,,575,22,Woman,Right,
,,,,,,,,,,,,,,,,,575,22,Woman,Right,0,20,0.4,1,0,-,0,1.9261438000030466,['y'],1.210317600001872,1.6480000000000001,597.2338929000034,,,,,575,22,Woman,Right,
,,,,,,,,,,,,,,,,,575,22,Woman,Right,0,59,0.15,2,180,0,180,1.116717899996729,['y'],1.266880500006664,1.616,602.7837789999976,,,,,575,22,Woman,Right,
,,,,,,,,,,,,,,,,,575,22,Woman,Right,0,11,0.4,2,180,0,180,0.5040134000009857,['y'],1.3535540000011679,1.704,607.8004470000014,,,,,575,22,Woman,Right,
,,,,,,,,,,,,,,,,,575,22,Woman,Right,0,61,0.15,2,0,180,0,1.3727129999970202,['y'],1.408835900001577,1.708,613.5340741999971,,,,,575,22,Woman,Right,
,,,,,,,,,,,,,,,,,575,22,Woman,Right,0,1,1,2,0,180,0,1.2179804000043077,['y'],1.2723578000004636,1.79,619.2003659000038,,,,,575,22,Woman,Right,
,,,,,,,,,,,,,,,,,575,22,Woman,Right,0,68,0.15,1,0,-,0,2.3206524000052013,['y'],0.9509859999961918,1.81,625.6837564000016,,,,,575,22,Woman,Right,
,,,,,,,,,,,,,,,,,575,22,Woman,Right,0,25,0.4,2,0,180,0,0.8785843000005116,['y'],0.6063340000036987,1.71,630.1340768000009,,,,,575,22,Woman,Right,
,,,,,,,,,,,,,,,,,575,22,Woman,Right,0,71,0.15,2,180,0,180,0.6604443000032916,['y'],0.7899963000018033,1.75,634.5171485000028,,,,,575,22,Woman,Right,
,,,,,,,,,,,,,,,,,575,22,Woman,Right,0,64,0.15,1,0,-,0,2.648093299998436,['y'],0.78149239999766,1.818,640.8837433000008,,,,,575,22,Woman,Right,
,,,,,,,,,,,,,,,,,575,22,Woman,Right,0,9,0.4,2,0,180,0,0.824582899993402,['y'],0.6281672999975854,1.758,645.433906600003,,,,,575,22,Woman,Right,
,,,,,,,,,,,,,,,,,575,22,Woman,Right,0,7,1,2,180,0,0,1.2481815999999526,['y'],0.7879709999979241,1.8599999999999999,650.5672785999996,,,,,575,22,Woman,Right,
,,,,,,,,,,,,,,,,,575,22,Woman,Right,0,8,0.4,1,0,-,180,0.9821232999966014,['y'],0.45936250000522705,1.806,655.3003871000037,,,,,575,22,Woman,Right,
,,,,,,,,,,,,,,,,,575,22,Woman,Right,0,21,0.4,2,0,180,0,1.0620560000024852,['y'],0.6028804999950808,1.82,660.217138400003,,,,,575,22,Woman,Right,
,,,,,,,,,,,,,,,,,575,22,Woman,Right,0,16,0.4,1,0,-,180,1.2046630999975605,['y'],1.4022097999986727,1.738,666.0175125000023,,,,,575,22,Woman,Right,
,,,,,,,,,,,,,,,,,575,22,Woman,Right,0,41,0.4,2,0,180,0,0.46831110000493936,['y'],0.7852696999980253,1.786,670.6171134000033,,,,,575,22,Woman,Right,
,,,,,,,,,,,,,,,,,575,22,Woman,Right,0,49,0.15,2,0,180,180,0.5345930000039516,['y'],0.5616277999943122,1.728,674.9017977999974,,,,,575,22,Woman,Right,
,,,,,,,,,,,,,,,,,575,22,Woman,Right,0,75,0.15,2,180,0,0,0.6803491000027861,['y'],0.6407646000006935,1.73,679.3337742000003,,,,,575,22,Woman,Right,
,,,,,,,,,,,,,,,,,575,22,Woman,Right,0,28,0.4,1,0,-,0,0.8189396000016131,['y'],0.8396649999995134,1.788,683.9841449000014,,,,,575,22,Woman,Right,
,,,,,,,,,,,,,,,,,575,22,Woman,Right,0,55,0.15,2,180,0,180,0.3665910999989137,['y'],0.7756537000022945,1.826,688.4338700000008,,,,,575,22,Woman,Right,
,,,,,,,,,,,,,,,,,575,22,Woman,Right,0,33,0.4,2,0,180,0,0.5651102999981958,['y'],0.6948511000009603,1.752,692.9671301999988,,,,,575,22,Woman,Right,
,,,,,,,,,,,,,,,,,575,22,Woman,Right,0,57,0.15,2,0,180,180,1.0265929000015603,['y'],0.7500456999987364,1.838,697.783832000001,,,,,575,22,Woman,Right,
,,,,,,,,,,,,,,,,,575,22,Woman,Right,0,69,0.15,2,0,180,0,1.172377000002598,['y'],0.9577680000002147,1.81,702.8674905000007,,,,,575,22,Woman,Right,
,,,,,,,,,,,,,,,,,575,22,Woman,Right,0,15,0.4,2,180,0,0,0.40638290000060806,['y'],0.6130807000008645,1.684,707.1338455000005,,,,,575,22,Woman,Right,
,,,,,,,,,,,,,,,,,575,22,Woman,Right,0,31,0.4,2,180,0,180,0.4205237999995006,['y'],0.7961368999967817,1.85,711.4339039999977,,,,,575,22,Woman,Right,
,,,,,,,,,,,,,,,,,575,22,Woman,Right,0,54,0.15,1,180,-,0,0.6511508000039612,['y'],0.7477280000020983,1.748,715.9005603000041,,,,,575,22,Woman,Right,
,,,,,,,,,,,,,,,,,575,22,Woman,Right,0,30,0.4,1,180,-,180,0.35979840000072727,['y'],1.2758679000035045,1.756,720.4005242999992,,,,,575,22,Woman,Right,
,,,,,,,,,,,,,,,,,575,22,Woman,Right,0,65,0.15,2,0,180,0,0.37222340000153054,['y'],0.6024696999957087,1.8639999999999999,724.9841117000033,,,,,575,22,Woman,Right,
,,,,,,,,,,,,,,,,,575,22,Woman,Right,0,79,0.15,2,180,0,180,1.0127906999987317,['y'],0.8743900999979815,1.756,729.9671910000034,,,,,575,22,Woman,Right,
,,,,,,,,,,,,,,,,,575,22,Woman,Right,0,26,0.4,1,180,-,180,0.34378779999678954,['n'],1.8574081000042497,1.824,735.4005593000038,,,,,575,22,Woman,Right,
,,,,,,,,,,,,,,,,,575,22,Woman,Right,0,14,0.4,1,180,-,180,0.8152419999969425,['n'],1.8249016999980086,1.806,741.6838771999974,,,,,575,22,Woman,Right,
,,,,,,,,,,,,,,,,,575,22,Woman,Right,0,63,0.15,2,180,0,180,1.1176715999972657,['n'],1.4877912999945693,1.896,747.8839594000019,,,,,575,22,Woman,Right,
,,,,,,,,,,,,,,,,,575,22,Woman,Right,0,13,0.4,2,0,180,180,0.6107557000068482,['y'],1.6953301999965333,1.846,753.5008343000009,,,,,575,22,Woman,Right,
,,,,,,,,,,,,,,,,,575,22,Woman,Right,0,19,0.4,2,180,0,0,1.5137411999967298,['y'],1.2068177000037394,2.0,759.6507330000022,,,,,575,22,Woman,Right,
,,,,,,,,,,,,,,,,,575,22,Woman,Right,0,78,0.15,1,180,-,0,1.6807866000017384,['y'],1.0457214999987627,1.962,765.7510679999978,,,,,575,22,Woman,Right,
,,,,,,,,,,,,,,,,,575,22,Woman,Right,0,4,1,1,0,-,0,0.7575416999970912,['y'],0.8853882999974303,1.948,770.317461300001,,,,,575,22,Woman,Right,
,,,,,,,,,,,,,,,,,575,22,Woman,Right,0,66,0.15,1,180,-,180,0.5351327000025776,['n'],2.1566248000017367,1.97,776.2339517,,,,,575,22,Woman,Right,
,,,,,,,,,,,,,,,,,575,22,Woman,Right,0,46,0.15,1,180,-,180,0.4627212999985204,['y'],1.5159662000005483,1.934,782.2014945999981,,,,,575,22,Woman,Right,
,,,,,,,,,,,,,,,,,575,22,Woman,Right,0,29,0.4,2,0,180,0,0.6831585000036284,['y'],0.9229229999982635,2.0,787.0839277999985,,,,,575,22,Woman,Right,
,,,,,,,,,,,,,,,,,575,22,Woman,Right,0,12,0.4,1,0,-,0,2.30250160000287,['y'],0.76985290000448,2.0,793.6173462000006,,,,,575,22,Woman,Right,
,,,,,,,,,,,,,,,,,575,22,Woman,Right,0,3,1,2,180,0,0,0.8615215000027092,['y'],0.8974356000035186,2.0,798.3673660999993,,,,,575,22,Woman,Right,
,,,,,,,,,,,,,,,,,575,22,Woman,Right,0,23,0.4,2,180,0,180,1.0318583000043873,['y'],0.6005652000021655,1.994,803.0673492999995,,,,,575,22,Woman,Right,
,,,,,,,,,,,,,,,,,575,22,Woman,Right,0,5,1,2,0,180,0,0.381460500000685,['y'],0.8725052000008873,1.928,807.2840116000007,,,,,575,22,Woman,Right,
,,,,,,,,,,,,,,,,,575,22,Woman,Right,0,36,0.4,1,0,-,180,0.5628703000038513,['n'],2.7195959000018775,1.942,813.7840036999987,,,,,575,22,Woman,Right,
,,,,,,,,,,,,,,,,,575,22,Woman,Right,0,22,0.4,1,180,-,0,1.4569570000021486,['n'],1.5106911999973818,2.0,820.4006883999973,,,,,575,22,Woman,Right,
,,,,,,,,,,,,,,,,,575,22,Woman,Right,0,77,0.15,2,0,180,180,0.5486818000063067,['n'],1.1583316999967792,2.0,825.217369500002,,,,,575,22,Woman,Right,
,,,,,,,,,,,,,,,,,575,22,Woman,Right,0,52,0.15,1,0,-,180,0.8835181000031298,['y'],1.2102631999950972,2.0,831.100729800004,,,,,575,22,Woman,Right,
,,,,,,,,,,,,,,,,,575,22,Woman,Right,0,73,0.15,2,0,180,0,1.4244551000010688,['y'],1.4289147999952547,1.93,837.3007562999992,,,,,575,22,Woman,Right,
,,,,,,,,,,,,,,,,,575,22,Woman,Right,0,0,1,1,0,-,0,1.29793939999945,['n'],2.644212700004573,1.93,844.4173953999998,,,,,575,22,Woman,Right,
,,,,,,,,,,,,,,,,,575,22,Woman,Right,0,50,0.15,1,180,-,180,1.7619421999988845,['y'],1.8349560999995447,1.954,851.1684858000008,,,,,575,22,Woman,Right,
,,,,,,,,,,,,,,,,,575,22,Woman,Right,0,70,0.15,1,180,-,180,0.6626900999981444,['y'],1.0177275000023656,1.858,855.801555099999,,,,,575,22,Woman,Right,
,,,,,,,,,,,,,,,,,575,22,Woman,Right,0,44,0.15,1,0,-,0,0.5911936999982572,['y'],1.1940844999990077,1.968,860.6175693999976,,,,,575,22,Woman,Right,
,,,,,,,,,,,,,,,,,575,22,Woman,Right,0,24,0.4,1,0,-,180,1.8864442999984021,['y'],0.8971229000017047,1.958,866.5174573999975,,,,,575,22,Woman,Right,
,,,,,,,,,,,,,,,,,575,22,Woman,Right,0,34,0.4,1,180,-,0,0.7564835000011954,['y'],1.0085046000021975,1.958,866.5174573999975,,,,,575,22,Woman,Right,
,,,,,,,,,,,,,,,,,575,22,Woman,Right,0,56,0.15,1,0,-,0,0.5432561999987229,['y'],1.7519937000033678,1.97,877.1341106000036,,,,,575,22,Woman,Right,
,,,,,,,,,,,,,,,,,575,22,Woman,Right,0,72,0.15,1,0,-,180,0.7218127000014647,['y'],0.9514300000009825,1.958,881.9679648000019,,,,,575,22,Woman,Right,
,,,,,,,,,,,,,,,,,575,22,Woman,Right,0,74,0.15,1,180,-,0,0.860628499998711,['n'],1.7103019999995013,1.944,887.7341307000024,,,,,575,22,Woman,Right,
,,,,,,,,,,,,,,,,,575,22,Woman,Right,0,32,0.4,1,0,-,0,0.8740677000023425,['y'],0.8213528999986011,1.938,894.6175595000022,,,,,575,22,Woman,Right,
,,,,,,,,,,,,,,,,,575,22,Woman,Right,0,2,1,1,180,-,180,0.5532050999972853,['y'],0.9889933000013116,1.988,899.3344072000036,,,,,575,22,Woman,Right,
,,,,,,,,,,,,,,,,,575,22,Woman,Right,0,67,0.15,2,180,0,0,0.6800423999957275,['n'],1.524257500001113,2.0,904.8343643999979,,,,,575,22,Woman,Right,
,,,,,,,,,,,,,,,,,575,22,Woman,Right,0,42,0.4,1,180,-,180,1.4960939000011422,['n'],2.9555613000047742,1.952,913.2341952999996,,,,,575,22,Woman,Right,
,,,,,,,,,,,,,,,,,575,22,Woman,Right,0,43,0.4,2,180,0,0,2.470630700001493,['y'],1.114848899997014,1.96,920.6176713000023,,,,,575,22,Woman,Right,
,,,,,,,,,,,,,,,,,575,22,Woman,Right,0,47,0.15,2,180,0,0,0.4411924999949406,['n'],1.3697642000042833,1.982,925.9507950999978,,,,,575,22,Woman,Right,
,,,,,,,,,,,,,,,,,575,22,Woman,Right,0,45,0.15,2,0,180,180,0.028181499998026993,['y'],0.6167568000018946,1.952,930.2342133999991,,,,,575,22,Woman,Right,
,,,,,,,,,,,,,,,,,575,22,Woman,Right,0,6,1,1,180,-,180,0.9584023999996134,['y'],0.9365572999959113,2.0,934.9346282999977,,,,,575,22,Woman,Right,
,,,,,,,,,,,,,,,,,575,22,Woman,Right,0,37,0.4,2,0,180,180,1.3787000000011176,['y'],1.295526100002462,1.946,941.2675784000021,,,,,575,22,Woman,Right,
,,,,,,,,,,,,,,,,,575,22,Woman,Right,0,40,0.4,1,0,-,180,1.9955105000044568,['y'],1.1585971000022255,1.986,947.7008931000018,,,,,575,22,Woman,Right,
,,,,,,,,,,,,,,,,,575,22,Woman,Right,0,10,0.4,1,180,-,0,1.1350673999986611,['y'],0.6939987999940058,1.984,952.4676242999994,,,,,575,22,Woman,Right,
,,,,,,,,,,,,,,,,,575,22,Woman,Right,0,17,0.4,2,0,180,180,0.6173168000022997,['y'],0.9175382999965223,1.954,957.3345361000029,,,,,575,22,Woman,Right,
,,,,,,,,,,,,,,,,,575,22,Woman,Right,0,60,0.15,1,0,-,0,1.9511063000027207,['n'],2.3571449000010034,2.0,965.2009312000009,,,,,575,22,Woman,Right,
,,,,,,,,,,,,,,,,,575,22,Woman,Right,0,53,0.15,2,0,180,180,1.0348725999938324,['y'],1.1480655999985174,1.998,970.9009776000021,,,,,575,22,Woman,Right,
,,,,,,,,,,,,,,,,,575,22,Woman,Right,0,38,0.4,1,180,-,180,1.6340656999964267,['y'],1.3947084000028553,2.0,976.6677296999987,,,,,575,22,Woman,Right,
,,,,,,,,,,,,,,,,,575,22,Woman,Right,0,58,0.15,1,180,-,180,1.0202795000004699,['n'],1.3944392999983393,1.946,982.2009636000003,,,,,575,22,Woman,Right,
,,,,,,,,,,,,,,,,,575,22,Woman,Right,0,18,0.4,1,180,-,0,0.4801889000009396,['y'],0.8257710000034422,1.962,986.8010357000021,,,,,575,22,Woman,Right,
,,,,,,,,,,,,,,,,,575,22,Woman,Right,0,48,0.15,1,0,-,0,0.6466847999981837,['y'],0.5134235000004992,2.0,990.9513958000025,,,,,575,22,Woman,Right,
,,,,,,,,,,,,,,,,,575,22,Woman,Right,1,53,0.15,2,0,180,0,1.1173205000013695,['y'],1.134019500001159,1.952,1017.6343860999987,56.25,27.5,90.0,,575,22,Woman,Right,
,,,,,,,,,,,,,,,,,575,22,Woman,Right,1,13,0.4,2,0,180,180,1.313660699997854,['y'],0.8375608999995166,1.984,1023.3010358000029,,,,,575,22,Woman,Right,
,,,,,,,,,,,,,,,,,575,22,Woman,Right,1,76,0.15,1,0,-,0,0.4490936999936821,['y'],1.2766759999940405,1.95,1028.3176409000007,,,,,575,22,Woman,Right,
,,,,,,,,,,,,,,,,,575,22,Woman,Right,1,18,0.4,1,180,-,0,0.5656364999958896,['y'],0.6438931999946362,2.0,1032.5345873999977,,,,,575,22,Woman,Right,
,,,,,,,,,,,,,,,,,575,22,Woman,Right,1,7,1,2,180,0,0,1.6487364999993588,['y'],1.2192576999950688,1.986,1038.5677343999996,,,,,575,22,Woman,Right,
,,,,,,,,,,,,,,,,,575,22,Woman,Right,1,27,0.4,2,180,0,0,1.3968947000030312,['y'],0.5629106999986107,2.0,1043.3678106000007,,,,,575,22,Woman,Right,
,,,,,,,,,,,,,,,,,575,22,Woman,Right,1,58,0.15,1,180,-,180,1.1705937000006088,['n'],1.0742708000034327,1.99,1048.5847490000015,,,,,575,22,Woman,Right,
,,,,,,,,,,,,,,,,,575,22,Woman,Right,1,65,0.15,2,0,180,180,3.050125300003856,['n'],1.265180499998678,1.964,1056.184385499997,,,,,575,22,Woman,Right,
,,,,,,,,,,,,,,,,,575,22,Woman,Right,1,11,0.4,2,180,0,0,0.5851821999967797,['y'],1.0571408000032534,2.0,1060.9179915999994,,,,,575,22,Woman,Right,
,,,,,,,,,,,,,,,,,575,22,Woman,Right,1,2,1,1,180,-,180,1.083674699999392,['n'],1.4234299000017927,1.934,1066.4177743000037,,,,,575,22,Woman,Right,
,,,,,,,,,,,,,,,,,575,22,Woman,Right,1,24,0.4,1,0,-,180,1.6788683999984642,['n'],2.5749521000034292,2.0,1073.5678019999978,,,,,575,22,Woman,Right,
,,,,,,,,,,,,,,,,,575,22,Woman,Right,1,20,0.4,1,0,-,0,1.8753662999952212,['n'],1.2462471999970148,2.0,1073.5678019999978,,,,,575,22,Woman,Right,
,,,,,,,,,,,,,,,,,575,22,Woman,Right,1,35,0.4,2,180,0,180,1.4978782999969553,['n'],1.0213762000057613,1.99,1084.7512095999991,,,,,575,22,Woman,Right,
,,,,,,,,,,,,,,,,,575,22,Woman,Right,1,51,0.15,2,180,0,180,0.7265767999997479,['n'],1.9724638999978197,2.0,1090.3178114999973,,,,,575,22,Woman,Right,
,,,,,,,,,,,,,,,,,575,22,Woman,Right,1,62,0.15,1,180,-,180,1.6307029000017792,['n'],1.803790999998455,2.0,1097.9511944000042,,,,,575,22,Woman,Right,
,,,,,,,,,,,,,,,,,575,22,Woman,Right,1,38,0.4,1,180,-,180,0.5252180999959819,['y'],0.7714831000048434,2.0,1097.9511944000042,,,,,575,22,Woman,Right,
,,,,,,,,,,,,,,,,,575,22,Woman,Right,1,8,0.4,1,0,-,0,1.2438783000034164,['y'],1.7145321999996668,1.718,1110.134540500003,,,,,575,22,Woman,Right,
,,,,,,,,,,,,,,,,,575,22,Woman,Right,1,43,0.4,2,180,0,0,1.7645992999969167,['y'],1.3301371999987168,1.83,1115.8514491000024,,,,,575,22,Woman,Right,
,,,,,,,,,,,,,,,,,575,22,Woman,Right,1,1,1,2,0,180,180,0.6781211000052281,['y'],1.2249608999991324,1.83,1115.8514491000024,,,,,575,22,Woman,Right,
,,,,,,,,,,,,,,,,,575,22,Woman,Right,1,28,0.4,1,0,-,0,2.1541283000042313,['y'],1.4961817000003066,1.918,1127.117897600001,,,,,575,22,Woman,Right,
,,,,,,,,,,,,,,,,,575,22,Woman,Right,1,32,0.4,1,0,-,180,1.4475711000050069,['n'],2.0554516000047443,1.874,1133.6345634000027,,,,,575,22,Woman,Right,
,,,,,,,,,,,,,,,,,575,22,Woman,Right,1,45,0.15,2,0,180,180,0.5553680000011809,['n'],1.4150076000005356,1.8639999999999999,1138.9014623999974,,,,,575,22,Woman,Right,
,,,,,,,,,,,,,,,,,575,22,Woman,Right,1,77,0.15,2,0,180,180,0.7488738000029116,['n'],1.3424722999989172,1.928,1144.4011838000006,,,,,575,22,Woman,Right,
,,,,,,,,,,,,,,,,,575,22,Woman,Right,1,26,0.4,1,180,-,180,2.0615258000034373,['n'],0.9252801999973599,1.908,1151.5845668000038,,,,,575,22,Woman,Right,
,,,,,,,,,,,,,,,,,575,22,Woman,Right,1,17,0.4,2,0,180,0,0.8190247000020463,['y'],1.2691134999986389,1.908,1151.5845668000038,,,,,575,22,Woman,Right,
,,,,,,,,,,,,,,,,,575,22,Woman,Right,1,39,0.4,2,180,0,0,0.736237600001914,['y'],1.1640772000027937,2.0,1161.7015831000026,,,,,575,22,Woman,Right,
,,,,,,,,,,,,,,,,,575,22,Woman,Right,1,57,0.15,2,0,180,180,1.178974800001015,['y'],1.299903400002222,2.0,1166.9679816999997,,,,,575,22,Woman,Right,
,,,,,,,,,,,,,,,,,575,22,Woman,Right,1,50,0.15,1,180,-,0,1.6866229999941424,['y'],2.0102060999997775,2.0,1173.9012711000032,,,,,575,22,Woman,Right,
,,,,,,,,,,,,,,,,,575,22,Woman,Right,1,10,0.4,1,180,-,180,0.7100184000009904,['n'],1.3455440999969142,2.0,1180.0346608000036,,,,,575,22,Woman,Right,
,,,,,,,,,,,,,,,,,575,22,Woman,Right,1,67,0.15,2,180,0,0,1.9786300999985542,['y'],0.9764317000008305,2.0,1186.0679604000034,,,,,575,22,Woman,Right,
,,,,,,,,,,,,,,,,,575,22,Woman,Right,1,66,0.15,1,180,-,180,0.9006336000020383,['n'],0.9847614000027534,1.926,1191.0680157000024,,,,,575,22,Woman,Right,
,,,,,,,,,,,,,,,,,575,22,Woman,Right,1,16,0.4,1,0,-,0,0.46752090000518365,['y'],0.9200677999979234,1.98,1195.6680436000024,,,,,575,22,Woman,Right,
,,,,,,,,,,,,,,,,,575,22,Woman,Right,1,31,0.4,2,180,0,0,0.7423421000057715,['y'],1.103059699998994,2.0,1200.601402500004,,,,,575,22,Woman,Right,
,,,,,,,,,,,,,,,,,575,22,Woman,Right,1,42,0.4,1,180,-,180,0.6523763000004692,['n'],2.2617764999959036,1.98,1206.385578100002,,,,,575,22,Woman,Right,
,,,,,,,,,,,,,,,,,575,22,Woman,Right,1,63,0.15,2,180,0,0,0.952371100000164,['y'],1.0378075000044191,1.978,1212.3348105999976,,,,,575,22,Woman,Right,
,,,,,,,,,,,,,,,,,575,22,Woman,Right,1,64,0.15,1,0,-,0,1.2903960999974515,['y'],1.2693255000049248,1.992,1218.5180613999983,,,,,575,22,Woman,Right,
,,,,,,,,,,,,,,,,,575,22,Woman,Right,1,30,0.4,1,180,-,0,1.5465971999947214,['y'],0.6844802999985404,2.0,1224.1189346000028,,,,,575,22,Woman,Right,
,,,,,,,,,,,,,,,,,575,22,Woman,Right,1,69,0.15,2,0,180,0,1.4332042000023648,['y'],0.739895599996089,2.0,1229.334985399997,,,,,575,22,Woman,Right,
,,,,,,,,,,,,,,,,,575,22,Woman,Right,1,0,1,1,0,-,0,2.916768000002776,['n'],2.210553800003254,2.0,1237.984727199997,,,,,575,22,Woman,Right,
,,,,,,,,,,,,,,,,,575,22,Woman,Right,1,21,0.4,2,0,180,180,2.127164500001527,['n'],2.145499899997958,2.0,1245.901475999999,,,,,575,22,Woman,Right,
,,,,,,,,,,,,,,,,,575,22,Woman,Right,1,3,1,2,180,0,0,0.943536499995389,['y'],1.5684829999954673,2.0,1253.0850476999985,,,,,575,22,Woman,Right,
,,,,,,,,,,,,,,,,,575,22,Woman,Right,1,12,0.4,1,0,-,180,2.385751599998912,['n'],1.4637198999989778,1.954,1260.368128000002,,,,,575,22,Woman,Right,
,,,,,,,,,,,,,,,,,575,22,Woman,Right,1,14,0.4,1,180,-,0,1.2130553999959375,['y'],1.6469905000049039,1.988,1266.7181375,,,,,575,22,Woman,Right,
,,,,,,,,,,,,,,,,,575,22,Woman,Right,1,72,0.15,1,0,-,0,1.388420600000245,['y'],1.085535099999106,1.98,1272.2013636999982,,,,,575,22,Woman,Right,
,,,,,,,,,,,,,,,,,575,22,Woman,Right,1,4,1,1,0,-,0,2.1726636000021244,['n'],2.357232100002875,1.974,1279.8347286999997,,,,,575,22,Woman,Right,
,,,,,,,,,,,,,,,,,575,22,Woman,Right,1,73,0.15,2,0,180,180,3.3013412000000244,['y'],2.571867699996801,1.97,1289.084852,,,,,575,22,Woman,Right,
,,,,,,,,,,,,,,,,,575,22,Woman,Right,1,47,0.15,2,180,0,0,1.0617471000005025,['n'],1.019566399998439,1.514,1295.7681736000013,,,,,575,22,Woman,Right,
,,,,,,,,,,,,,,,,,575,22,Woman,Right,1,60,0.15,1,0,-,0,1.0208420000053593,['y'],2.67442850000225,1.426,1302.3182111999995,,,,,575,22,Woman,Right,
,,,,,,,,,,,,,,,,,575,22,Woman,Right,1,61,0.15,2,0,180,0,1.7903141999995569,['y'],1.7609192000018083,1.46,1308.8349498000025,,,,,575,22,Woman,Right,
,,,,,,,,,,,,,,,,,575,22,Woman,Right,1,46,0.15,1,180,-,180,1.5333962000004249,['n'],2.5605970000033267,1.494,1315.7018041999982,,,,,575,22,Woman,Right,
,,,,,,,,,,,,,,,,,575,22,Woman,Right,1,75,0.15,2,180,0,180,3.374845700003789,['n'],1.3589558000021498,1.514,1323.4515969999993,,,,,575,22,Woman,Right,
,,,,,,,,,,,,,,,,,575,22,Woman,Right,1,33,0.4,2,0,180,180,1.310139999994135,['n'],2.7029449000037857,1.49,1330.5355103999973,,,,,575,22,Woman,Right,
,,,,,,,,,,,,,,,,,575,22,Woman,Right,1,55,0.15,2,180,0,0,3.81608970000525,['y'],2.253550000001269,1.52,1339.9182950000031,,,,,575,22,Woman,Right,
,,,,,,,,,,,,,,,,,575,22,Woman,Right,1,56,0.15,1,0,-,180,0.778953699998965,['y'],0.9807497000001604,1.52,1339.9182950000031,,,,,575,22,Woman,Right,
,,,,,,,,,,,,,,,,,575,22,Woman,Right,1,41,0.4,2,0,180,0,0.7910250000059023,['n'],2.236140399996657,1.516,1350.268318100003,,,,,575,22,Woman,Right,
,,,,,,,,,,,,,,,,,575,22,Woman,Right,1,25,0.4,2,0,180,180,0.6675173999974504,['n'],2.3797073000023374,1.2,1357.4516325000004,,,,,575,22,Woman,Right,
,,,,,,,,,,,,,,,,,575,22,Woman,Right,1,79,0.15,2,180,0,180,1.0985249000004842,['y'],0.5384454000013648,1.2,1361.9182415000032,,,,,575,22,Woman,Right,
,,,,,,,,,,,,,,,,,575,22,Woman,Right,1,44,0.15,1,0,-,180,0.016611300001386553,['y'],1.1095769999956246,1.238,1366.418313000002,,,,,575,22,Woman,Right,
,,,,,,,,,,,,,,,,,575,22,Woman,Right,1,74,0.15,1,180,-,0,1.4166222999992897,['y'],2.0651721000031102,1.254,1373.7853353000028,,,,,575,22,Woman,Right,
,,,,,,,,,,,,,,,,,575,22,Woman,Right,1,29,0.4,2,0,180,180,1.3707247999991523,['y'],1.4000995999958832,1.562,1379.9016759000006,,,,,575,22,Woman,Right,
,,,,,,,,,,,,,,,,,575,22,Woman,Right,1,78,0.15,1,180,-,0,2.7037603999997373,['y'],1.0073320000010426,1.556,1386.9353439999977,,,,,575,22,Woman,Right,
,,,,,,,,,,,,,,,,,575,22,Woman,Right,1,6,1,1,180,-,180,2.106144500001392,['y'],2.166721800000232,1.53,1394.0684062,,,,,575,22,Woman,Right,
,,,,,,,,,,,,,,,,,575,22,Woman,Right,1,54,0.15,1,180,-,180,2.1703311999954167,['y'],1.7977888000023086,1.576,1402.4517322000029,,,,,575,22,Woman,Right,
,,,,,,,,,,,,,,,,,575,22,Woman,Right,1,9,0.4,2,0,180,180,0.7516892999992706,['y'],0.4930607999995118,1.404,1406.7852807000017,,,,,575,22,Woman,Right,
,,,,,,,,,,,,,,,,,575,22,Woman,Right,1,5,1,2,0,180,180,2.72917750000488,['y'],1.9884290999980294,1.556,1414.4184386999987,,,,,575,22,Woman,Right,
,,,,,,,,,,,,,,,,,575,22,Woman,Right,1,40,0.4,1,0,-,180,1.0961084000009578,['y'],1.395436900005734,1.542,1420.0850408000042,,,,,575,22,Woman,Right,
,,,,,,,,,,,,,,,,,575,22,Woman,Right,1,19,0.4,2,180,0,0,0.9386860000013257,['y'],0.8908086999945226,1.654,1424.9852621000027,,,,,575,22,Woman,Right,
,,,,,,,,,,,,,,,,,575,22,Woman,Right,1,23,0.4,2,180,0,0,1.7533955999970203,['y'],0.8420574000047054,1.718,1431.6183337999973,,,,,575,22,Woman,Right,
,,,,,,,,,,,,,,,,,575,22,Woman,Right,1,15,0.4,2,180,0,0,2.7663663999992423,['y'],2.193255300000601,1.6440000000000001,1440.318408799998,,,,,575,22,Woman,Right,
,,,,,,,,,,,,,,,,,575,22,Woman,Right,1,48,0.15,1,0,-,180,0.6034268000003067,['y'],0.4244761000009021,1.534,1444.2353373000005,,,,,575,22,Woman,Right,
,,,,,,,,,,,,,,,,,575,22,Woman,Right,1,37,0.4,2,0,180,180,0.791974300002039,['y'],0.47947369999747025,1.534,1444.2353373000005,,,,,575,22,Woman,Right,
,,,,,,,,,,,,,,,,,575,22,Woman,Right,1,34,0.4,1,180,-,180,0.6599722999962978,['n'],2.134733899998537,1.526,1453.5351066000003,,,,,575,22,Woman,Right,
,,,,,,,,,,,,,,,,,575,22,Woman,Right,1,22,0.4,1,180,-,180,1.6815683000022545,['y'],0.7504592000041157,1.558,1458.5684058999977,,,,,575,22,Woman,Right,
,,,,,,,,,,,,,,,,,575,22,Woman,Right,1,52,0.15,1,0,-,0,1.4531490999943344,['n'],1.5016700999985915,1.422,1465.1684872999977,,,,,575,22,Woman,Right,
,,,,,,,,,,,,,,,,,575,22,Woman,Right,1,36,0.4,1,0,-,180,0.9568079999953625,['n'],1.3572014999954263,1.468,1470.418516800004,,,,,575,22,Woman,Right,
,,,,,,,,,,,,,,,,,575,22,Woman,Right,1,70,0.15,1,180,-,180,0.530561999999918,['y'],1.076107900000352,1.49,1474.535251100002,,,,,575,22,Woman,Right,
,,,,,,,,,,,,,,,,,575,22,Woman,Right,1,59,0.15,2,180,0,0,0.8102323999992223,['y'],1.2357628000027034,1.468,1479.436126499997,,,,,575,22,Woman,Right,
,,,,,,,,,,,,,,,,,575,22,Woman,Right,1,49,0.15,2,0,180,0,0.3412326999969082,['y'],0.8033456999983173,1.468,1479.436126499997,,,,,575,22,Woman,Right,
,,,,,,,,,,,,,,,,,575,22,Woman,Right,1,68,0.15,1,0,-,0,3.2721028000014485,['y'],1.5947297000020626,1.506,1491.8521342000022,,,,,575,22,Woman,Right,
,,,,,,,,,,,,,,,,,575,22,Woman,Right,1,71,0.15,2,180,0,180,2.4993515000023763,['y'],1.2413282999987132,1.506,1491.8521342000022,,,,,575,22,Woman,Right,
,,,,,,,,,,,,,,,,,575,22,Woman,Right,2,32,0.4,1,0,-,180,1.186827000004996,['y'],1.189612300004228,1.712,1526.1852227999989,68.75,42.5,72.5,,575,22,Woman,Right,
,,,,,,,,,,,,,,,,,575,22,Woman,Right,2,2,1,1,180,-,180,1.0985127999956603,['y'],1.0773277999978745,1.712,1526.1852227999989,,,,,575,22,Woman,Right,
,,,,,,,,,,,,,,,,,575,22,Woman,Right,2,31,0.4,2,180,0,0,1.0306478999991668,['y'],1.4765446000019438,1.5,1535.326152499998,,,,,575,22,Woman,Right,
,,,,,,,,,,,,,,,,,575,22,Woman,Right,2,62,0.15,1,180,-,0,1.4024281999954837,['y'],0.7004680000027292,1.75,1540.9186429000038,,,,,575,22,Woman,Right,
,,,,,,,,,,,,,,,,,575,22,Woman,Right,2,76,0.15,1,0,-,180,4.088951999998244,['y'],1.8267897999976412,1.75,1549.9520238999976,,,,,575,22,Woman,Right,
,,,,,,,,,,,,,,,,,575,22,Woman,Right,2,37,0.4,2,0,180,180,0.8139042999973753,['y'],0.7864211999985855,1.754,1554.4022200000036,,,,,575,22,Woman,Right,
,,,,,,,,,,,,,,,,,575,22,Woman,Right,2,49,0.15,2,0,180,0,1.667399400001159,['y'],0.9454167999938363,1.464,1559.6358890999982,,,,,575,22,Woman,Right,
,,,,,,,,,,,,,,,,,575,22,Woman,Right,2,67,0.15,2,180,0,0,4.272422299996833,['n'],3.544825100005255,1.592,1570.7520540000041,,,,,575,22,Woman,Right,
,,,,,,,,,,,,,,,,,575,22,Woman,Right,2,41,0.4,2,0,180,180,1.9601861999981338,['y'],1.5834611999962362,1.678,1577.168697400004,,,,,575,22,Woman,Right,
,,,,,,,,,,,,,,,,,575,22,Woman,Right,2,18,0.4,1,180,-,180,1.7171944999936386,['y'],1.1345711999965715,1.6179999999999999,1582.5519488999998,,,,,575,22,Woman,Right,
,,,,,,,,,,,,,,,,,575,22,Woman,Right,2,6,1,1,180,-,0,1.6227256999991369,['y'],0.950219799997285,1.78,1587.9187060999975,,,,,575,22,Woman,Right,
,,,,,,,,,,,,,,,,,575,22,Woman,Right,2,11,0.4,2,180,0,180,2.3625339999998687,['n'],0.7891795999967144,1.6320000000000001,1594.0521255999993,,,,,575,22,Woman,Right,
,,,,,,,,,,,,,,,,,575,22,Woman,Right,2,75,0.15,2,180,0,0,0.0842560000019148,['y'],0.972861100002774,1.7,1597.9020735000013,,,,,575,22,Woman,Right,
,,,,,,,,,,,,,,,,,575,22,Woman,Right,2,74,0.15,1,180,-,0,0.10682899999665096,['n'],0.7006503000011435,1.552,1602.3020524000021,,,,,575,22,Woman,Right,
,,,,,,,,,,,,,,,,,575,22,Woman,Right,2,16,0.4,1,0,-,180,1.1563403000036487,['y'],1.299433100000897,1.718,1607.3354550000004,,,,,575,22,Woman,Right,
,,,,,,,,,,,,,,,,,575,22,Woman,Right,2,72,0.15,1,0,-,0,0.6345615000027465,['y'],1.8512890999991214,1.6219999999999999,1612.3520468999996,,,,,575,22,Woman,Right,
,,,,,,,,,,,,,,,,,575,22,Woman,Right,2,50,0.15,1,180,-,180,0.6350024999992456,['y'],3.2905848000009428,1.674,1619.0686805000005,,,,,575,22,Woman,Right,
,,,,,,,,,,,,,,,,,575,22,Woman,Right,2,55,0.15,2,180,0,180,0.5725573999952758,['y'],0.7776747000025352,1.714,1623.002185999998,,,,,575,22,Woman,Right,
,,,,,,,,,,,,,,,,,575,22,Woman,Right,2,3,1,2,180,0,0,0.4736382000046433,['y'],1.0494070000058855,1.65,1627.1354653000017,,,,,575,22,Woman,Right,
,,,,,,,,,,,,,,,,,575,22,Woman,Right,2,54,0.15,1,180,-,180,0.4659345999971265,['y'],0.8887304999952903,1.646,1631.168957300004,,,,,575,22,Woman,Right,
,,,,,,,,,,,,,,,,,575,22,Woman,Right,2,69,0.15,2,0,180,180,0.5907922000042163,['y'],1.408285600002273,1.672,1635.8523403,,,,,575,22,Woman,Right,
,,,,,,,,,,,,,,,,,575,22,Woman,Right,2,30,0.4,1,180,-,180,0.4303652999951737,['y'],0.6959815999944112,1.698,1639.5856979000018,,,,,575,22,Woman,Right,
,,,,,,,,,,,,,,,,,575,22,Woman,Right,2,58,0.15,1,180,-,180,0.2827499999984866,['y'],0.5911822999987635,1.686,1643.085708300001,,,,,575,22,Woman,Right,
,,,,,,,,,,,,,,,,,575,22,Woman,Right,2,44,0.15,1,0,-,180,0.1666789000009885,['y'],0.4623044999971171,1.678,1646.2857285999999,,,,,575,22,Woman,Right,
,,,,,,,,,,,,,,,,,575,22,Woman,Right,2,21,0.4,2,0,180,0,1.3550531000000774,['n'],2.7658207999993465,1.684,1653.3188348999975,,,,,575,22,Woman,Right,
,,,,,,,,,,,,,,,,,575,22,Woman,Right,2,26,0.4,1,180,-,180,0.23866769999585813,['y'],0.9335313999981736,1.662,1656.9688405999987,,,,,575,22,Woman,Right,
,,,,,,,,,,,,,,,,,575,22,Woman,Right,2,25,0.4,2,0,180,180,2.0802530000000843,['y'],0.8127240999965579,1.634,1662.2857574000009,,,,,575,22,Woman,Right,
,,,,,,,,,,,,,,,,,575,22,Woman,Right,2,70,0.15,1,180,-,180,0.9839129999963916,['n'],1.308323700002802,1.688,1667.3188511999979,,,,,575,22,Woman,Right,
,,,,,,,,,,,,,,,,,575,22,Woman,Right,2,4,1,1,0,-,180,1.9130482999971719,['y'],0.9155743999945116,1.814,1673.1023330000025,,,,,575,22,Woman,Right,
,,,,,,,,,,,,,,,,,575,22,Woman,Right,2,39,0.4,2,180,0,0,0.7330690000017057,['y'],0.842601399999694,1.71,1677.0521492999978,,,,,575,22,Woman,Right,
,,,,,,,,,,,,,,,,,575,22,Woman,Right,2,45,0.15,2,0,180,180,2.41305960000318,['n'],1.4503796999997576,1.728,1683.6021900999986,,,,,575,22,Woman,Right,
,,,,,,,,,,,,,,,,,575,22,Woman,Right,2,9,0.4,2,0,180,180,1.256931899995834,['y'],1.2974197000003187,1.718,1691.5856037999984,,,,,575,22,Woman,Right,
,,,,,,,,,,,,,,,,,575,22,Woman,Right,2,57,0.15,2,0,180,180,0.6875282999972114,['y'],0.5125769000005675,1.82,1695.7522931999993,,,,,575,22,Woman,Right,
,,,,,,,,,,,,,,,,,575,22,Woman,Right,2,53,0.15,2,0,180,0,0.23438360000000102,['y'],0.5521781999996165,1.82,1699.252986200001,,,,,575,22,Woman,Right,
,,,,,,,,,,,,,,,,,575,22,Woman,Right,2,34,0.4,1,180,-,0,0.016826099999889266,['y'],1.0940680999992765,1.748,1703.4022422999988,,,,,575,22,Woman,Right,
,,,,,,,,,,,,,,,,,575,22,Woman,Right,2,24,0.4,1,0,-,180,0.3879104000006919,['y'],0.767166300000099,1.58,1709.3188843000025,,,,,575,22,Woman,Right,
,,,,,,,,,,,,,,,,,575,22,Woman,Right,2,5,1,2,0,180,180,0.95822909999697,['y'],1.2947625999950105,1.726,1715.152477800002,,,,,575,22,Woman,Right,
,,,,,,,,,,,,,,,,,575,22,Woman,Right,2,36,0.4,1,0,-,0,1.3516799999997602,['n'],0.7255681999959052,1.718,1719.9525912000026,,,,,575,22,Woman,Right,
,,,,,,,,,,,,,,,,,575,22,Woman,Right,2,14,0.4,1,180,-,0,1.7650155000010272,['y'],1.221296199997596,1.72,1725.9693321000013,,,,,575,22,Woman,Right,
,,,,,,,,,,,,,,,,,575,22,Woman,Right,2,52,0.15,1,0,-,0,1.115743599999405,['n'],1.1802055000007385,1.72,1730.918890300003,,,,,575,22,Woman,Right,
,,,,,,,,,,,,,,,,,575,22,Woman,Right,2,22,0.4,1,180,-,180,0.8497340999965672,['n'],1.2758503000004566,1.72,1735.5361508999995,,,,,575,22,Woman,Right,
,,,,,,,,,,,,,,,,,575,22,Woman,Right,2,19,0.4,2,180,0,0,0.641110699994897,['y'],1.1069252000015695,1.72,1739.7190469999987,,,,,575,22,Woman,Right,
,,,,,,,,,,,,,,,,,575,22,Woman,Right,2,17,0.4,2,0,180,180,1.3596926999962307,['y'],1.0426067000007606,1.72,1745.7024256000004,,,,,575,22,Woman,Right,
,,,,,,,,,,,,,,,,,575,22,Woman,Right,2,59,0.15,2,180,0,0,1.3328694000010728,['y'],1.0178137999973842,1.72,1750.4860649000038,,,,,575,22,Woman,Right,
,,,,,,,,,,,,,,,,,575,22,Woman,Right,2,46,0.15,1,180,-,180,1.341006800001196,['y'],0.9854362999976729,1.722,1755.1856793999978,,,,,575,22,Woman,Right,
,,,,,,,,,,,,,,,,,575,22,Woman,Right,2,33,0.4,2,0,180,0,0.5372089000011329,['y'],0.5925609999976587,1.74,1759.469524500004,,,,,575,22,Woman,Right,
,,,,,,,,,,,,,,,,,575,22,Woman,Right,2,42,0.4,1,180,-,180,0.9832690999974147,['y'],1.5201360999999451,1.742,1764.6859363999974,,,,,575,22,Woman,Right,
,,,,,,,,,,,,,,,,,575,22,Woman,Right,2,71,0.15,2,180,0,0,0.35718650000490015,['y'],0.607497200006037,1.744,1768.4357600000003,,,,,575,22,Woman,Right,
,,,,,,,,,,,,,,,,,575,22,Woman,Right,2,64,0.15,1,0,-,180,0.04092289999971399,['y'],0.8308603999976185,1.754,1772.1026845000015,,,,,575,22,Woman,Right,
,,,,,,,,,,,,,,,,,575,22,Woman,Right,2,65,0.15,2,0,180,0,3.3582365000038408,['y'],0.8303957000025548,1.752,1778.7023905000024,,,,,575,22,Woman,Right,
,,,,,,,,,,,,,,,,,575,22,Woman,Right,2,78,0.15,1,180,-,0,1.425216999996337,['n'],1.5174116999987746,1.756,1784.8691813000041,,,,,575,22,Woman,Right,
,,,,,,,,,,,,,,,,,575,22,Woman,Right,2,27,0.4,2,180,0,0,0.9708863999985624,['y'],0.9570195999986026,1.6680000000000001,1790.1357197000034,,,,,575,22,Woman,Right,
,,,,,,,,,,,,,,,,,575,22,Woman,Right,2,7,1,2,180,0,0,0.714881100000639,['y'],1.0203524000025936,1.696,1794.7191259000028,,,,,575,22,Woman,Right,
,,,,,,,,,,,,,,,,,575,22,Woman,Right,2,12,0.4,1,0,-,180,0.6803725999998278,['n'],1.1232783999948879,1.71,1799.252644500004,,,,,575,22,Woman,Right,
,,,,,,,,,,,,,,,,,575,22,Woman,Right,2,20,0.4,1,0,-,180,0.40542529999947874,['y'],1.7627474999972037,1.736,1803.9357870000022,,,,,575,22,Woman,Right,
,,,,,,,,,,,,,,,,,575,22,Woman,Right,2,73,0.15,2,0,180,0,0.812722800001211,['y'],0.954530099996191,1.738,1808.1359297000017,,,,,575,22,Woman,Right,
,,,,,,,,,,,,,,,,,575,22,Woman,Right,2,23,0.4,2,180,0,0,0.31652349999785656,['y'],1.130184300003748,1.742,1812.1859324000034,,,,,575,22,Woman,Right,
,,,,,,,,,,,,,,,,,575,22,Woman,Right,2,60,0.15,1,0,-,180,0.17577840000012657,['n'],0.48101650000171503,1.738,1816.0025098000042,,,,,575,22,Woman,Right,
,,,,,,,,,,,,,,,,,575,22,Woman,Right,2,68,0.15,1,0,-,180,0.7014306999990367,['y'],0.777074999998149,1.736,1820.2026767999996,,,,,575,22,Woman,Right,
,,,,,,,,,,,,,,,,,575,22,Woman,Right,2,15,0.4,2,180,0,180,1.785668500000611,['y'],2.2320636000004015,1.742,1826.769167700004,,,,,575,22,Woman,Right,
,,,,,,,,,,,,,,,,,575,22,Woman,Right,2,79,0.15,2,180,0,180,0.40267519999906654,['y'],0.5039552000016556,1.734,1830.019445500002,,,,,575,22,Woman,Right,
,,,,,,,,,,,,,,,,,575,22,Woman,Right,2,77,0.15,2,0,180,0,0.3630401999980677,['y'],0.6551734000022407,1.732,1833.5359959999987,,,,,575,22,Woman,Right,
,,,,,,,,,,,,,,,,,575,22,Woman,Right,2,43,0.4,2,180,0,0,2.4978102999957628,['n'],2.0546663999994053,1.742,1841.019175100002,,,,,575,22,Woman,Right,
,,,,,,,,,,,,,,,,,575,22,Woman,Right,2,38,0.4,1,180,-,180,0.4000081999984104,['y'],1.1258559999987483,1.754,1845.5525153999988,,,,,575,22,Woman,Right,
,,,,,,,,,,,,,,,,,575,22,Woman,Right,2,47,0.15,2,180,0,0,1.0232757000048878,['y'],1.1811220000017784,1.752,1850.3524639000025,,,,,575,22,Woman,Right,
,,,,,,,,,,,,,,,,,575,22,Woman,Right,2,0,1,1,0,-,180,3.6881299000015133,['y'],0.676184199997806,1.752,1857.770226200002,,,,,575,22,Woman,Right,
,,,,,,,,,,,,,,,,,575,22,Woman,Right,2,40,0.4,1,0,-,0,0.4959263999990071,['y'],1.0998777999993763,1.77,1862.2193024000007,,,,,575,22,Woman,Right,
,,,,,,,,,,,,,,,,,575,22,Woman,Right,2,35,0.4,2,180,0,0,0.5728933999998844,['y'],0.6186764999947627,1.756,1865.7526174000013,,,,,575,22,Woman,Right,
,,,,,,,,,,,,,,,,,575,22,Woman,Right,2,29,0.4,2,0,180,0,0.6097370999996201,['y'],0.5704543999963789,1.76,1869.536781200004,,,,,575,22,Woman,Right,
,,,,,,,,,,,,,,,,,575,22,Woman,Right,2,48,0.15,1,0,-,180,0.34545250000519445,['y'],0.8264176000011503,1.762,1873.3359672000006,,,,,575,22,Woman,Right,
,,,,,,,,,,,,,,,,,575,22,Woman,Right,2,28,0.4,1,0,-,0,0.2055289999989327,['n'],1.1618314999941504,1.762,1877.2361219000013,,,,,575,22,Woman,Right,
,,,,,,,,,,,,,,,,,575,22,Woman,Right,2,61,0.15,2,0,180,180,1.6084715999968466,['y'],1.0250952999995206,1.682,1882.5861117000022,,,,,575,22,Woman,Right,
,,,,,,,,,,,,,,,,,575,22,Woman,Right,2,56,0.15,1,0,-,180,0.3548750000045402,['y'],1.2725730999954976,1.688,1886.9861433000042,,,,,575,22,Woman,Right,
,,,,,,,,,,,,,,,,,575,22,Woman,Right,2,51,0.15,2,180,0,0,4.0044378000020515,['n'],1.383088399998087,1.694,1895.219478799998,,,,,575,22,Woman,Right,
,,,,,,,,,,,,,,,,,575,22,Woman,Right,2,1,1,2,0,180,180,1.093770499996026,['y'],1.190223599995079,1.818,1901.8028310000009,,,,,575,22,Woman,Right,
,,,,,,,,,,,,,,,,,575,22,Woman,Right,2,10,0.4,1,180,-,180,1.045224599998619,['n'],1.2137199999997392,1.806,1907.135882100003,,,,,575,22,Woman,Right,
,,,,,,,,,,,,,,,,,575,22,Woman,Right,2,66,0.15,1,180,-,0,0.9145409999982803,['n'],1.4052904000054696,1.798,1912.3192710000003,,,,,575,22,Woman,Right,
,,,,,,,,,,,,,,,,,575,22,Woman,Right,2,13,0.4,2,0,180,180,0.4191854000018793,['y'],0.4771614999990561,1.798,1915.686396600002,,,,,575,22,Woman,Right,
,,,,,,,,,,,,,,,,,575,22,Woman,Right,2,8,0.4,1,0,-,180,3.264450800001214,['y'],0.9638261000000057,1.796,1922.5026173000006,,,,,575,22,Woman,Right,
,,,,,,,,,,,,,,,,,575,22,Woman,Right,2,63,0.15,2,180,0,0,0.36987930000032065,['y'],0.771598699997412,1.824,1926.4860513000021,,,,,575,22,Woman,Right,
,,,,,,,,,,,,,,,,,575,22,Woman,Right,3,21,0.4,2,0,180,180,0.9040377999990596,['y'],1.137385499998345,1.824,1943.5862108000001,57.5,27.5,85.0,,575,22,Woman,Right,
,,,,,,,,,,,,,,,,,575,22,Woman,Right,3,17,0.4,2,0,180,0,0.5539181999993161,['y'],1.3449016999948071,1.846,1947.9360019000014,,,,,575,22,Woman,Right,
,,,,,,,,,,,,,,,,,575,22,Woman,Right,3,9,0.4,2,0,180,180,0.3585650999957579,['y'],1.0001751000017975,1.8519999999999999,1951.9860916000034,,,,,575,22,Woman,Right,
,,,,,,,,,,,,,,,,,575,22,Woman,Right,3,40,0.4,1,0,-,180,5.437514999997802,['y'],0.9429445999994641,1.8519999999999999,1951.9860916000034,,,,,575,22,Woman,Right,
,,,,,,,,,,,,,,,,,575,22,Woman,Right,3,0,1,1,0,-,0,0.48342560000310186,['n'],1.2019542999987607,1.832,1968.2860279000015,,,,,575,22,Woman,Right,
,,,,,,,,,,,,,,,,,575,22,Woman,Right,3,12,0.4,1,0,-,180,0.7035430999967502,['y'],1.078020099994319,1.802,1972.670158599998,,,,,575,22,Woman,Right,
,,,,,,,,,,,,,,,,,575,22,Woman,Right,3,11,0.4,2,180,0,0,0.8392526999959955,['y'],1.0453546999997343,1.81,1976.8694000000032,,,,,575,22,Woman,Right,
,,,,,,,,,,,,,,,,,575,22,Woman,Right,3,55,0.15,2,180,0,180,0.06676650000008522,['n'],1.6448912000050768,1.756,1981.2861209000039,,,,,575,22,Woman,Right,
,,,,,,,,,,,,,,,,,575,22,Woman,Right,3,33,0.4,2,0,180,0,1.3724718000012217,['y'],0.9561967000045115,1.8,1986.0359940999988,,,,,575,22,Woman,Right,
,,,,,,,,,,,,,,,,,575,22,Woman,Right,3,59,0.15,2,180,0,180,0.01653459999943152,['y'],0.7984952999977395,1.8,1989.2528013999981,,,,,575,22,Woman,Right,
,,,,,,,,,,,,,,,,,575,22,Woman,Right,3,60,0.15,1,0,-,0,0.016680700005963445,['n'],0.7799894999989192,1.716,1992.7871983000005,,,,,575,22,Woman,Right,
,,,,,,,,,,,,,,,,,575,22,Woman,Right,3,64,0.15,1,0,-,180,1.3904292000006535,['y'],0.8827617999995709,1.634,1998.0529916000014,,,,,575,22,Woman,Right,
,,,,,,,,,,,,,,,,,575,22,Woman,Right,3,67,0.15,2,180,0,0,0.29313839999667834,['n'],1.6261886000065715,1.73,2002.9195384999985,,,,,575,22,Woman,Right,
,,,,,,,,,,,,,,,,,575,22,Woman,Right,3,34,0.4,1,180,-,180,0.3806562000027043,['y'],0.8895661999995355,1.764,2006.9194979000022,,,,,575,22,Woman,Right,
,,,,,,,,,,,,,,,,,575,22,Woman,Right,3,22,0.4,1,180,-,0,0.7361527000030037,['y'],1.0254558000015095,1.762,2011.1862075000026,,,,,575,22,Woman,Right,
,,,,,,,,,,,,,,,,,575,22,Woman,Right,3,52,0.15,1,0,-,180,0.016738500002247747,['y'],0.9570789999997942,1.762,2014.9860741000011,,,,,575,22,Woman,Right,
,,,,,,,,,,,,,,,,,575,22,Woman,Right,3,69,0.15,2,0,180,180,0.40582139999605715,['y'],1.544060599997465,1.67,2021.003020199998,,,,,575,22,Woman,Right,
,,,,,,,,,,,,,,,,,575,22,Woman,Right,3,1,1,2,0,180,0,1.8142681000026641,['y'],0.662963499999023,1.684,2026.902828600003,,,,,575,22,Woman,Right,
,,,,,,,,,,,,,,,,,575,22,Woman,Right,3,71,0.15,2,180,0,180,0.7994461999987834,['y'],1.4144003000037628,1.676,2031.7536617000005,,,,,575,22,Woman,Right,
,,,,,,,,,,,,,,,,,575,22,Woman,Right,3,62,0.15,1,180,-,0,1.5409342999992077,['n'],0.6453951000003144,1.6680000000000001,2036.9363037000003,,,,,575,22,Woman,Right,
,,,,,,,,,,,,,,,,,575,22,Woman,Right,3,6,1,1,180,-,180,0.2947182999996585,['y'],0.7015479000037885,1.68,2041.5361645000012,,,,,575,22,Woman,Right,
,,,,,,,,,,,,,,,,,575,22,Woman,Right,3,18,0.4,1,180,-,180,0.6106644000028609,['n'],1.372351300000446,1.576,2046.4695890000003,,,,,575,22,Woman,Right,
,,,,,,,,,,,,,,,,,575,22,Woman,Right,3,74,0.15,1,180,-,180,2.4909211000049254,['n'],2.131729100001394,1.6360000000000001,2053.536390000001,,,,,575,22,Woman,Right,
,,,,,,,,,,,,,,,,,575,22,Woman,Right,3,41,0.4,2,0,180,180,0.8799725999997463,['y'],1.3709988000045996,1.634,2058.2529111999975,,,,,575,22,Woman,Right,
,,,,,,,,,,,,,,,,,575,22,Woman,Right,3,48,0.15,1,0,-,0,1.6213774000061676,['y'],0.994298700003128,1.684,2063.2694844,,,,,575,22,Woman,Right,
,,,,,,,,,,,,,,,,,575,22,Woman,Right,3,47,0.15,2,180,0,0,0.8632651000007172,['y'],0.8258266000048025,1.688,2067.7198328000013,,,,,575,22,Woman,Right,
,,,,,,,,,,,,,,,,,575,22,Woman,Right,3,42,0.4,1,180,-,180,0.8972506999998586,['n'],1.273292700003367,1.69,2072.3365711000006,,,,,575,22,Woman,Right,
,,,,,,,,,,,,,,,,,575,22,Woman,Right,3,65,0.15,2,0,180,180,1.675700899999356,['y'],0.8894630999930087,1.69,2077.3363154000035,,,,,575,22,Woman,Right,
,,,,,,,,,,,,,,,,,575,22,Woman,Right,3,63,0.15,2,180,0,180,0.3708912000001874,['y'],0.6081525999979931,1.69,2080.719505699999,,,,,575,22,Woman,Right,
,,,,,,,,,,,,,,,,,575,22,Woman,Right,3,26,0.4,1,180,-,180,0.09323989999393234,['y'],0.4796913999962271,1.686,2083.7363183999987,,,,,575,22,Woman,Right,
,,,,,,,,,,,,,,,,,575,22,Woman,Right,3,28,0.4,1,0,-,0,0.2344424999973853,['y'],0.48728159999882337,1.68,2087.069738500002,,,,,575,22,Woman,Right,
,,,,,,,,,,,,,,,,,575,22,Woman,Right,3,37,0.4,2,0,180,180,1.0237277999985963,['y'],0.9186541000017314,1.804,2091.4362574999977,,,,,575,22,Woman,Right,
,,,,,,,,,,,,,,,,,575,22,Woman,Right,3,49,0.15,2,0,180,0,1.7983145999969565,['y'],0.5500018000020646,1.748,2096.7033666999996,,,,,575,22,Woman,Right,
,,,,,,,,,,,,,,,,,575,22,Woman,Right,3,2,1,1,180,-,180,0.17324299999745563,['y'],0.5177726999972947,1.756,2099.919635799997,,,,,575,22,Woman,Right,
,,,,,,,,,,,,,,,,,575,22,Woman,Right,3,46,0.15,1,180,-,180,0.2249470000024303,['y'],1.9091612999982317,1.758,2104.5198980999994,,,,,575,22,Woman,Right,
,,,,,,,,,,,,,,,,,575,22,Woman,Right,3,7,1,2,180,0,0,0.5743633999954909,['y'],0.7731515999985277,1.78,2110.286508600002,,,,,575,22,Woman,Right,
,,,,,,,,,,,,,,,,,575,22,Woman,Right,3,27,0.4,2,180,0,0,1.4437141000016709,['y'],0.683715499995742,1.858,2117.5197345999986,,,,,575,22,Woman,Right,
,,,,,,,,,,,,,,,,,575,22,Woman,Right,3,57,0.15,2,0,180,180,0.4973863000050187,['y'],0.6111309999978403,1.826,2124.769882599998,,,,,575,22,Woman,Right,
,,,,,,,,,,,,,,,,,575,22,Woman,Right,3,8,0.4,1,0,-,0,1.058814700001676,['n'],2.9214359000034165,1.796,2131.4032167999976,,,,,575,22,Woman,Right,
,,,,,,,,,,,,,,,,,575,22,Woman,Right,3,14,0.4,1,180,-,180,0.25754150000284426,['y'],1.1293787000031443,1.75,2135.153014800002,,,,,575,22,Woman,Right,
,,,,,,,,,,,,,,,,,575,22,Woman,Right,3,36,0.4,1,0,-,0,1.8466713999951025,['n'],1.528288599998632,1.75,2140.919895699997,,,,,575,22,Woman,Right,
,,,,,,,,,,,,,,,,,575,22,Woman,Right,3,13,0.4,2,0,180,180,0.2607471999945119,['y'],1.4004063999964274,1.75,2144.9864333000005,,,,,575,22,Woman,Right,
,,,,,,,,,,,,,,,,,575,22,Woman,Right,3,31,0.4,2,180,0,0,0.25015719999646535,['y'],0.6711988000024576,1.616,2148.803275099999,,,,,575,22,Woman,Right,
,,,,,,,,,,,,,,,,,575,22,Woman,Right,3,54,0.15,1,180,-,180,0.40143719999468885,['y'],0.42283599999791477,1.762,2152.1529861000017,,,,,575,22,Woman,Right,
,,,,,,,,,,,,,,,,,575,22,Woman,Right,3,53,0.15,2,0,180,180,1.3016864999954123,['n'],1.46273420000216,1.762,2157.3030548000024,,,,,575,22,Woman,Right,
,,,,,,,,,,,,,,,,,575,22,Woman,Right,3,51,0.15,2,180,0,0,0.4641187999950489,['n'],0.7419687000001431,1.776,2161.519779299997,,,,,575,22,Woman,Right,
,,,,,,,,,,,,,,,,,575,22,Woman,Right,3,79,0.15,2,180,0,180,0.7308763000037288,['n'],0.6773448999956599,1.782,2165.703056999999,,,,,575,22,Woman,Right,
,,,,,,,,,,,,,,,,,575,22,Woman,Right,3,15,0.4,2,180,0,0,0.5113380999973742,['y'],1.0928561999971862,1.78,2170.1532794000013,,,,,575,22,Woman,Right,
,,,,,,,,,,,,,,,,,575,22,Woman,Right,3,43,0.4,2,180,0,0,0.47155039999779547,['y'],1.7565112999945995,1.772,2174.719708299999,,,,,575,22,Woman,Right,
,,,,,,,,,,,,,,,,,575,22,Woman,Right,3,44,0.15,1,0,-,180,0.2573037999973167,['y'],1.8755355999965104,1.772,2179.3031523000027,,,,,575,22,Woman,Right,
,,,,,,,,,,,,,,,,,575,22,Woman,Right,3,35,0.4,2,180,0,180,0.03609410000353819,['y'],0.5073166000001947,1.772,2182.2366779000004,,,,,575,22,Woman,Right,
,,,,,,,,,,,,,,,,,575,22,Woman,Right,3,5,1,2,0,180,0,1.5083234000048833,['y'],1.026656300004106,1.79,2186.9364958000006,,,,,575,22,Woman,Right,
,,,,,,,,,,,,,,,,,575,22,Woman,Right,3,45,0.15,2,0,180,180,0.02691670000058366,['n'],1.594805400003679,1.784,2190.9700032000037,,,,,575,22,Woman,Right,
,,,,,,,,,,,,,,,,,575,22,Woman,Right,3,75,0.15,2,180,0,180,0.18780610000248998,['y'],0.7934298000036506,1.78,2194.253325800004,,,,,575,22,Woman,Right,
,,,,,,,,,,,,,,,,,575,22,Woman,Right,3,76,0.15,1,0,-,0,0.5210842000014964,['y'],0.9459027000048081,1.78,2198.7700036000024,,,,,575,22,Woman,Right,
,,,,,,,,,,,,,,,,,575,22,Woman,Right,3,39,0.4,2,180,0,180,1.4972801999974763,['n'],1.4490655999979936,1.78,2204.2040467999977,,,,,575,22,Woman,Right,
,,,,,,,,,,,,,,,,,575,22,Woman,Right,3,16,0.4,1,0,-,180,0.5499201000056928,['n'],0.7500247999996645,1.78,2208.069770599999,,,,,575,22,Woman,Right,
,,,,,,,,,,,,,,,,,575,22,Woman,Right,3,68,0.15,1,0,-,180,0.7654115999976057,['n'],0.79991660000087,1.78,2212.003130099998,,,,,575,22,Woman,Right,
,,,,,,,,,,,,,,,,,575,22,Woman,Right,3,32,0.4,1,0,-,180,2.138445900003717,['y'],1.1189713999992819,1.78,2217.6865043,,,,,575,22,Woman,Right,
,,,,,,,,,,,,,,,,,575,22,Woman,Right,3,38,0.4,1,180,-,180,0.36547389999759616,['y'],0.9665760999996564,1.78,2222.436485899998,,,,,575,22,Woman,Right,
,,,,,,,,,,,,,,,,,575,22,Woman,Right,3,29,0.4,2,0,180,0,1.954185900001903,['y'],0.7656816000016988,1.782,2227.620089099997,,,,,575,22,Woman,Right,
,,,,,,,,,,,,,,,,,575,22,Woman,Right,3,72,0.15,1,0,-,180,0.29011029999674065,['y'],0.7335956000024453,1.796,2231.703399500002,,,,,575,22,Woman,Right,
,,,,,,,,,,,,,,,,,575,22,Woman,Right,3,24,0.4,1,0,-,180,0.09024209999915911,['y'],0.5485906000030809,1.798,2234.6531650000034,,,,,575,22,Woman,Right,
,,,,,,,,,,,,,,,,,575,22,Woman,Right,3,66,0.15,1,180,-,180,0.016637000000628177,['y'],0.34979200000088895,1.798,2237.453151300004,,,,,575,22,Woman,Right,
,,,,,,,,,,,,,,,,,575,22,Woman,Right,3,58,0.15,1,180,-,180,0.8007301999969059,['y'],1.1876697999978205,1.8,2242.1367236000006,,,,,575,22,Woman,Right,
,,,,,,,,,,,,,,,,,575,22,Woman,Right,3,56,0.15,1,0,-,180,0.08781540000200039,['n'],0.3393112999983714,1.8,2245.236663900003,,,,,575,22,Woman,Right,
,,,,,,,,,,,,,,,,,575,22,Woman,Right,3,61,0.15,2,0,180,0,1.9709628999989945,['n'],1.1867864000014379,1.84,2251.986567,,,,,575,22,Woman,Right,
,,,,,,,,,,,,,,,,,575,22,Woman,Right,3,3,1,2,180,0,0,0.47846270000445656,['y'],1.3785055999978795,1.69,2256.386725700002,,,,,575,22,Woman,Right,
,,,,,,,,,,,,,,,,,575,22,Woman,Right,3,4,1,1,0,-,180,1.5030813999983366,['y'],1.185407099997974,1.818,2261.803656199998,,,,,575,22,Woman,Right,
,,,,,,,,,,,,,,,,,575,22,Woman,Right,3,23,0.4,2,180,0,0,0.6404159000012442,['y'],0.8250039000049583,1.958,2267.603721300002,,,,,575,22,Woman,Right,
,,,,,,,,,,,,,,,,,575,22,Woman,Right,3,78,0.15,1,180,-,180,0.4537840999983018,['y'],0.7765979999967385,1.8820000000000001,2272.453228999999,,,,,575,22,Woman,Right,
,,,,,,,,,,,,,,,,,575,22,Woman,Right,3,50,0.15,1,180,-,180,1.4830845999968005,['y'],0.9592105000047013,1.8439999999999999,2277.536598300001,,,,,575,22,Woman,Right,
,,,,,,,,,,,,,,,,,575,22,Woman,Right,3,30,0.4,1,180,-,180,0.3317447000008542,['y'],0.4307677999968291,1.8439999999999999,2281.3032166999983,,,,,575,22,Woman,Right,
,,,,,,,,,,,,,,,,,575,22,Woman,Right,3,25,0.4,2,0,180,0,0.016690900003595743,['y'],0.46029479999560863,1.806,2284.2699152999994,,,,,575,22,Woman,Right,
,,,,,,,,,,,,,,,,,575,22,Woman,Right,3,73,0.15,2,0,180,180,0.461966199996823,['n'],0.5656989999988582,1.862,2287.887102599998,,,,,575,22,Woman,Right,
,,,,,,,,,,,,,,,,,575,22,Woman,Right,3,20,0.4,1,0,-,180,0.9280397000038647,['n'],0.42221540000173263,1.834,2292.0702371000007,,,,,575,22,Woman,Right,
,,,,,,,,,,,,,,,,,575,22,Woman,Right,3,77,0.15,2,0,180,0,0.016605500000878237,['n'],0.4130226999986917,1.798,2295.2032516000036,,,,,575,22,Woman,Right,
,,,,,,,,,,,,,,,,,575,22,Woman,Right,3,19,0.4,2,180,0,180,1.7920986999961315,['y'],0.7083644999947865,1.754,2301.703723300001,,,,,575,22,Woman,Right,
,,,,,,,,,,,,,,,,,575,22,Woman,Right,3,10,0.4,1,180,-,0,0.26748960000259103,['n'],2.0196622000003117,1.782,2306.936574500003,,,,,575,22,Woman,Right,
,,,,,,,,,,,,,,,,,575,22,Woman,Right,3,70,0.15,1,180,-,180,1.3279682000065804,['y'],0.9545157999964431,1.8940000000000001,2312.4867833000026,,,,,575,22,Woman,Right,
,,,,,,,,,,,,,,,,,575,22,Woman,Right,4,8,0.4,1,0,-,180,0.22518480000144336,['y'],0.4948027999998885,1.846,2345.836734800003,57.5,32.5,75.0,,575,22,Woman,Right,
,,,,,,,,,,,,,,,,,575,22,Woman,Right,4,28,0.4,1,0,-,0,1.0832275000066147,['n'],1.6297535999983666,1.738,2351.3700121,,,,,575,22,Woman,Right,
,,,,,,,,,,,,,,,,,575,22,Woman,Right,4,66,0.15,1,180,-,180,0.8392668999949819,['y'],0.6696471000032034,1.67,2355.536694000002,,,,,575,22,Woman,Right,
,,,,,,,,,,,,,,,,,575,22,Woman,Right,4,51,0.15,2,180,0,180,0.39705099999991944,['y'],0.5739489999978105,1.67,2355.536694000002,,,,,575,22,Woman,Right,
,,,,,,,,,,,,,,,,,575,22,Woman,Right,4,76,0.15,1,0,-,0,0.016397400002460927,['n'],0.7012638000014704,1.5819999999999999,2362.2701314000005,,,,,575,22,Woman,Right,
,,,,,,,,,,,,,,,,,575,22,Woman,Right,4,38,0.4,1,180,-,180,0.016707399998267647,['y'],0.5733107999985805,1.65,2368.120258200004,,,,,575,22,Woman,Right,
,,,,,,,,,,,,,,,,,575,22,Woman,Right,4,54,0.15,1,180,-,180,1.9663180999996257,['y'],1.523300000000745,1.694,2375.7036297000013,,,,,575,22,Woman,Right,
,,,,,,,,,,,,,,,,,575,22,Woman,Right,4,56,0.15,1,0,-,0,0.4953581000008853,['y'],0.7947808999961126,1.74,2379.5868537999995,,,,,575,22,Woman,Right,
,,,,,,,,,,,,,,,,,575,22,Woman,Right,4,73,0.15,2,0,180,180,0.016750899994804058,['y'],0.5443831000011414,1.744,2382.553349900001,,,,,575,22,Woman,Right,
,,,,,,,,,,,,,,,,,575,22,Woman,Right,4,57,0.15,2,0,180,0,0.8577570000052219,['y'],0.7217560999997659,1.742,2386.420119000002,,,,,575,22,Woman,Right,
,,,,,,,,,,,,,,,,,575,22,Woman,Right,4,34,0.4,1,180,-,180,0.753001500001119,['y'],1.1613473999968846,1.742,2391.620314300002,,,,,575,22,Woman,Right,
,,,,,,,,,,,,,,,,,575,22,Woman,Right,4,10,0.4,1,180,-,0,0.7695508000033442,['y'],1.0325163000015891,1.748,2395.9867969999978,,,,,575,22,Woman,Right,
,,,,,,,,,,,,,,,,,575,22,Woman,Right,4,77,0.15,2,0,180,180,0.4221735000028275,['y'],1.0001626000012038,1.764,2399.870177099998,,,,,575,22,Woman,Right,
,,,,,,,,,,,,,,,,,575,22,Woman,Right,4,39,0.4,2,180,0,0,0.9780688999962877,['y'],0.8794841999988421,1.748,2404.720385599998,,,,,575,22,Woman,Right,
,,,,,,,,,,,,,,,,,575,22,Woman,Right,4,67,0.15,2,180,0,0,0.8095078999976977,['n'],2.462740399998438,1.752,2410.5537353000036,,,,,575,22,Woman,Right,
,,,,,,,,,,,,,,,,,575,22,Woman,Right,4,12,0.4,1,0,-,180,0.746673000001465,['n'],2.3261052000016207,1.754,2416.153440599999,,,,,575,22,Woman,Right,
,,,,,,,,,,,,,,,,,575,22,Woman,Right,4,61,0.15,2,0,180,0,0.2520188999988022,['y'],0.6534667999949306,1.722,2419.7871067000015,,,,,575,22,Woman,Right,
,,,,,,,,,,,,,,,,,575,22,Woman,Right,4,48,0.15,1,0,-,180,0.04515850000461796,['y'],0.6930050000009942,1.714,2422.9534808000026,,,,,575,22,Woman,Right,
,,,,,,,,,,,,,,,,,575,22,Woman,Right,4,14,0.4,1,180,-,0,0.01675490000343416,['y'],0.9370312000028207,1.714,2426.303420299999,,,,,575,22,Woman,Right,
,,,,,,,,,,,,,,,,,575,22,Woman,Right,4,23,0.4,2,180,0,0,0.01671619999979157,['y'],1.2668100000009872,1.714,2430.2369449000034,,,,,575,22,Woman,Right,
,,,,,,,,,,,,,,,,,575,22,Woman,Right,4,50,0.15,1,180,-,180,0.711885099997744,['y'],0.6835164000003715,1.738,2434.7534747000027,,,,,575,22,Woman,Right,
,,,,,,,,,,,,,,,,,575,22,Woman,Right,4,11,0.4,2,180,0,0,0.26946960000350373,['y'],0.5865285999971093,1.752,2438.8868755000003,,,,,575,22,Woman,Right,
,,,,,,,,,,,,,,,,,575,22,Woman,Right,4,47,0.15,2,180,0,0,0.3658886000048369,['y'],1.482326600002125,1.738,2443.337086300002,,,,,575,22,Woman,Right,
,,,,,,,,,,,,,,,,,575,22,Woman,Right,4,25,0.4,2,0,180,0,1.559490100000403,['y'],0.6821389000033378,1.734,2449.1371136000016,,,,,575,22,Woman,Right,
,,,,,,,,,,,,,,,,,575,22,Woman,Right,4,19,0.4,2,180,0,0,0.560816999997769,['n'],1.3212906999979168,1.734,2453.720403200001,,,,,575,22,Woman,Right,
,,,,,,,,,,,,,,,,,575,22,Woman,Right,4,65,0.15,2,0,180,180,0.9473042000026908,['n'],1.3046936999962782,1.45,2459.086907500001,,,,,575,22,Woman,Right,
,,,,,,,,,,,,,,,,,575,22,Woman,Right,4,1,1,2,0,180,180,0.6746792999983882,['y'],1.0320684999969671,1.698,2463.4372334,,,,,575,22,Woman,Right,
,,,,,,,,,,,,,,,,,575,22,Woman,Right,4,26,0.4,1,180,-,180,0.6569619000001694,['n'],1.0791319999989355,1.758,2467.853585800003,,,,,575,22,Woman,Right,
,,,,,,,,,,,,,,,,,575,22,Woman,Right,4,29,0.4,2,0,180,180,0.5459356999999727,['y'],0.702950899998541,1.816,2472.2035614999986,,,,,575,22,Woman,Right,
,,,,,,,,,,,,,,,,,575,22,Woman,Right,4,46,0.15,1,180,-,180,0.8711087999981828,['n'],1.0063090000039665,1.862,2476.6538043000037,,,,,575,22,Woman,Right,
,,,,,,,,,,,,,,,,,575,22,Woman,Right,4,68,0.15,1,0,-,180,0.10867900000448572,['y'],0.5182708000065759,1.862,2480.5369218999986,,,,,575,22,Woman,Right,
,,,,,,,,,,,,,,,,,575,22,Woman,Right,4,16,0.4,1,0,-,0,0.13847950000490528,['n'],1.2614524999953574,1.8559999999999999,2485.1202931000007,,,,,575,22,Woman,Right,
,,,,,,,,,,,,,,,,,575,22,Woman,Right,4,17,0.4,2,0,180,180,0.492695900000399,['n'],0.9890185000040219,1.8559999999999999,2489.6705593000006,,,,,575,22,Woman,Right,
,,,,,,,,,,,,,,,,,575,22,Woman,Right,4,74,0.15,1,180,-,0,1.4736836000010953,['y'],0.7240594000031706,1.8559999999999999,2494.287156300001,,,,,575,22,Woman,Right,
,,,,,,,,,,,,,,,,,575,22,Woman,Right,4,3,1,2,180,0,0,0.5612995999981649,['y'],0.6672765999974217,1.8559999999999999,2498.436972100004,,,,,575,22,Woman,Right,
,,,,,,,,,,,,,,,,,575,22,Woman,Right,4,49,0.15,2,0,180,180,0.2652581000002101,['y'],0.8832192000045325,1.8559999999999999,2502.136986999998,,,,,575,22,Woman,Right,
,,,,,,,,,,,,,,,,,575,22,Woman,Right,4,63,0.15,2,180,0,180,2.083256199999596,['y'],0.5939759999964735,1.8559999999999999,2507.1536952000024,,,,,575,22,Woman,Right,
,,,,,,,,,,,,,,,,,575,22,Woman,Right,4,33,0.4,2,0,180,0,0.3293400000038673,['y'],0.5781552999978885,1.8559999999999999,2510.487024599999,,,,,575,22,Woman,Right,
,,,,,,,,,,,,,,,,,575,22,Woman,Right,4,59,0.15,2,180,0,180,1.4502623000007588,['y'],0.49837660000048345,1.8559999999999999,2514.7869726999998,,,,,575,22,Woman,Right,
,,,,,,,,,,,,,,,,,575,22,Woman,Right,4,58,0.15,1,180,-,0,0.01672819999657804,['y'],1.4230037999950582,1.866,2518.753686199998,,,,,575,22,Woman,Right,
,,,,,,,,,,,,,,,,,575,22,Woman,Right,4,60,0.15,1,0,-,180,0.12126250000437722,['y'],0.5209961000000476,1.786,2524.437039999997,,,,,575,22,Woman,Right,
,,,,,,,,,,,,,,,,,575,22,Woman,Right,4,43,0.4,2,180,0,0,0.01648879999993369,['y'],0.5118140999984462,1.822,2527.3370056999993,,,,,575,22,Woman,Right,
,,,,,,,,,,,,,,,,,575,22,Woman,Right,4,75,0.15,2,180,0,180,0.016924400006246287,['n'],1.5290225999997347,1.822,2531.3045582999985,,,,,575,22,Woman,Right,
,,,,,,,,,,,,,,,,,575,22,Woman,Right,4,35,0.4,2,180,0,180,0.01671679999708431,['y'],0.44913040000392357,1.824,2534.4541867000007,,,,,575,22,Woman,Right,
,,,,,,,,,,,,,,,,,575,22,Woman,Right,4,64,0.15,1,0,-,0,0.01668529999733437,['y'],0.5071556999973836,1.824,2537.420340299999,,,,,575,22,Woman,Right,
,,,,,,,,,,,,,,,,,575,22,Woman,Right,4,70,0.15,1,180,-,180,0.03887110000505345,['y'],0.3662968999997247,1.826,2540.3370885999975,,,,,575,22,Woman,Right,
,,,,,,,,,,,,,,,,,575,22,Woman,Right,4,78,0.15,1,180,-,180,0.2180711999972118,['y'],0.9581027000022004,1.6019999999999999,2543.8038796000037,,,,,575,22,Woman,Right,
,,,,,,,,,,,,,,,,,575,22,Woman,Right,4,37,0.4,2,0,180,0,0.10700160000124015,['y'],0.557763700002397,1.604,2547.0204446999996,,,,,575,22,Woman,Right,
,,,,,,,,,,,,,,,,,575,22,Woman,Right,4,2,1,1,180,-,180,1.297611499998311,['y'],0.636832999996841,1.608,2551.4203022,,,,,575,22,Woman,Right,
,,,,,,,,,,,,,,,,,575,22,Woman,Right,4,0,1,1,0,-,180,0.5523002999980235,['y'],0.6923166999986279,1.6099999999999999,2555.237122999999,,,,,575,22,Woman,Right,
,,,,,,,,,,,,,,,,,575,22,Woman,Right,4,53,0.15,2,0,180,180,0.6336985999951139,['y'],0.39593500000046333,1.616,2559.137923800001,,,,,575,22,Woman,Right,
,,,,,,,,,,,,,,,,,575,22,Woman,Right,4,30,0.4,1,180,-,0,1.7609334999942803,['n'],0.6674216000028537,1.6219999999999999,2565.7371258999992,,,,,575,22,Woman,Right,
,,,,,,,,,,,,,,,,,575,22,Woman,Right,4,44,0.15,1,0,-,0,0.9793042999954196,['y'],0.6186030000026221,1.698,2570.1871060999983,,,,,575,22,Woman,Right,
,,,,,,,,,,,,,,,,,575,22,Woman,Right,4,40,0.4,1,0,-,180,0.117530399998941,['y'],1.0741794999994454,1.714,2574.1203774000023,,,,,575,22,Woman,Right,
,,,,,,,,,,,,,,,,,575,22,Woman,Right,4,5,1,2,0,180,180,0.4127163000011933,['y'],0.8415801000010106,1.796,2578.3705902,,,,,575,22,Woman,Right,
,,,,,,,,,,,,,,,,,575,22,Woman,Right,4,79,0.15,2,180,0,180,0.2539988999997149,['y'],0.5049011000010069,1.762,2582.2873220999973,,,,,575,22,Woman,Right,
,,,,,,,,,,,,,,,,,575,22,Woman,Right,4,4,1,1,0,-,180,0.13349939999898197,['y'],1.190848599995661,1.722,2586.570432100001,,,,,575,22,Woman,Right,
,,,,,,,,,,,,,,,,,575,22,Woman,Right,4,6,1,1,180,-,180,0.06370669999887468,['y'],0.48791600000549806,1.728,2589.937108899998,,,,,575,22,Woman,Right,
,,,,,,,,,,,,,,,,,575,22,Woman,Right,4,27,0.4,2,180,0,180,0.09367710000515217,['y'],0.41551569999865023,1.746,2592.7707214999973,,,,,575,22,Woman,Right,
,,,,,,,,,,,,,,,,,575,22,Woman,Right,4,21,0.4,2,0,180,180,0.025298799999291077,['y'],0.39900740000302903,1.75,2595.570523299997,,,,,575,22,Woman,Right,
,,,,,,,,,,,,,,,,,575,22,Woman,Right,4,55,0.15,2,180,0,180,0.6970770000043558,['y'],1.3585059000033652,1.752,2600.0708454999985,,,,,575,22,Woman,Right,
,,,,,,,,,,,,,,,,,575,22,Woman,Right,4,42,0.4,1,180,-,180,0.05325230000016745,['y'],0.5506123000013758,1.752,2603.2037375,,,,,575,22,Woman,Right,
,,,,,,,,,,,,,,,,,575,22,Woman,Right,4,36,0.4,1,0,-,0,1.1050557999988087,['y'],0.5741007000033278,1.754,2607.253826,,,,,575,22,Woman,Right,
,,,,,,,,,,,,,,,,,575,22,Woman,Right,4,20,0.4,1,0,-,180,0.016726800000469666,['y'],0.3956529999995837,1.754,2610.153832199998,,,,,575,22,Woman,Right,
,,,,,,,,,,,,,,,,,575,22,Woman,Right,4,9,0.4,2,0,180,0,1.0025034999998752,['y'],0.4449679999961518,1.754,2614.0213785000014,,,,,575,22,Woman,Right,
,,,,,,,,,,,,,,,,,575,22,Woman,Right,4,41,0.4,2,0,180,180,0.6344354999964708,['n'],1.4688491999986582,1.754,2618.6705948000017,,,,,575,22,Woman,Right,
,,,,,,,,,,,,,,,,,575,22,Woman,Right,4,71,0.15,2,180,0,180,0.9048849000027985,['n'],1.2923704999993788,1.754,2623.703900200002,,,,,575,22,Woman,Right,
,,,,,,,,,,,,,,,,,575,22,Woman,Right,4,7,1,2,180,0,0,0.5667482999997446,['y'],1.0161781999995583,1.754,2628.1374493999974,,,,,575,22,Woman,Right,
,,,,,,,,,,,,,,,,,575,22,Woman,Right,4,69,0.15,2,0,180,180,0.854052300004696,['n'],1.930603799999517,1.79,2633.720452100002,,,,,575,22,Woman,Right,
,,,,,,,,,,,,,,,,,575,22,Woman,Right,4,22,0.4,1,180,-,180,3.199675299998489,['n'],0.921802499993646,1.796,2640.804039900002,,,,,575,22,Woman,Right,
,,,,,,,,,,,,,,,,,575,22,Woman,Right,4,15,0.4,2,180,0,180,2.796235499998147,['y'],0.7287853999951039,1.904,2648.2206210000004,,,,,575,22,Woman,Right,
,,,,,,,,,,,,,,,,,575,22,Woman,Right,4,62,0.15,1,180,-,180,1.920061100005114,['y'],0.7843873000019812,1.808,2653.903959000003,,,,,575,22,Woman,Right,
,,,,,,,,,,,,,,,,,575,22,Woman,Right,4,18,0.4,1,180,-,0,0.4926183999996283,['y'],0.5280304000043543,1.788,2658.3207594999985,,,,,575,22,Woman,Right,
,,,,,,,,,,,,,,,,,575,22,Woman,Right,4,32,0.4,1,0,-,180,0.19291839999641525,['y'],0.5431666000004043,1.784,2661.5872633000035,,,,,575,22,Woman,Right,
,,,,,,,,,,,,,,,,,575,22,Woman,Right,4,31,0.4,2,180,0,180,0.01675950000208104,['y'],0.6447972000023583,1.788,2665.0041224000015,,,,,575,22,Woman,Right,
,,,,,,,,,,,,,,,,,575,22,Woman,Right,4,52,0.15,1,0,-,0,0.12920360000134679,['y'],0.606410299995332,1.794,2668.303856700004,,,,,575,22,Woman,Right,
,,,,,,,,,,,,,,,,,575,22,Woman,Right,4,72,0.15,1,0,-,180,1.8326801000002888,['y'],0.5498245999988285,1.798,2673.3041223000037,,,,,575,22,Woman,Right,
,,,,,,,,,,,,,,,,,575,22,Woman,Right,4,24,0.4,1,0,-,0,1.5185035000031348,['y'],0.6453856000007363,1.786,2678.0040947000016,,,,,575,22,Woman,Right,
,,,,,,,,,,,,,,,,,575,22,Woman,Right,4,13,0.4,2,0,180,180,1.1373126999969827,['y'],1.0121796000021277,1.824,2683.3705457000033,,,,,575,22,Woman,Right,
,,,,,,,,,,,,,,,,,575,22,Woman,Right,4,45,0.15,2,0,180,0,0.2777988000016194,['y'],0.6515720000024885,1.832,2686.8039628999977,,,,,575,22,Woman,Right,
,,,,,,,,,,,,,,,,,575,22,Woman,Right,5,53,0.15,2,0,180,0,0.3261103999975603,['y'],0.6005747000017436,1.8900000000000001,2712.170627300002,56.25,20.0,80.0,,575,22,Woman,Right,
,,,,,,,,,,,,,,,,,575,22,Woman,Right,5,78,0.15,1,180,-,180,0.4897530000016559,['y'],0.5682199999937438,1.8900000000000001,2715.570852900004,,,,,575,22,Woman,Right,
,,,,,,,,,,,,,,,,,575,22,Woman,Right,5,17,0.4,2,0,180,0,0.4872445999935735,['y'],0.8482456000056118,1.8820000000000001,2719.2878289,,,,,575,22,Woman,Right,
,,,,,,,,,,,,,,,,,575,22,Woman,Right,5,60,0.15,1,0,-,180,0.14101210000080755,['n'],0.7509672999949544,1.612,2722.637676700004,,,,,575,22,Woman,Right,
,,,,,,,,,,,,,,,,,575,22,Woman,Right,5,19,0.4,2,180,0,180,1.1278000000020256,['y'],2.0783413000026485,1.514,2728.937275299999,,,,,575,22,Woman,Right,
,,,,,,,,,,,,,,,,,575,22,Woman,Right,5,63,0.15,2,180,0,0,1.3899988000048324,['y'],0.5820410999949672,1.514,2733.554045099998,,,,,575,22,Woman,Right,
,,,,,,,,,,,,,,,,,575,22,Woman,Right,5,69,0.15,2,0,180,0,0.22297080000134883,['y'],0.7579629000028945,1.5979999999999999,2737.054869600004,,,,,575,22,Woman,Right,
,,,,,,,,,,,,,,,,,575,22,Woman,Right,5,44,0.15,1,0,-,180,0.4615302000020165,['n'],0.42087139999784995,1.6179999999999999,2740.537286999999,,,,,575,22,Woman,Right,
,,,,,,,,,,,,,,,,,575,22,Woman,Right,5,13,0.4,2,0,180,0,1.264718400001584,['y'],0.4687268999987282,1.62,2744.9708599000005,,,,,575,22,Woman,Right,
,,,,,,,,,,,,,,,,,575,22,Woman,Right,5,31,0.4,2,180,0,0,0.5888765000054264,['y'],0.8685781000021962,1.62,2748.720913199999,,,,,575,22,Woman,Right,
,,,,,,,,,,,,,,,,,575,22,Woman,Right,5,62,0.15,1,180,-,180,0.27222859999892535,['y'],1.8118633999984013,1.5939999999999999,2753.2543148999976,,,,,575,22,Woman,Right,
,,,,,,,,,,,,,,,,,575,22,Woman,Right,5,16,0.4,1,0,-,180,0.03328000000328757,['y'],0.6038281000001007,1.5979999999999999,2758.387287400001,,,,,575,22,Woman,Right,
,,,,,,,,,,,,,,,,,575,22,Woman,Right,5,24,0.4,1,0,-,0,0.5385731999995187,['y'],0.578464600002917,1.6019999999999999,2761.954296099997,,,,,575,22,Woman,Right,
,,,,,,,,,,,,,,,,,575,22,Woman,Right,5,1,1,2,0,180,180,1.7063452000002144,['n'],2.369607200002065,1.6059999999999999,2768.6873915000033,,,,,575,22,Woman,Right,
,,,,,,,,,,,,,,,,,575,22,Woman,Right,5,32,0.4,1,0,-,0,0.6384877000018605,['y'],0.832758600001398,1.6,2772.837339700003,,,,,575,22,Woman,Right,
,,,,,,,,,,,,,,,,,575,22,Woman,Right,5,65,0.15,2,0,180,180,0.03579809999791905,['y'],0.7129640999992262,1.6,2775.970998900004,,,,,575,22,Woman,Right,
,,,,,,,,,,,,,,,,,575,22,Woman,Right,5,25,0.4,2,0,180,0,1.7546317000014824,['y'],0.7278011000016704,1.5779999999999998,2780.8207877000023,,,,,575,22,Woman,Right,
,,,,,,,,,,,,,,,,,575,22,Woman,Right,5,68,0.15,1,0,-,180,0.016719899998861365,['y'],0.5928031000003102,1.5779999999999998,2784.070828099997,,,,,575,22,Woman,Right,
,,,,,,,,,,,,,,,,,575,22,Woman,Right,5,5,1,2,0,180,180,0.07318119999399642,['y'],0.7032397000002675,1.678,2788.4874380000037,,,,,575,22,Woman,Right,
,,,,,,,,,,,,,,,,,575,22,Woman,Right,5,67,0.15,2,180,0,180,0.5290807999990648,['y'],0.4946755999990273,1.6560000000000001,2792.7708943000034,,,,,575,22,Woman,Right,
,,,,,,,,,,,,,,,,,575,22,Woman,Right,5,61,0.15,2,0,180,0,1.7240425999989384,['y'],0.5335576999932528,1.6600000000000001,2797.387477600001,,,,,575,22,Woman,Right,
,,,,,,,,,,,,,,,,,575,22,Woman,Right,5,6,1,1,180,-,180,0.13080790000094566,['y'],0.5579361000054632,1.6600000000000001,2800.4040645999994,,,,,575,22,Woman,Right,
,,,,,,,,,,,,,,,,,575,22,Woman,Right,5,72,0.15,1,0,-,180,0.01668969999445835,['y'],0.40615499999694293,1.6600000000000001,2803.2376073999985,,,,,575,22,Woman,Right,
,,,,,,,,,,,,,,,,,575,22,Woman,Right,5,52,0.15,1,0,-,0,0.1922017999968375,['y'],0.524860899997293,1.662,2806.3710212000005,,,,,575,22,Woman,Right,
,,,,,,,,,,,,,,,,,575,22,Woman,Right,5,28,0.4,1,0,-,180,0.8113509000031627,['y'],0.6207510000022012,1.666,2810.1875177999973,,,,,575,22,Woman,Right,
,,,,,,,,,,,,,,,,,575,22,Woman,Right,5,18,0.4,1,180,-,180,1.3594042000040645,['y'],0.4839360999976634,1.6600000000000001,2814.487490899999,,,,,575,22,Woman,Right,
,,,,,,,,,,,,,,,,,575,22,Woman,Right,5,41,0.4,2,0,180,0,0.016778100005467422,['y'],0.43436020000081044,1.684,2817.9374406999996,,,,,575,22,Woman,Right,
,,,,,,,,,,,,,,,,,575,22,Woman,Right,5,71,0.15,2,180,0,180,1.4922388999984832,['y'],0.5388912999987951,1.702,2822.6708684999976,,,,,575,22,Woman,Right,
,,,,,,,,,,,,,,,,,575,22,Woman,Right,5,58,0.15,1,180,-,0,0.39524590000655735,['y'],0.4987466000020504,1.704,2825.837582699998,,,,,575,22,Woman,Right,
,,,,,,,,,,,,,,,,,575,22,Woman,Right,5,36,0.4,1,0,-,180,0.32303069999761647,['y'],0.42650480000156676,1.704,2828.9208805000017,,,,,575,22,Woman,Right,
,,,,,,,,,,,,,,,,,575,22,Woman,Right,5,64,0.15,1,0,-,180,1.018186399996921,['n'],0.5215188000001945,1.704,2828.9208805000017,,,,,575,22,Woman,Right,
,,,,,,,,,,,,,,,,,575,22,Woman,Right,5,54,0.15,1,180,-,0,0.05289769999944838,['n'],0.9292825000011362,1.706,2836.104267100003,,,,,575,22,Woman,Right,
,,,,,,,,,,,,,,,,,575,22,Woman,Right,5,56,0.15,1,0,-,180,0.23028290000365814,['n'],0.7688829999970039,1.714,2840.6209691999975,,,,,575,22,Woman,Right,
,,,,,,,,,,,,,,,,,575,22,Woman,Right,5,8,0.4,1,0,-,180,0.29569379999884404,['y'],0.6480044999989332,1.716,2844.5044406000015,,,,,575,22,Woman,Right,
,,,,,,,,,,,,,,,,,575,22,Woman,Right,5,73,0.15,2,0,180,0,0.4426166999983252,['n'],0.9197091000023647,1.712,2848.337540200002,,,,,575,22,Woman,Right,
,,,,,,,,,,,,,,,,,575,22,Woman,Right,5,0,1,1,0,-,180,0.016746199995395727,['y'],1.3738413000028231,1.73,2852.537496099998,,,,,575,22,Woman,Right,
,,,,,,,,,,,,,,,,,575,22,Woman,Right,5,46,0.15,1,180,-,180,0.17228520000207936,['n'],0.8066682999997283,1.732,2856.0209025000004,,,,,575,22,Woman,Right,
,,,,,,,,,,,,,,,,,575,22,Woman,Right,5,45,0.15,2,0,180,0,0.9321782000042731,['n'],0.7744189000004553,1.74,2861.070885400004,,,,,575,22,Woman,Right,
,,,,,,,,,,,,,,,,,575,22,Woman,Right,5,55,0.15,2,180,0,180,0.07138629999826662,['y'],0.6219514999975218,1.742,2864.7044755000024,,,,,575,22,Woman,Right,
,,,,,,,,,,,,,,,,,575,22,Woman,Right,5,7,1,2,180,0,0,0.516492399998242,['y'],0.7910373000049731,1.736,2868.3875904000015,,,,,575,22,Woman,Right,
,,,,,,,,,,,,,,,,,575,22,Woman,Right,5,75,0.15,2,180,0,180,0.19496119999530492,['y'],1.0769151999993483,1.814,2872.0711483999985,,,,,575,22,Woman,Right,
,,,,,,,,,,,,,,,,,575,22,Woman,Right,5,42,0.4,1,180,-,180,1.7536632000046666,['n'],0.6921492000037688,1.82,2876.9877694000024,,,,,575,22,Woman,Right,
,,,,,,,,,,,,,,,,,575,22,Woman,Right,5,74,0.15,1,180,-,180,0.07392190000246046,['y'],1.0199652000010246,1.82,2881.087601600004,,,,,575,22,Woman,Right,
,,,,,,,,,,,,,,,,,575,22,Woman,Right,5,10,0.4,1,180,-,0,0.3456912999972701,['n'],0.9386689000020851,1.79,2884.6876021999997,,,,,575,22,Woman,Right,
,,,,,,,,,,,,,,,,,575,22,Woman,Right,5,33,0.4,2,0,180,0,2.0429128000032506,['y'],0.6980038999972749,1.806,2889.954904500002,,,,,575,22,Woman,Right,
,,,,,,,,,,,,,,,,,575,22,Woman,Right,5,2,1,1,180,-,180,0.06167849999474129,['y'],0.36980030000268016,1.81,2892.821232800001,,,,,575,22,Woman,Right,
,,,,,,,,,,,,,,,,,575,22,Woman,Right,5,51,0.15,2,180,0,180,0.016735199998947792,['y'],0.7962446999954409,1.81,2895.937649899999,,,,,575,22,Woman,Right,
,,,,,,,,,,,,,,,,,575,22,Woman,Right,5,79,0.15,2,180,0,180,0.22979290000512265,['y'],0.4250791000013123,1.814,2899.154326099997,,,,,575,22,Woman,Right,
,,,,,,,,,,,,,,,,,575,22,Woman,Right,5,66,0.15,1,180,-,0,1.3667405000014696,['y'],1.7686957999976585,1.732,2905.2210338000004,,,,,575,22,Woman,Right,
,,,,,,,,,,,,,,,,,575,22,Woman,Right,5,11,0.4,2,180,0,0,0.6416969999991124,['y'],0.839638899997226,1.73,2909.587604100001,,,,,575,22,Woman,Right,
,,,,,,,,,,,,,,,,,575,22,Woman,Right,5,14,0.4,1,180,-,180,0.16170079999574227,['y'],0.5834745000029216,1.73,2912.5712313999975,,,,,575,22,Woman,Right,
,,,,,,,,,,,,,,,,,575,22,Woman,Right,5,35,0.4,2,180,0,0,0.2664446999988286,['y'],0.543303400001605,1.728,2915.6875997000025,,,,,575,22,Woman,Right,
,,,,,,,,,,,,,,,,,575,22,Woman,Right,5,76,0.15,1,0,-,180,0.2933936000044923,['n'],0.5507905999984359,1.73,2918.937858999998,,,,,575,22,Woman,Right,
,,,,,,,,,,,,,,,,,575,22,Woman,Right,5,9,0.4,2,0,180,180,1.1791863999969792,['y'],0.5746617000040715,1.732,2923.0709887999983,,,,,575,22,Woman,Right,
,,,,,,,,,,,,,,,,,575,22,Woman,Right,5,30,0.4,1,180,-,0,0.01651099999435246,['y'],0.6228375999999116,1.732,2926.0211855000016,,,,,575,22,Woman,Right,
,,,,,,,,,,,,,,,,,575,22,Woman,Right,5,40,0.4,1,0,-,180,0.01667509999970207,['n'],0.8735726000013528,1.732,2929.187711999999,,,,,575,22,Woman,Right,
,,,,,,,,,,,,,,,,,575,22,Woman,Right,5,29,0.4,2,0,180,180,0.6684911999982432,['y'],0.42083500000444474,1.738,2932.7043177000014,,,,,575,22,Woman,Right,
,,,,,,,,,,,,,,,,,575,22,Woman,Right,5,50,0.15,1,180,-,0,0.01671889999852283,['n'],1.1301949999979115,1.738,2936.6876451999997,,,,,575,22,Woman,Right,
,,,,,,,,,,,,,,,,,575,22,Woman,Right,5,37,0.4,2,0,180,0,1.1537928999969154,['n'],1.3399551000038628,1.738,2941.9210201000024,,,,,575,22,Woman,Right,
,,,,,,,,,,,,,,,,,575,22,Woman,Right,5,48,0.15,1,0,-,180,0.8919300999987172,['y'],0.46722639999643434,1.74,2945.754295400002,,,,,575,22,Woman,Right,
,,,,,,,,,,,,,,,,,575,22,Woman,Right,5,27,0.4,2,180,0,0,0.016767699999036267,['y'],0.5201776999965659,1.744,2948.6212161000003,,,,,575,22,Woman,Right,
,,,,,,,,,,,,,,,,,575,22,Woman,Right,5,22,0.4,1,180,-,180,1.5402459999968414,['y'],0.4267656999945757,1.746,2952.9211821999997,,,,,575,22,Woman,Right,
,,,,,,,,,,,,,,,,,575,22,Woman,Right,5,26,0.4,1,180,-,0,1.6633708000008482,['n'],0.37084100000356557,1.746,2957.5210843000023,,,,,575,22,Woman,Right,
,,,,,,,,,,,,,,,,,575,22,Woman,Right,5,3,1,2,180,0,0,0.424648200001684,['y'],0.9453542999981437,1.746,2962.1046999000027,,,,,575,22,Woman,Right,
,,,,,,,,,,,,,,,,,575,22,Woman,Right,5,15,0.4,2,180,0,0,1.29869549999421,['y'],0.6487845000010566,1.746,2966.355341800001,,,,,575,22,Woman,Right,
,,,,,,,,,,,,,,,,,575,22,Woman,Right,5,34,0.4,1,180,-,0,1.1056697999956668,['n'],3.5442670000047656,1.75,2973.404441300001,,,,,575,22,Woman,Right,
,,,,,,,,,,,,,,,,,575,22,Woman,Right,5,59,0.15,2,180,0,180,0.45527510000101756,['y'],1.535459400001855,1.75,2978.321358699999,,,,,575,22,Woman,Right,
,,,,,,,,,,,,,,,,,575,22,Woman,Right,5,23,0.4,2,180,0,0,1.3225719000038225,['y'],0.9670656000016606,1.746,2983.0211992999975,,,,,575,22,Woman,Right,
,,,,,,,,,,,,,,,,,575,22,Woman,Right,5,47,0.15,2,180,0,180,0.08746320000500418,['y'],0.43032859999948414,1.746,2985.854688600004,,,,,575,22,Woman,Right,
,,,,,,,,,,,,,,,,,575,22,Woman,Right,5,49,0.15,2,0,180,0,0.01670410000224365,['n'],2.172694100001536,1.428,2990.804731199998,,,,,575,22,Woman,Right,
,,,,,,,,,,,,,,,,,575,22,Woman,Right,5,77,0.15,2,0,180,180,0.38869359999807784,['n'],1.1413889999967068,1.338,2995.0044855000015,,,,,575,22,Woman,Right,
,,,,,,,,,,,,,,,,,575,22,Woman,Right,5,70,0.15,1,180,-,180,0.9379417000018293,['n'],0.6206485000002431,1.29,2999.421168300003,,,,,575,22,Woman,Right,
,,,,,,,,,,,,,,,,,575,22,Woman,Right,5,43,0.4,2,180,0,0,1.0859734999976354,['y'],1.0679636999993818,1.3399999999999999,3004.0547799999986,,,,,575,22,Woman,Right,
,,,,,,,,,,,,,,,,,575,22,Woman,Right,5,12,0.4,1,0,-,0,0.33819420000509126,['n'],1.0036380999954417,1.412,3008.854801900001,,,,,575,22,Woman,Right,
,,,,,,,,,,,,,,,,,575,22,Woman,Right,5,4,1,1,0,-,180,2.6215236999996705,['y'],0.30679260000033537,1.484,3014.9214990000037,,,,,575,22,Woman,Right,
,,,,,,,,,,,,,,,,,575,22,Woman,Right,5,57,0.15,2,0,180,180,0.5997181999991881,['y'],0.9143427000017255,1.58,3019.387784300001,,,,,575,22,Woman,Right,
,,,,,,,,,,,,,,,,,575,22,Woman,Right,5,38,0.4,1,180,-,180,1.3743551000006846,['y'],0.4975103999968269,1.5859999999999999,3023.621134599998,,,,,575,22,Woman,Right,
,,,,,,,,,,,,,,,,,575,22,Woman,Right,5,21,0.4,2,0,180,180,0.921980999999505,['y'],0.6091016999998828,1.5859999999999999,3027.487907100003,,,,,575,22,Woman,Right,
,,,,,,,,,,,,,,,,,575,22,Woman,Right,5,39,0.4,2,180,0,0,0.2669363999957568,['y'],0.8726986000037869,1.588,3031.1378829000023,,,,,575,22,Woman,Right,
,,,,,,,,,,,,,,,,,575,22,Woman,Right,5,20,0.4,1,0,-,0,1.6286129000000074,['y'],0.5281723000007332,1.588,3035.5545730000013,,,,,575,22,Woman,Right,
,,,,,,,,,,,,,,,,,,,,,,,,,,,,,,,,,45.0,37.5,85.0,2489.5015885999965,,,,,
