p_block,p_section,p_coherence,p_direction1,p_direction2,p_direction_response,p_direction_RT,p_change_response,p_change_RT,p_confidence,p_full_correct,p_without5_correct,p_full_total,p_without5_total,p_full_avg,p_witout5_avg,p_total_time,sub,age,sex,handedness,loop,trial randomization,coherence,condition,direction1,direction2,direction_response,direction_RT,change_response,change_RT,change_confidence,change_confidence_RT,block_direction_avg,block_stable_avg,block_change_avg,total_time,sub,age,sex,handedness,
1,1,1.0,180,-,180,1.2228001999974367,-,-,-,,,,,,,,516,19,Woman,Right,,,,,,,,,,,,,,,,,516,19,Woman,Right,
1,1,1.0,180,-,180,0.016983299996354617,-,-,-,,,,,,,,516,19,Woman,Right,,,,,,,,,,,,,,,,,516,19,Woman,Right,
1,1,1.0,0,-,0,0.3047202000016114,-,-,-,,,,,,,,516,19,Woman,Right,,,,,,,,,,,,,,,,,516,19,Woman,Right,
1,1,1.0,180,-,180,0.016560000003664754,-,-,-,,,,,,,,516,19,Woman,Right,,,,,,,,,,,,,,,,,516,19,Woman,Right,
1,1,1.0,180,-,180,0.016731600000639446,-,-,-,,,,,,,,516,19,Woman,Right,,,,,,,,,,,,,,,,,516,19,Woman,Right,
1,1,1.0,0,-,0,0.01674190000630915,-,-,-,,,,,,,,516,19,Woman,Right,,,,,,,,,,,,,,,,,516,19,Woman,Right,
1,1,1.0,0,-,0,0.0762204999991809,-,-,-,,,,,,,,516,19,Woman,Right,,,,,,,,,,,,,,,,,516,19,Woman,Right,
1,1,1.0,180,-,180,3.9795512999990024,-,-,-,,,,,,,,516,19,Woman,Right,,,,,,,,,,,,,,,,,516,19,Woman,Right,
1,1,1.0,0,-,0,0.21492059999582125,-,-,-,,,,,,,,516,19,Woman,Right,,,,,,,,,,,,,,,,,516,19,Woman,Right,
1,1,1.0,180,-,180,0.06714270000520628,-,-,-,10,10,10,10,1.0,1.0,,516,19,Woman,Right,,,,,,,,,,,,,,,,,516,19,Woman,Right,
2,1,0.4,180,-,180,0.602054599999974,-,-,-,,,,,,,,516,19,Woman,Right,,,,,,,,,,,,,,,,,516,19,Woman,Right,
2,1,0.15,180,-,180,0.2290422000005492,-,-,-,,,,,,,,516,19,Woman,Right,,,,,,,,,,,,,,,,,516,19,Woman,Right,
2,1,0.4,180,-,180,0.07931449999887263,-,-,-,,,,,,,,516,19,Woman,Right,,,,,,,,,,,,,,,,,516,19,Woman,Right,
2,1,0.15,0,-,0,0.017412900000636,-,-,-,,,,,,,,516,19,Woman,Right,,,,,,,,,,,,,,,,,516,19,Woman,Right,
2,1,0.4,0,-,180,0.6716224999981932,-,-,-,,,,,,,,516,19,Woman,Right,,,,,,,,,,,,,,,,,516,19,Woman,Right,
2,1,0.15,0,-,0,0.6952877000003355,-,-,-,,,,,,,,516,19,Woman,Right,,,,,,,,,,,,,,,,,516,19,Woman,Right,
2,1,0.4,180,-,180,0.01633120000042254,-,-,-,,,,,,,,516,19,Woman,Right,,,,,,,,,,,,,,,,,516,19,Woman,Right,
2,1,0.15,0,-,180,0.32813009999517817,-,-,-,,,,,,,,516,19,Woman,Right,,,,,,,,,,,,,,,,,516,19,Woman,Right,
2,1,0.15,0,-,0,0.029770900000585243,-,-,-,,,,,,,,516,19,Woman,Right,,,,,,,,,,,,,,,,,516,19,Woman,Right,
2,1,0.4,0,-,0,0.3117966999998316,-,-,-,8,4,10,5,0.8,0.8,,516,19,Woman,Right,,,,,,,,,,,,,,,,,516,19,Woman,Right,
3,2,1.0,0,180,180,0.8190315000028932,['y'],4.778655900001468,1.8980000000000001,,,,,,,,516,19,Woman,Right,,,,,,,,,,,,,,,,,516,19,Woman,Right,
3,2,1.0,0,180,180,0.8440675000019837,['y'],0.8693258999992395,1.908,,,,,,,,516,19,Woman,Right,,,,,,,,,,,,,,,,,516,19,Woman,Right,
3,2,1.0,0,180,180,0.6573884000026737,['y'],0.8903203999943798,1.9,,,,,,,,516,19,Woman,Right,,,,,,,,,,,,,,,,,516,19,Woman,Right,
3,2,1.0,0,180,180,0.8622925999952713,['y'],0.9765913999945042,1.8679999999999999,,,,,,,,516,19,Woman,Right,,,,,,,,,,,,,,,,,516,19,Woman,Right,
3,2,1.0,0,180,180,0.4724562999981572,['y'],1.851500799995847,1.8780000000000001,,,,,,,,516,19,Woman,Right,,,,,,,,,,,,,,,,,516,19,Woman,Right,
3,2,1.0,0,180,180,0.3306540000048699,['y'],1.5019184999982826,1.926,,,,,,,,516,19,Woman,Right,,,,,,,,,,,,,,,,,516,19,Woman,Right,
3,2,1.0,0,180,180,0.3508933999983128,['y'],0.8334227000013925,1.884,,,,,,,,516,19,Woman,Right,,,,,,,,,,,,,,,,,516,19,Woman,Right,
3,2,1.0,180,0,0,0.7023898000043118,['y'],0.7650768999956199,1.942,,,,,,,,516,19,Woman,Right,,,,,,,,,,,,,,,,,516,19,Woman,Right,
3,2,1.0,0,180,180,0.37955280000460334,['y'],1.2776763000001665,1.876,,,,,,,,516,19,Woman,Right,,,,,,,,,,,,,,,,,516,19,Woman,Right,
3,2,1.0,0,180,180,0.3021452999964822,['y'],1.237683699997433,1.884,10,10,10,10,1.0,1.0,,516,19,Woman,Right,,,,,,,,,,,,,,,,,516,19,Woman,Right,
4,2,0.4,180,0,0,1.2126422000001185,['y'],1.7303831999961403,1.956,,,,,,,,516,19,Woman,Right,,,,,,,,,,,,,,,,,516,19,Woman,Right,
4,2,0.15,0,180,180,2.9054294000015943,['n'],1.7409965000042575,1.354,,,,,,,,516,19,Woman,Right,,,,,,,,,,,,,,,,,516,19,Woman,Right,
4,2,0.15,0,180,0,1.0146024999994552,['y'],0.7513653999994858,1.2,,,,,,,,516,19,Woman,Right,,,,,,,,,,,,,,,,,516,19,Woman,Right,
4,2,0.15,180,0,0,1.030303500003356,['y'],0.686819700000342,1.6320000000000001,,,,,,,,516,19,Woman,Right,,,,,,,,,,,,,,,,,516,19,Woman,Right,
4,2,0.4,180,0,0,0.5251436999969883,['y'],0.44294999999692664,1.708,,,,,,,,516,19,Woman,Right,,,,,,,,,,,,,,,,,516,19,Woman,Right,
4,2,0.4,180,0,0,0.4752251000027172,['y'],1.5466176999980235,1.742,,,,,,,,516,19,Woman,Right,,,,,,,,,,,,,,,,,516,19,Woman,Right,
4,2,0.15,180,0,180,0.6609024999997928,['y'],0.6150211999993189,1.13,,,,,,,,516,19,Woman,Right,,,,,,,,,,,,,,,,,516,19,Woman,Right,
4,2,0.15,180,0,0,0.40501980000408366,['y'],3.4984942999944906,1.6179999999999999,,,,,,,,516,19,Woman,Right,,,,,,,,,,,,,,,,,516,19,Woman,Right,
4,2,0.15,180,0,0,0.3671678000027896,['y'],1.5663077000062913,1.724,,,,,,,,516,19,Woman,Right,,,,,,,,,,,,,,,,,516,19,Woman,Right,
4,2,0.4,180,0,0,0.27756070000032196,['y'],0.3468676999982563,1.71,8,4,10,4,0.8,1.0,,516,19,Woman,Right,,,,,,,,,,,,,,,,,516,19,Woman,Right,
5,3,1.0,180,0,0,1.7814020000005257,['y'],1.7802807000043686,1.804,,,,,,,,516,19,Woman,Right,,,,,,,,,,,,,,,,,516,19,Woman,Right,
5,3,0.15,0,180,0,1.3180476000052295,['y'],1.071450499999628,1.396,,,,,,,,516,19,Woman,Right,,,,,,,,,,,,,,,,,516,19,Woman,Right,
5,3,0.4,0,180,180,0.3502158999981475,['y'],0.8991319999986445,1.78,,,,,,,,516,19,Woman,Right,,,,,,,,,,,,,,,,,516,19,Woman,Right,
5,3,0.15,180,-,0,0.2297331999943708,['y'],2.398425600003975,1.562,,,,,,,,516,19,Woman,Right,,,,,,,,,,,,,,,,,516,19,Woman,Right,
5,3,0.15,180,0,0,0.2171775999959209,['y'],0.37053739999828395,1.646,,,,,,,,516,19,Woman,Right,,,,,,,,,,,,,,,,,516,19,Woman,Right,
5,3,0.4,0,180,180,0.8006696000011289,['y'],0.29118990000279155,1.8559999999999999,,,,,,,,516,19,Woman,Right,,,,,,,,,,,,,,,,,516,19,Woman,Right,
5,3,0.4,180,-,0,0.291300400000182,['y'],1.2199015000005602,1.758,,,,,,,,516,19,Woman,Right,,,,,,,,,,,,,,,,,516,19,Woman,Right,
5,3,0.4,0,180,180,0.4618389999959618,['y'],0.2495550000021467,1.83,,,,,,,,516,19,Woman,Right,,,,,,,,,,,,,,,,,516,19,Woman,Right,
5,3,0.15,180,-,180,1.7702246000044397,['n'],0.47291240000049584,1.876,,,,,,,,516,19,Woman,Right,,,,,,,,,,,,,,,,,516,19,Woman,Right,
5,3,1.0,180,-,180,0.6840191000010236,['n'],0.3581564999985858,1.908,7,5,10,6,0.7,0.8333333333333334,,516,19,Woman,Right,,,,,,,,,,,,,,,,,516,19,Woman,Right,
,,,,,,,,,,,,,,,,6.000002031214535e-06,516,19,Woman,Right,,,,,,,,,,,,,,,,,516,19,Woman,Right,
,,,,,,,,,,,,,,,,,516,19,Woman,Right,0,25,0.4,2,0,180,180,1.2865540999991936,['n'],3.1848061999990023,1.3639999999999999,335.21742030000314,,,,,516,19,Woman,Right,
,,,,,,,,,,,,,,,,,516,19,Woman,Right,0,71,0.15,2,180,0,180,1.1735522000017227,['n'],1.03337950000423,1.702,340.43336139999883,,,,,516,19,Woman,Right,
,,,,,,,,,,,,,,,,,516,19,Woman,Right,0,65,0.15,2,0,180,180,1.5895557999974699,['n'],0.9856560999978683,1.546,346.11680940000224,,,,,516,19,Woman,Right,
,,,,,,,,,,,,,,,,,516,19,Woman,Right,0,19,0.4,2,180,0,0,1.1105865000063204,['y'],1.3305252000063774,1.832,351.81682400000136,,,,,516,19,Woman,Right,
,,,,,,,,,,,,,,,,,516,19,Woman,Right,0,64,0.15,1,0,-,180,1.5907903000043007,['n'],0.8431029999992461,1.444,357.6334784999999,,,,,516,19,Woman,Right,
,,,,,,,,,,,,,,,,,516,19,Woman,Right,0,60,0.15,1,0,-,180,1.0310979999994743,['n'],0.7558399999979883,1.662,362.20046159999765,,,,,516,19,Woman,Right,
,,,,,,,,,,,,,,,,,516,19,Woman,Right,0,66,0.15,1,180,-,180,0.7497067000003881,['n'],1.3172489000062342,1.548,367.2005905000042,,,,,516,19,Woman,Right,
,,,,,,,,,,,,,,,,,516,19,Woman,Right,0,29,0.4,2,0,180,180,1.2131280999965384,['y'],1.2447851999968407,1.88,372.98334420000174,,,,,516,19,Woman,Right,
,,,,,,,,,,,,,,,,,516,19,Woman,Right,0,42,0.4,1,180,-,180,0.8275662000014563,['n'],0.8460768999939319,1.626,377.8333857000034,,,,,516,19,Woman,Right,
,,,,,,,,,,,,,,,,,516,19,Woman,Right,0,31,0.4,2,180,0,0,2.6794150000059744,['y'],1.4147305000005872,1.808,385.20023310000397,,,,,516,19,Woman,Right,
,,,,,,,,,,,,,,,,,516,19,Woman,Right,0,61,0.15,2,0,180,0,0.891403800000262,['y'],1.679440899999463,1.616,390.7173477000033,,,,,516,19,Woman,Right,
,,,,,,,,,,,,,,,,,516,19,Woman,Right,0,20,0.4,1,0,-,180,0.8413807000033557,['n'],1.0078410999994958,1.732,395.46725629999855,,,,,516,19,Woman,Right,
,,,,,,,,,,,,,,,,,516,19,Woman,Right,0,43,0.4,2,180,0,0,0.49179329999606125,['y'],1.9370314000043436,1.738,401.0332447000037,,,,,516,19,Woman,Right,
,,,,,,,,,,,,,,,,,516,19,Woman,Right,0,17,0.4,2,0,180,180,1.4365279999983613,['y'],1.0736243999999715,1.6019999999999999,407.1832248999999,,,,,516,19,Woman,Right,
,,,,,,,,,,,,,,,,,516,19,Woman,Right,0,7,1,2,180,0,0,0.4974127000023145,['y'],1.7623324999949546,1.926,413.1165037000028,,,,,516,19,Woman,Right,
,,,,,,,,,,,,,,,,,516,19,Woman,Right,0,50,0.15,1,180,-,0,1.0277416000026278,['y'],1.1470485999961966,1.238,418.65020150000055,,,,,516,19,Woman,Right,
,,,,,,,,,,,,,,,,,516,19,Woman,Right,0,56,0.15,1,0,-,0,1.7284937000003993,['y'],1.2675548000042909,1.5979999999999999,424.9332119000028,,,,,516,19,Woman,Right,
,,,,,,,,,,,,,,,,,516,19,Woman,Right,0,2,1,1,180,-,180,0.716921999999613,['n'],0.8970841999980621,1.9020000000000001,429.43320340000355,,,,,516,19,Woman,Right,
,,,,,,,,,,,,,,,,,516,19,Woman,Right,0,73,0.15,2,0,180,180,2.0339585000037914,['n'],1.5484346999946865,1.7,436.0331621000005,,,,,516,19,Woman,Right,
,,,,,,,,,,,,,,,,,516,19,Woman,Right,0,24,0.4,1,0,-,0,0.7918864000021131,['n'],0.9574409000051674,1.6480000000000001,440.38352560000203,,,,,516,19,Woman,Right,
,,,,,,,,,,,,,,,,,516,19,Woman,Right,0,33,0.4,2,0,180,180,1.9741551999977673,['n'],3.0625428999992437,1.642,448.7165191000022,,,,,516,19,Woman,Right,
,,,,,,,,,,,,,,,,,516,19,Woman,Right,0,1,1,2,0,180,180,0.667865499999607,['y'],1.1755587000006926,1.8599999999999999,453.80042120000144,,,,,516,19,Woman,Right,
,,,,,,,,,,,,,,,,,516,19,Woman,Right,0,39,0.4,2,180,0,0,0.69540440000128,['y'],1.024154400001862,1.506,459.6831033999988,,,,,516,19,Woman,Right,
,,,,,,,,,,,,,,,,,516,19,Woman,Right,0,54,0.15,1,180,-,180,0.8941381000040565,['n'],0.97634939999989,1.71,464.3830997000041,,,,,516,19,Woman,Right,
,,,,,,,,,,,,,,,,,516,19,Woman,Right,0,8,0.4,1,0,-,180,0.7558081000024686,['n'],1.3527181000026758,1.888,469.73317379999935,,,,,516,19,Woman,Right,
,,,,,,,,,,,,,,,,,516,19,Woman,Right,0,75,0.15,2,180,0,180,2.231703400000697,['n'],1.3301548999952502,1.6640000000000001,476.40167839999776,,,,,516,19,Woman,Right,
,,,,,,,,,,,,,,,,,516,19,Woman,Right,0,63,0.15,2,180,0,180,0.6213131000040448,['n'],1.2027554000014788,1.824,481.2165279000037,,,,,516,19,Woman,Right,
,,,,,,,,,,,,,,,,,516,19,Woman,Right,0,58,0.15,1,180,-,180,0.3837645000021439,['n'],2.1142633000054047,1.3559999999999999,486.40042520000134,,,,,516,19,Woman,Right,
,,,,,,,,,,,,,,,,,516,19,Woman,Right,0,77,0.15,2,0,180,180,0.4199441999953706,['n'],1.0438641000000644,1.714,490.6500859000007,,,,,516,19,Woman,Right,
,,,,,,,,,,,,,,,,,516,19,Woman,Right,0,0,1,1,0,-,0,0.46758470000349917,['n'],2.732744500004628,1.924,497.14975799999957,,,,,516,19,Woman,Right,
,,,,,,,,,,,,,,,,,516,19,Woman,Right,0,34,0.4,1,180,-,180,0.4808119000008446,['n'],1.1177018000016687,1.8820000000000001,501.6503952999992,,,,,516,19,Woman,Right,
,,,,,,,,,,,,,,,,,516,19,Woman,Right,0,68,0.15,1,0,-,180,0.6594091000006301,['n'],1.5174401000040234,1.71,507.13307150000037,,,,,516,19,Woman,Right,
,,,,,,,,,,,,,,,,,516,19,Woman,Right,0,48,0.15,1,0,-,180,0.3251142000008258,['n'],1.1980105999973603,1.686,511.09967860000324,,,,,516,19,Woman,Right,
,,,,,,,,,,,,,,,,,516,19,Woman,Right,0,55,0.15,2,180,0,180,0.33940639999491395,['n'],0.7343323000022792,1.686,515.1000301000022,,,,,516,19,Woman,Right,
,,,,,,,,,,,,,,,,,516,19,Woman,Right,0,47,0.15,2,180,0,180,0.2856160000010277,['n'],0.7833336999974563,1.358,519.6498164000004,,,,,516,19,Woman,Right,
,,,,,,,,,,,,,,,,,516,19,Woman,Right,0,9,0.4,2,0,180,180,0.8524918999974034,['n'],3.0483881999971345,1.51,527.1829662000018,,,,,516,19,Woman,Right,
,,,,,,,,,,,,,,,,,516,19,Woman,Right,0,79,0.15,2,180,0,180,1.0812474000049406,['n'],1.6491985999964527,1.42,532.6330225999991,,,,,516,19,Woman,Right,
,,,,,,,,,,,,,,,,,516,19,Woman,Right,0,53,0.15,2,0,180,180,0.780547000002116,['n'],0.9054074000014225,1.298,537.2002503999975,,,,,516,19,Woman,Right,
,,,,,,,,,,,,,,,,,516,19,Woman,Right,0,57,0.15,2,0,180,180,0.4173076000006404,['n'],0.8824667000008048,1.408,541.3331414999993,,,,,516,19,Woman,Right,
,,,,,,,,,,,,,,,,,516,19,Woman,Right,0,6,1,1,180,-,180,0.707252399995923,['n'],1.106273899997177,1.956,545.9839568000025,,,,,516,19,Woman,Right,
,,,,,,,,,,,,,,,,,516,19,Woman,Right,0,52,0.15,1,0,-,180,0.4682641999970656,['n'],1.0275152000031085,1.474,550.4662943000003,,,,,516,19,Woman,Right,
,,,,,,,,,,,,,,,,,516,19,Woman,Right,0,23,0.4,2,180,0,180,0.4201180999953067,['n'],0.9080581000016537,1.766,554.4829432999977,,,,,516,19,Woman,Right,
,,,,,,,,,,,,,,,,,516,19,Woman,Right,0,40,0.4,1,0,-,180,0.6272205999994185,['n'],1.1723796000005677,1.424,559.2332724000007,,,,,516,19,Woman,Right,
,,,,,,,,,,,,,,,,,516,19,Woman,Right,0,10,0.4,1,180,-,180,1.0523460000040359,['n'],0.6689330999943195,1.736,563.6664023999983,,,,,516,19,Woman,Right,
,,,,,,,,,,,,,,,,,516,19,Woman,Right,0,22,0.4,1,180,-,180,0.26861929999722634,['n'],0.5819036000029882,1.6440000000000001,568.382990500002,,,,,516,19,Woman,Right,
,,,,,,,,,,,,,,,,,516,19,Woman,Right,0,4,1,1,0,-,0,0.2923259000017424,['n'],0.9419379999962985,2.0,572.3665237000023,,,,,516,19,Woman,Right,
,,,,,,,,,,,,,,,,,516,19,Woman,Right,0,28,0.4,1,0,-,0,2.976764799997909,['n'],0.7589858999999706,1.696,578.6995487000022,,,,,516,19,Woman,Right,
,,,,,,,,,,,,,,,,,516,19,Woman,Right,0,13,0.4,2,0,180,180,2.390448700003617,['n'],1.2557029000017792,1.3,585.1829958000017,,,,,516,19,Woman,Right,
,,,,,,,,,,,,,,,,,516,19,Woman,Right,0,78,0.15,1,180,-,180,1.7350904999984778,['n'],0.9044909000003827,1.434,590.4331731999991,,,,,516,19,Woman,Right,
,,,,,,,,,,,,,,,,,516,19,Woman,Right,0,45,0.15,2,0,180,180,0.7096118999979808,['n'],0.9930703999998514,1.314,596.0496056999982,,,,,516,19,Woman,Right,
,,,,,,,,,,,,,,,,,516,19,Woman,Right,0,26,0.4,1,180,-,180,0.5604565000030561,['n'],0.5455523999989964,1.35,599.8328789000007,,,,,516,19,Woman,Right,
,,,,,,,,,,,,,,,,,516,19,Woman,Right,0,37,0.4,2,0,180,180,0.6564387999969767,['n'],1.0821293000044534,1.4,604.7829931000015,,,,,516,19,Woman,Right,
,,,,,,,,,,,,,,,,,516,19,Woman,Right,0,11,0.4,2,180,0,180,0.2503476999991108,['n'],0.5927784000014071,1.438,608.4994660000011,,,,,516,19,Woman,Right,
,,,,,,,,,,,,,,,,,516,19,Woman,Right,0,21,0.4,2,0,180,0,0.6262157000019215,['n'],0.8512570999955642,1.542,613.3997866999998,,,,,516,19,Woman,Right,
,,,,,,,,,,,,,,,,,516,19,Woman,Right,0,3,1,2,180,0,0,1.5417333000004874,['y'],2.3408086000054027,1.758,620.516741600004,,,,,516,19,Woman,Right,
,,,,,,,,,,,,,,,,,516,19,Woman,Right,0,69,0.15,2,0,180,180,0.6447475000022678,['n'],0.8207737999982783,1.55,625.3494429999992,,,,,516,19,Woman,Right,
,,,,,,,,,,,,,,,,,516,19,Woman,Right,0,51,0.15,2,180,0,180,0.6178342000057455,['n'],0.725452899998345,1.436,629.5994389999978,,,,,516,19,Woman,Right,
,,,,,,,,,,,,,,,,,516,19,Woman,Right,0,44,0.15,1,0,-,0,1.3923260000010487,['n'],0.6060607000035816,1.3479999999999999,634.6661798999994,,,,,516,19,Woman,Right,
,,,,,,,,,,,,,,,,,516,19,Woman,Right,0,15,0.4,2,180,0,180,0.6452300999953877,['n'],0.5345431000023382,1.346,638.5495454999982,,,,,516,19,Woman,Right,
,,,,,,,,,,,,,,,,,516,19,Woman,Right,0,14,0.4,1,180,-,180,0.47426690000429517,['n'],1.4704924000034225,1.38,642.9661258999986,,,,,516,19,Woman,Right,
,,,,,,,,,,,,,,,,,516,19,Woman,Right,0,36,0.4,1,0,-,0,1.5513532999975723,['n'],1.6396263000060571,1.422,648.9501665999996,,,,,516,19,Woman,Right,
,,,,,,,,,,,,,,,,,516,19,Woman,Right,0,30,0.4,1,180,-,0,1.1086590999984764,['n'],0.7518634000007296,1.608,654.2000917999976,,,,,516,19,Woman,Right,
,,,,,,,,,,,,,,,,,516,19,Woman,Right,0,70,0.15,1,180,-,180,0.9368319999994128,['n'],1.2654786999992211,1.392,659.0327336999981,,,,,516,19,Woman,Right,
,,,,,,,,,,,,,,,,,516,19,Woman,Right,0,32,0.4,1,0,-,180,0.8886098000002676,['n'],0.7211000000024796,1.436,663.200148099997,,,,,516,19,Woman,Right,
,,,,,,,,,,,,,,,,,516,19,Woman,Right,0,41,0.4,2,0,180,180,0.28342549999797484,['n'],0.6389615000007325,1.32,666.850030200003,,,,,516,19,Woman,Right,
,,,,,,,,,,,,,,,,,516,19,Woman,Right,0,74,0.15,1,180,-,180,0.2575991000048816,['n'],0.47414150000258815,1.4060000000000001,670.1327243999986,,,,,516,19,Woman,Right,
,,,,,,,,,,,,,,,,,516,19,Woman,Right,0,76,0.15,1,0,-,180,3.073518700002751,['n'],0.7708260999934282,1.472,676.8328344999973,,,,,516,19,Woman,Right,
,,,,,,,,,,,,,,,,,516,19,Woman,Right,0,5,1,2,0,180,180,0.46128029999817954,['y'],1.3882879000011599,1.904,681.5667616999999,,,,,516,19,Woman,Right,
,,,,,,,,,,,,,,,,,516,19,Woman,Right,0,18,0.4,1,180,-,180,0.5895194999975502,['n'],1.420242000000144,1.428,686.3002807000012,,,,,516,19,Woman,Right,
,,,,,,,,,,,,,,,,,516,19,Woman,Right,0,38,0.4,1,180,-,180,0.6269532000005711,['n'],1.7326851999969222,1.72,692.0493446000037,,,,,516,19,Woman,Right,
,,,,,,,,,,,,,,,,,516,19,Woman,Right,0,27,0.4,2,180,0,180,0.6940803000034066,['n'],0.8377633999989484,1.562,696.6825938999973,,,,,516,19,Woman,Right,
,,,,,,,,,,,,,,,,,516,19,Woman,Right,0,46,0.15,1,180,-,180,0.576036499995098,['n'],0.7977535999962129,1.45,700.8661175000016,,,,,516,19,Woman,Right,
,,,,,,,,,,,,,,,,,516,19,Woman,Right,0,49,0.15,2,0,180,180,0.3354336999982479,['n'],0.4780733999941731,1.4140000000000001,704.1825921999989,,,,,516,19,Woman,Right,
,,,,,,,,,,,,,,,,,516,19,Woman,Right,0,12,0.4,1,0,-,180,0.40906379999796627,['n'],1.2706758000058471,1.416,710.1508428000016,,,,,516,19,Woman,Right,
,,,,,,,,,,,,,,,,,516,19,Woman,Right,0,35,0.4,2,180,0,0,1.1962950999950408,['n'],1.112366800000018,1.5939999999999999,715.5998227000018,,,,,516,19,Woman,Right,
,,,,,,,,,,,,,,,,,516,19,Woman,Right,0,67,0.15,2,180,0,180,0.9688093000004301,['n'],1.216743700002553,1.444,720.4327569000016,,,,,516,19,Woman,Right,
,,,,,,,,,,,,,,,,,516,19,Woman,Right,0,72,0.15,1,0,-,180,1.1911830000026384,['n'],1.6415608000024804,1.38,725.8659972000023,,,,,516,19,Woman,Right,
,,,,,,,,,,,,,,,,,516,19,Woman,Right,0,62,0.15,1,180,-,180,0.4837404999998398,['n'],1.4534711000014795,1.6,730.5668091999978,,,,,516,19,Woman,Right,
,,,,,,,,,,,,,,,,,516,19,Woman,Right,0,16,0.4,1,0,-,180,0.26851710000482854,['n'],1.7786637999961386,1.38,735.2825362000003,,,,,516,19,Woman,Right,
,,,,,,,,,,,,,,,,,516,19,Woman,Right,0,59,0.15,2,180,0,180,0.18379669999558246,['n'],1.1388671000022441,1.4020000000000001,739.4158353000021,,,,,516,19,Woman,Right,
,,,,,,,,,,,,,,,,,516,19,Woman,Right,1,56,0.15,1,0,-,180,0.644780400005402,['n'],1.6168316999974195,1.3599999999999999,781.2497661000016,62.5,95.0,27.5,,516,19,Woman,Right,
,,,,,,,,,,,,,,,,,516,19,Woman,Right,1,41,0.4,2,0,180,180,0.48952969999663765,['n'],3.553453399996215,1.222,788.6657831999983,,,,,516,19,Woman,Right,
,,,,,,,,,,,,,,,,,516,19,Woman,Right,1,12,0.4,1,0,-,0,0.9171520999952918,['n'],0.8740840000027674,1.736,792.9824418999997,,,,,516,19,Woman,Right,
,,,,,,,,,,,,,,,,,516,19,Woman,Right,1,50,0.15,1,180,-,180,0.3227547999995295,['n'],0.9782083000027342,1.4020000000000001,796.7823959000016,,,,,516,19,Woman,Right,
,,,,,,,,,,,,,,,,,516,19,Woman,Right,1,2,1,1,180,-,180,0.5864332000055583,['n'],1.162765599998238,1.956,801.2657558999999,,,,,516,19,Woman,Right,
,,,,,,,,,,,,,,,,,516,19,Woman,Right,1,23,0.4,2,180,0,180,0.38491110000177287,['n'],0.8918909999993048,1.436,804.9157510000005,,,,,516,19,Woman,Right,
,,,,,,,,,,,,,,,,,516,19,Woman,Right,1,68,0.15,1,0,-,180,1.7083888000051957,['n'],1.7083827999958885,1.3,810.9332137000019,,,,,516,19,Woman,Right,
,,,,,,,,,,,,,,,,,516,19,Woman,Right,1,33,0.4,2,0,180,180,1.1668970000027912,['n'],0.7326786999983597,1.306,815.683054699999,,,,,516,19,Woman,Right,
,,,,,,,,,,,,,,,,,516,19,Woman,Right,1,27,0.4,2,180,0,180,1.1972683999993023,['n'],0.573071600003459,1.526,821.3990126999997,,,,,516,19,Woman,Right,
,,,,,,,,,,,,,,,,,516,19,Woman,Right,1,77,0.15,2,0,180,180,0.15992259999620728,['n'],0.6692183999984991,1.55,824.7663495000015,,,,,516,19,Woman,Right,
,,,,,,,,,,,,,,,,,516,19,Woman,Right,1,15,0.4,2,180,0,180,0.38550860000395915,['n'],1.3660826999985147,1.638,830.649668099999,,,,,516,19,Woman,Right,
,,,,,,,,,,,,,,,,,516,19,Woman,Right,1,61,0.15,2,0,180,180,0.3638187999968068,['n'],0.806684099996346,1.592,834.7659535999992,,,,,516,19,Woman,Right,
,,,,,,,,,,,,,,,,,516,19,Woman,Right,1,11,0.4,2,180,0,180,0.34180799999739975,['n'],0.8635431000002427,1.562,838.5163527999975,,,,,516,19,Woman,Right,
,,,,,,,,,,,,,,,,,516,19,Woman,Right,1,42,0.4,1,180,-,180,0.28319139999803156,['n'],0.4553738000031444,1.58,842.0323124999995,,,,,516,19,Woman,Right,
,,,,,,,,,,,,,,,,,516,19,Woman,Right,1,34,0.4,1,180,-,180,0.8186921000014991,['n'],1.3038889000017662,1.56,846.9830400999999,,,,,516,19,Woman,Right,
,,,,,,,,,,,,,,,,,516,19,Woman,Right,1,48,0.15,1,0,-,180,0.13366410000162432,['n'],0.6171414999989793,1.556,850.5323019999996,,,,,516,19,Woman,Right,
,,,,,,,,,,,,,,,,,516,19,Woman,Right,1,73,0.15,2,0,180,180,0.3171317000014824,['n'],0.6249890999970376,1.546,853.9833154000007,,,,,516,19,Woman,Right,
,,,,,,,,,,,,,,,,,516,19,Woman,Right,1,43,0.4,2,180,0,180,0.29603599999973085,['n'],0.6662648999990779,1.248,858.1832237999988,,,,,516,19,Woman,Right,
,,,,,,,,,,,,,,,,,516,19,Woman,Right,1,17,0.4,2,0,180,180,2.0292786999998498,['y'],1.8582107000038377,1.04,865.1329595999996,,,,,516,19,Woman,Right,
,,,,,,,,,,,,,,,,,516,19,Woman,Right,1,36,0.4,1,0,-,180,4.3968908000024385,['y'],1.2280578000063542,1.692,874.0162589000029,,,,,516,19,Woman,Right,
,,,,,,,,,,,,,,,,,516,19,Woman,Right,1,53,0.15,2,0,180,0,2.730672100005904,['y'],1.061183500001789,1.35,880.5655460999988,,,,,516,19,Woman,Right,
,,,,,,,,,,,,,,,,,516,19,Woman,Right,1,74,0.15,1,180,-,0,0.8580251000021235,['y'],0.9888926999992691,1.216,885.0665071999974,,,,,516,19,Woman,Right,
,,,,,,,,,,,,,,,,,516,19,Woman,Right,1,51,0.15,2,180,0,180,0.7128484999993816,['n'],1.085841200001596,1.266,889.8160201999999,,,,,516,19,Woman,Right,
,,,,,,,,,,,,,,,,,516,19,Woman,Right,1,39,0.4,2,180,0,0,0.4671539999981178,['y'],1.1346228000038536,1.94,894.4166784999979,,,,,516,19,Woman,Right,
,,,,,,,,,,,,,,,,,516,19,Woman,Right,1,46,0.15,1,180,-,180,0.7973581000042032,['n'],0.9989686999979313,1.424,898.9830388999981,,,,,516,19,Woman,Right,
,,,,,,,,,,,,,,,,,516,19,Woman,Right,1,29,0.4,2,0,180,0,1.4829954000015277,['y'],1.151745299997856,1.226,905.3161335000041,,,,,516,19,Woman,Right,
,,,,,,,,,,,,,,,,,516,19,Woman,Right,1,7,1,2,180,0,0,0.5146404000042821,['y'],1.6079220000028727,1.978,910.2654951000004,,,,,516,19,Woman,Right,
,,,,,,,,,,,,,,,,,516,19,Woman,Right,1,31,0.4,2,180,0,0,0.4536928000015905,['y'],2.6892277999941143,1.95,916.6821692000012,,,,,516,19,Woman,Right,
,,,,,,,,,,,,,,,,,516,19,Woman,Right,1,66,0.15,1,180,-,0,0.5673222999976133,['y'],1.1303058999983477,1.772,920.9154229999986,,,,,516,19,Woman,Right,
,,,,,,,,,,,,,,,,,516,19,Woman,Right,1,16,0.4,1,0,-,180,1.9257761999979266,['y'],0.7627917999998317,1.09,926.6487835000007,,,,,516,19,Woman,Right,
,,,,,,,,,,,,,,,,,516,19,Woman,Right,1,45,0.15,2,0,180,180,0.8455402000035974,['y'],1.1231170000028214,1.196,931.3827405999982,,,,,516,19,Woman,Right,
,,,,,,,,,,,,,,,,,516,19,Woman,Right,1,59,0.15,2,180,0,0,0.48893699999462115,['y'],1.1319323999996413,1.694,935.5820581000007,,,,,516,19,Woman,Right,
,,,,,,,,,,,,,,,,,516,19,Woman,Right,1,64,0.15,1,0,-,0,0.616846800003259,['y'],0.9401222000014968,1.666,940.2320540000001,,,,,516,19,Woman,Right,
,,,,,,,,,,,,,,,,,516,19,Woman,Right,1,26,0.4,1,180,-,0,0.34294140000565676,['y'],0.941254299999855,1.6099999999999999,944.0487248999998,,,,,516,19,Woman,Right,
,,,,,,,,,,,,,,,,,516,19,Woman,Right,1,54,0.15,1,180,-,0,1.0664850999964983,['y'],0.795465700000932,1.54,948.198808400004,,,,,516,19,Woman,Right,
,,,,,,,,,,,,,,,,,516,19,Woman,Right,1,37,0.4,2,0,180,180,0.7940438000005088,['y'],0.6933146000010311,1.1480000000000001,952.6154114000019,,,,,516,19,Woman,Right,
,,,,,,,,,,,,,,,,,516,19,Woman,Right,1,57,0.15,2,0,180,180,1.253105299998424,['y'],0.974233799999638,1.064,957.632764300004,,,,,516,19,Woman,Right,
,,,,,,,,,,,,,,,,,516,19,Woman,Right,1,14,0.4,1,180,-,0,0.322446599995601,['y'],0.8543063000033726,1.562,961.4487244999982,,,,,516,19,Woman,Right,
,,,,,,,,,,,,,,,,,516,19,Woman,Right,1,72,0.15,1,0,-,180,0.9208357000024989,['y'],1.1028273999982048,1.112,966.5986706999975,,,,,516,19,Woman,Right,
,,,,,,,,,,,,,,,,,516,19,Woman,Right,1,9,0.4,2,0,180,180,0.4667957999990904,['y'],1.2482734999939566,1.358,971.015913700001,,,,,516,19,Woman,Right,
,,,,,,,,,,,,,,,,,516,19,Woman,Right,1,67,0.15,2,180,0,180,0.9788859000036609,['y'],1.2334184999999707,1.542,976.2486886000042,,,,,516,19,Woman,Right,
,,,,,,,,,,,,,,,,,516,19,Woman,Right,1,13,0.4,2,0,180,180,0.5045802999957232,['y'],1.6092801999984658,1.0979999999999999,980.9156358999971,,,,,516,19,Woman,Right,
,,,,,,,,,,,,,,,,,516,19,Woman,Right,1,8,0.4,1,0,-,180,0.6589333000010811,['y'],0.9219003000034718,1.466,985.532718100003,,,,,516,19,Woman,Right,
,,,,,,,,,,,,,,,,,516,19,Woman,Right,1,78,0.15,1,180,-,180,2.294430800000555,['n'],1.0181975000014063,1.0,991.4819625000018,,,,,516,19,Woman,Right,
,,,,,,,,,,,,,,,,,516,19,Woman,Right,1,44,0.15,1,0,-,0,1.6451123000006191,['n'],1.3315755000003264,1.0,997.2487465000013,,,,,516,19,Woman,Right,
,,,,,,,,,,,,,,,,,516,19,Woman,Right,1,32,0.4,1,0,-,180,0.5852269000024535,['y'],1.0281872000050498,1.052,1001.4995234000016,,,,,516,19,Woman,Right,
,,,,,,,,,,,,,,,,,516,19,Woman,Right,1,18,0.4,1,180,-,0,2.6459103000015602,['n'],1.0768257000017911,1.15,1008.0492366000035,,,,,516,19,Woman,Right,
,,,,,,,,,,,,,,,,,516,19,Woman,Right,1,19,0.4,2,180,0,0,0.9915360000013607,['y'],1.036848600000667,1.428,1012.8487084000008,,,,,516,19,Woman,Right,
,,,,,,,,,,,,,,,,,516,19,Woman,Right,1,25,0.4,2,0,180,180,0.6482164999979432,['y'],1.7574357999983476,1.538,1018.0986238000041,,,,,516,19,Woman,Right,
,,,,,,,,,,,,,,,,,516,19,Woman,Right,1,21,0.4,2,0,180,180,1.6412072000020999,['n'],1.182880299995304,1.232,1023.9318477999986,,,,,516,19,Woman,Right,
,,,,,,,,,,,,,,,,,516,19,Woman,Right,1,79,0.15,2,180,0,0,1.4167272999984561,['y'],1.3833044999992126,1.404,1030.0320054999975,,,,,516,19,Woman,Right,
,,,,,,,,,,,,,,,,,516,19,Woman,Right,1,40,0.4,1,0,-,180,0.6784260999993421,['y'],2.584446399996523,1.142,1036.0994949000014,,,,,516,19,Woman,Right,
,,,,,,,,,,,,,,,,,516,19,Woman,Right,1,63,0.15,2,180,0,180,0.5107585000005201,['n'],1.1366591999976663,1.544,1040.5151878000033,,,,,516,19,Woman,Right,
,,,,,,,,,,,,,,,,,516,19,Woman,Right,1,24,0.4,1,0,-,180,0.4577260000005481,['n'],1.5617929000000004,1.32,1045.3824223999982,,,,,516,19,Woman,Right,
,,,,,,,,,,,,,,,,,516,19,Woman,Right,1,30,0.4,1,180,-,180,0.3079037999996217,['n'],1.0663538000007975,1.3399999999999999,1049.5159213000006,,,,,516,19,Woman,Right,
,,,,,,,,,,,,,,,,,516,19,Woman,Right,1,58,0.15,1,180,-,180,0.5842822999984492,['n'],0.9705721999998786,1.3319999999999999,1053.6491693999997,,,,,516,19,Woman,Right,
,,,,,,,,,,,,,,,,,516,19,Woman,Right,1,22,0.4,1,180,-,180,0.4358509000012418,['y'],0.8660669999953825,1.282,1057.4651114000008,,,,,516,19,Woman,Right,
,,,,,,,,,,,,,,,,,516,19,Woman,Right,1,60,0.15,1,0,-,180,0.6106328000023495,['n'],1.0190682000029483,1.326,1062.0323446000039,,,,,516,19,Woman,Right,
,,,,,,,,,,,,,,,,,516,19,Woman,Right,1,49,0.15,2,0,180,180,0.24951560000044992,['n'],1.4601140000013402,1.3559999999999999,1066.3984261000005,,,,,516,19,Woman,Right,
,,,,,,,,,,,,,,,,,516,19,Woman,Right,1,0,1,1,0,-,0,0.5391027000005124,['n'],1.669193699999596,2.0,1071.4651152000006,,,,,516,19,Woman,Right,
,,,,,,,,,,,,,,,,,516,19,Woman,Right,1,62,0.15,1,180,-,180,0.4558182999971905,['n'],0.6934743000019807,1.21,1075.1162308999992,,,,,516,19,Woman,Right,
,,,,,,,,,,,,,,,,,516,19,Woman,Right,1,35,0.4,2,180,0,0,0.7191011999966577,['y'],1.4141401000015321,1.704,1079.882483100002,,,,,516,19,Woman,Right,
,,,,,,,,,,,,,,,,,516,19,Woman,Right,1,75,0.15,2,180,0,180,0.7455913000012515,['n'],0.9502177999966079,1.3599999999999999,1083.965097799999,,,,,516,19,Woman,Right,
,,,,,,,,,,,,,,,,,516,19,Woman,Right,1,55,0.15,2,180,0,180,0.5832852999956231,['n'],0.6401887000029092,1.25,1087.7151759999979,,,,,516,19,Woman,Right,
,,,,,,,,,,,,,,,,,516,19,Woman,Right,1,47,0.15,2,180,0,180,0.49736870000197086,['n'],0.6952649999948335,1.562,1091.5823824000036,,,,,516,19,Woman,Right,
,,,,,,,,,,,,,,,,,516,19,Woman,Right,1,76,0.15,1,0,-,180,0.635024399998656,['n'],0.47960909999528667,1.4020000000000001,1095.048458600002,,,,,516,19,Woman,Right,
,,,,,,,,,,,,,,,,,516,19,Woman,Right,1,3,1,2,180,0,0,0.43897600000491366,['y'],1.6965204999942216,2.0,1099.698444499998,,,,,516,19,Woman,Right,
,,,,,,,,,,,,,,,,,516,19,Woman,Right,1,52,0.15,1,0,-,180,0.49404559999675257,['n'],0.432310399999551,1.3519999999999999,1103.0324046000023,,,,,516,19,Woman,Right,
,,,,,,,,,,,,,,,,,516,19,Woman,Right,1,65,0.15,2,0,180,180,0.28935720000299625,['n'],0.48873140000068815,1.454,1106.5817806999985,,,,,516,19,Woman,Right,
,,,,,,,,,,,,,,,,,516,19,Woman,Right,1,20,0.4,1,0,-,180,1.3228872000036063,['n'],1.2021939999976894,1.782,1112.3491004000025,,,,,516,19,Woman,Right,
,,,,,,,,,,,,,,,,,516,19,Woman,Right,1,4,1,1,0,-,0,1.9396798999950988,['n'],5.450830100002349,2.0,1122.9656643999988,,,,,516,19,Woman,Right,
,,,,,,,,,,,,,,,,,516,19,Woman,Right,1,71,0.15,2,180,0,180,1.5105853999993997,['n'],1.3473262000043178,1.778,1128.7316678999996,,,,,516,19,Woman,Right,
,,,,,,,,,,,,,,,,,516,19,Woman,Right,1,10,0.4,1,180,-,180,0.9689347000021371,['n'],0.7321708000017679,1.686,1132.9483080999998,,,,,516,19,Woman,Right,
,,,,,,,,,,,,,,,,,516,19,Woman,Right,1,70,0.15,1,180,-,0,0.38285719999839785,['y'],1.2447749999992084,1.5939999999999999,1137.6659016999984,,,,,516,19,Woman,Right,
,,,,,,,,,,,,,,,,,516,19,Woman,Right,1,6,1,1,180,-,180,0.3223796000020229,['n'],0.9890634000039427,1.94,1141.9816353999995,,,,,516,19,Woman,Right,
,,,,,,,,,,,,,,,,,516,19,Woman,Right,1,5,1,2,0,180,180,0.5084017000044696,['y'],1.0221419999943464,1.94,1146.7822872000033,,,,,516,19,Woman,Right,
,,,,,,,,,,,,,,,,,516,19,Woman,Right,1,1,1,2,0,180,180,0.3259341000011773,['y'],1.5900044000009075,1.982,1151.6822248000026,,,,,516,19,Woman,Right,
,,,,,,,,,,,,,,,,,516,19,Woman,Right,1,38,0.4,1,180,-,180,0.35295120000228053,['n'],1.0310104999953182,1.736,1155.6320533000035,,,,,516,19,Woman,Right,
,,,,,,,,,,,,,,,,,516,19,Woman,Right,1,69,0.15,2,0,180,180,1.3078949000046123,['n'],1.0151180000029854,1.276,1160.8651135000036,,,,,516,19,Woman,Right,
,,,,,,,,,,,,,,,,,516,19,Woman,Right,1,28,0.4,1,0,-,0,1.751772700001311,['n'],1.808309999993071,1.5899999999999999,1166.999003900004,,,,,516,19,Woman,Right,
,,,,,,,,,,,,,,,,,516,19,Woman,Right,2,57,0.15,2,0,180,180,1.0696862999975565,['n'],2.154715299999225,1.238,1185.2315318999972,56.25,65.0,50.0,,516,19,Woman,Right,
,,,,,,,,,,,,,,,,,516,19,Woman,Right,2,16,0.4,1,0,-,180,0.6237988999928348,['y'],0.9710928999993484,1.214,1190.398118099998,,,,,516,19,Woman,Right,
,,,,,,,,,,,,,,,,,516,19,Woman,Right,2,23,0.4,2,180,0,0,0.41468490000261227,['y'],1.2042705999992904,1.8780000000000001,1194.5487883000023,,,,,516,19,Woman,Right,
,,,,,,,,,,,,,,,,,516,19,Woman,Right,2,27,0.4,2,180,0,0,0.28419120000035036,['y'],0.9718072999967262,1.726,1198.5658782000028,,,,,516,19,Woman,Right,
,,,,,,,,,,,,,,,,,516,19,Woman,Right,2,30,0.4,1,180,-,0,0.30091879999963567,['y'],0.8693705999976373,1.5779999999999998,1202.1816055000018,,,,,516,19,Woman,Right,
,,,,,,,,,,,,,,,,,516,19,Woman,Right,2,18,0.4,1,180,-,0,0.43521180000243476,['y'],1.3180761000039638,1.842,1206.9481664999985,,,,,516,19,Woman,Right,
,,,,,,,,,,,,,,,,,516,19,Woman,Right,2,21,0.4,2,0,180,180,0.558225399996445,['y'],0.742280499995104,1.142,1211.1647844000036,,,,,516,19,Woman,Right,
,,,,,,,,,,,,,,,,,516,19,Woman,Right,2,9,0.4,2,0,180,180,0.9155983999953605,['y'],0.7029640000037034,1.268,1215.5820633999974,,,,,516,19,Woman,Right,
,,,,,,,,,,,,,,,,,516,19,Woman,Right,2,50,0.15,1,180,-,0,0.45500919999904,['y'],0.8069439000028069,1.3479999999999999,1219.2659791000042,,,,,516,19,Woman,Right,
,,,,,,,,,,,,,,,,,516,19,Woman,Right,2,19,0.4,2,180,0,0,0.31956650000211084,['y'],0.8315638999993098,1.908,1222.9991943999994,,,,,516,19,Woman,Right,
,,,,,,,,,,,,,,,,,516,19,Woman,Right,2,52,0.15,1,0,-,180,0.6095414999945206,['y'],1.1600863999992725,1.3780000000000001,1227.0981805999982,,,,,516,19,Woman,Right,
,,,,,,,,,,,,,,,,,516,19,Woman,Right,2,51,0.15,2,180,0,180,2.0320055999982287,['y'],0.672290399998019,1.012,1233.0322068000023,,,,,516,19,Woman,Right,
,,,,,,,,,,,,,,,,,516,19,Woman,Right,2,5,1,2,0,180,180,0.4408938999986276,['y'],1.1131459000025643,2.0,1237.7147172999976,,,,,516,19,Woman,Right,
,,,,,,,,,,,,,,,,,516,19,Woman,Right,2,78,0.15,1,180,-,0,0.7225191000034101,['y'],0.9302702999993926,1.814,1241.9987984000036,,,,,516,19,Woman,Right,
,,,,,,,,,,,,,,,,,516,19,Woman,Right,2,31,0.4,2,180,0,0,0.11875439999857917,['y'],0.9784413000015775,1.782,1245.649143200004,,,,,516,19,Woman,Right,
,,,,,,,,,,,,,,,,,516,19,Woman,Right,2,26,0.4,1,180,-,180,0.7539752000011504,['n'],0.8993393999990076,1.0,1249.8648347999988,,,,,516,19,Woman,Right,
,,,,,,,,,,,,,,,,,516,19,Woman,Right,2,55,0.15,2,180,0,0,0.5681852000052459,['y'],0.9153288999950746,1.196,1255.2315849000006,,,,,516,19,Woman,Right,
,,,,,,,,,,,,,,,,,516,19,Woman,Right,2,38,0.4,1,180,-,180,0.6893918000059784,['n'],0.9879833000013605,1.242,1259.414607300001,,,,,516,19,Woman,Right,
,,,,,,,,,,,,,,,,,516,19,Woman,Right,2,1,1,2,0,180,180,0.3949563999995007,['y'],0.8610008999967249,1.972,1263.2156896000015,,,,,516,19,Woman,Right,
,,,,,,,,,,,,,,,,,516,19,Woman,Right,2,24,0.4,1,0,-,0,5.392281500004174,['y'],1.8296936000042479,1.6640000000000001,1272.9319201000035,,,,,516,19,Woman,Right,
,,,,,,,,,,,,,,,,,516,19,Woman,Right,2,41,0.4,2,0,180,180,0.2251447000016924,['y'],0.8622038000030443,1.8940000000000001,1276.5481814000013,,,,,516,19,Woman,Right,
,,,,,,,,,,,,,,,,,516,19,Woman,Right,2,29,0.4,2,0,180,180,0.2704569000052288,['y'],0.5666830999980448,1.776,1279.997958400003,,,,,516,19,Woman,Right,
,,,,,,,,,,,,,,,,,516,19,Woman,Right,2,47,0.15,2,180,0,0,0.2362783999997191,['y'],0.6072694999966188,1.87,1284.181332,,,,,516,19,Woman,Right,
,,,,,,,,,,,,,,,,,516,19,Woman,Right,2,44,0.15,1,0,-,180,2.4768707000039285,['n'],0.8000189000013052,1.226,1289.848204599999,,,,,516,19,Woman,Right,
,,,,,,,,,,,,,,,,,516,19,Woman,Right,2,64,0.15,1,0,-,0,0.6329322000019602,['n'],0.6885356999991927,1.0,1293.7480928000004,,,,,516,19,Woman,Right,
,,,,,,,,,,,,,,,,,516,19,Woman,Right,2,40,0.4,1,0,-,0,1.0027746999985538,['n'],1.1612370000002556,1.43,1298.5145856000017,,,,,516,19,Woman,Right,
,,,,,,,,,,,,,,,,,516,19,Woman,Right,2,20,0.4,1,0,-,0,0.7350059000018518,['n'],0.9616440999961924,1.286,1302.598780500004,,,,,516,19,Woman,Right,
,,,,,,,,,,,,,,,,,516,19,Woman,Right,2,62,0.15,1,180,-,0,0.3482108000025619,['n'],0.8181647999954293,1.35,1306.2311461999998,,,,,516,19,Woman,Right,
,,,,,,,,,,,,,,,,,516,19,Woman,Right,2,39,0.4,2,180,0,0,0.3682711999936146,['y'],0.7705514999979641,1.822,1310.2312643999976,,,,,516,19,Woman,Right,
,,,,,,,,,,,,,,,,,516,19,Woman,Right,2,28,0.4,1,0,-,0,0.424284800006717,['n'],0.7391019999995478,1.3359999999999999,1313.815472000002,,,,,516,19,Woman,Right,
,,,,,,,,,,,,,,,,,516,19,Woman,Right,2,0,1,1,0,-,0,0.5716799000001629,['n'],0.9395618999988073,1.752,1317.8645391000027,,,,,516,19,Woman,Right,
,,,,,,,,,,,,,,,,,516,19,Woman,Right,2,2,1,1,180,-,180,0.6909769999983837,['n'],0.6680833999998868,2.0,1321.697864499998,,,,,516,19,Woman,Right,
,,,,,,,,,,,,,,,,,516,19,Woman,Right,2,4,1,1,0,-,0,0.3184860999972443,['n'],0.5402621999965049,1.946,1325.5811853999985,,,,,516,19,Woman,Right,
,,,,,,,,,,,,,,,,,516,19,Woman,Right,2,75,0.15,2,180,0,180,0.7005542999977479,['n'],0.8127804999967339,1.738,1329.6821954999978,,,,,516,19,Woman,Right,
,,,,,,,,,,,,,,,,,516,19,Woman,Right,2,37,0.4,2,0,180,0,0.5871782000031089,['n'],0.44534330000169575,1.634,1333.2978162,,,,,516,19,Woman,Right,
,,,,,,,,,,,,,,,,,516,19,Woman,Right,2,79,0.15,2,180,0,0,0.7196946000040043,['n'],0.5739905000009458,1.728,1336.981276700004,,,,,516,19,Woman,Right,
,,,,,,,,,,,,,,,,,516,19,Woman,Right,2,15,0.4,2,180,0,0,0.3398645999986911,['y'],1.4383554000014556,1.728,1336.981276700004,,,,,516,19,Woman,Right,
,,,,,,,,,,,,,,,,,516,19,Woman,Right,2,61,0.15,2,0,180,0,0.26367430000391323,['n'],0.4069482999984757,1.74,1345.1978409000003,,,,,516,19,Woman,Right,
,,,,,,,,,,,,,,,,,516,19,Woman,Right,2,17,0.4,2,0,180,180,0.5118519999959972,['y'],1.3995341999980155,1.576,1350.0978192000039,,,,,516,19,Woman,Right,
,,,,,,,,,,,,,,,,,516,19,Woman,Right,2,59,0.15,2,180,0,0,0.41065250000247033,['n'],0.9359591000029468,1.296,1354.0322541999994,,,,,516,19,Woman,Right,
,,,,,,,,,,,,,,,,,516,19,Woman,Right,2,11,0.4,2,180,0,0,1.8462650000001304,['n'],0.9208811999997124,1.35,1360.1645656999972,,,,,516,19,Woman,Right,
,,,,,,,,,,,,,,,,,516,19,Woman,Right,2,34,0.4,1,180,-,180,0.6597806999998284,['n'],0.7853535000031115,1.3679999999999999,1364.8810956000016,,,,,516,19,Woman,Right,
,,,,,,,,,,,,,,,,,516,19,Woman,Right,2,70,0.15,1,180,-,180,0.3579461999979685,['n'],0.785783100000117,1.3719999999999999,1368.947817799999,,,,,516,19,Woman,Right,
,,,,,,,,,,,,,,,,,516,19,Woman,Right,2,76,0.15,1,0,-,0,0.9025275999956648,['n'],0.6663102999955299,1.542,1373.2644431000008,,,,,516,19,Woman,Right,
,,,,,,,,,,,,,,,,,516,19,Woman,Right,2,63,0.15,2,180,0,180,0.1500785000025644,['n'],0.4827439000000595,1.358,1376.381092100004,,,,,516,19,Woman,Right,
,,,,,,,,,,,,,,,,,516,19,Woman,Right,2,32,0.4,1,0,-,0,0.1752386000007391,['n'],0.5311063999979524,1.684,1380.1977755999978,,,,,516,19,Woman,Right,
,,,,,,,,,,,,,,,,,516,19,Woman,Right,2,35,0.4,2,180,0,0,1.4311936999947648,['y'],1.0199241999944206,1.758,1385.5145180000036,,,,,516,19,Woman,Right,
,,,,,,,,,,,,,,,,,516,19,Woman,Right,2,65,0.15,2,0,180,180,0.4412302000055206,['y'],1.668432300000859,1.5899999999999999,1390.9477399000025,,,,,516,19,Woman,Right,
,,,,,,,,,,,,,,,,,516,19,Woman,Right,2,46,0.15,1,180,-,0,0.24197989999811398,['y'],1.4370676000035019,1.604,1394.9144491999978,,,,,516,19,Woman,Right,
,,,,,,,,,,,,,,,,,516,19,Woman,Right,2,48,0.15,1,0,-,180,1.0400596000035875,['n'],0.9815221999961068,1.012,1399.8477514999977,,,,,516,19,Woman,Right,
,,,,,,,,,,,,,,,,,516,19,Woman,Right,2,13,0.4,2,0,180,180,0.292560499998217,['n'],0.5261078999974416,1.612,1403.1977203999995,,,,,516,19,Woman,Right,
,,,,,,,,,,,,,,,,,516,19,Woman,Right,2,8,0.4,1,0,-,0,0.8571464999986347,['n'],0.5827497999998741,1.334,1407.5483999999997,,,,,516,19,Woman,Right,
,,,,,,,,,,,,,,,,,516,19,Woman,Right,2,66,0.15,1,180,-,0,0.5497200000027078,['y'],1.039034299996274,1.248,1411.897627899998,,,,,516,19,Woman,Right,
,,,,,,,,,,,,,,,,,516,19,Woman,Right,2,42,0.4,1,180,-,0,0.5269994999980554,['y'],1.8877460000003339,1.354,1416.7982341000024,,,,,516,19,Woman,Right,
,,,,,,,,,,,,,,,,,516,19,Woman,Right,2,72,0.15,1,0,-,0,0.6947366999957012,['n'],1.7924259999999776,1.162,1422.1642455000037,,,,,516,19,Woman,Right,
,,,,,,,,,,,,,,,,,516,19,Woman,Right,2,74,0.15,1,180,-,180,0.6316607999979169,['n'],0.5845553000035579,1.51,1426.2976038999986,,,,,516,19,Woman,Right,
,,,,,,,,,,,,,,,,,516,19,Woman,Right,2,49,0.15,2,0,180,0,0.19898919999832287,['n'],1.0570300000035786,1.532,1430.2142359999998,,,,,516,19,Woman,Right,
,,,,,,,,,,,,,,,,,516,19,Woman,Right,2,77,0.15,2,0,180,180,0.5284514000013587,['n'],0.6897585999977309,1.452,1433.8811072000026,,,,,516,19,Woman,Right,
,,,,,,,,,,,,,,,,,516,19,Woman,Right,2,58,0.15,1,180,-,180,0.5193092999979854,['n'],0.3541949000064051,1.326,1437.0975317999983,,,,,516,19,Woman,Right,
,,,,,,,,,,,,,,,,,516,19,Woman,Right,2,7,1,2,180,0,0,0.6800521999975899,['y'],1.107033299995237,1.996,1441.4643977000014,,,,,516,19,Woman,Right,
,,,,,,,,,,,,,,,,,516,19,Woman,Right,2,60,0.15,1,0,-,180,0.3052125999965938,['n'],0.40286270000069635,1.1400000000000001,1445.4154177000019,,,,,516,19,Woman,Right,
,,,,,,,,,,,,,,,,,516,19,Woman,Right,2,25,0.4,2,0,180,180,0.6835119000024861,['y'],2.0200659000038286,1.3860000000000001,1450.564286599998,,,,,516,19,Woman,Right,
,,,,,,,,,,,,,,,,,516,19,Woman,Right,2,22,0.4,1,180,-,180,0.22280319999845233,['n'],0.49229170000035083,1.264,1453.831772700003,,,,,516,19,Woman,Right,
,,,,,,,,,,,,,,,,,516,19,Woman,Right,2,6,1,1,180,-,180,0.7708057000054396,['n'],0.6609496000019135,2.0,1458.1642904000037,,,,,516,19,Woman,Right,
,,,,,,,,,,,,,,,,,516,19,Woman,Right,2,68,0.15,1,0,-,0,0.41250679999939166,['y'],0.8615704000039841,1.716,1461.9809572000013,,,,,516,19,Woman,Right,
,,,,,,,,,,,,,,,,,516,19,Woman,Right,2,3,1,2,180,0,0,0.8067984000008437,['y'],0.9567282999996678,1.88,1466.7482182000022,,,,,516,19,Woman,Right,
,,,,,,,,,,,,,,,,,516,19,Woman,Right,2,33,0.4,2,0,180,180,1.2094913000037195,['y'],0.8140740000017104,1.786,1471.2975356000024,,,,,516,19,Woman,Right,
,,,,,,,,,,,,,,,,,516,19,Woman,Right,2,43,0.4,2,180,0,0,0.2970287999996799,['y'],0.9034462999989046,1.7,1475.0320608999973,,,,,516,19,Woman,Right,
,,,,,,,,,,,,,,,,,516,19,Woman,Right,2,12,0.4,1,0,-,0,0.32390839999425225,['n'],0.9440838000009535,1.804,1478.7982004000005,,,,,516,19,Woman,Right,
,,,,,,,,,,,,,,,,,516,19,Woman,Right,2,73,0.15,2,0,180,0,0.3391414000070654,['n'],1.0486559999990277,1.674,1482.664145900002,,,,,516,19,Woman,Right,
,,,,,,,,,,,,,,,,,516,19,Woman,Right,2,71,0.15,2,180,0,0,0.2899790000010398,['y'],0.921035799998208,1.412,1486.3477595000004,,,,,516,19,Woman,Right,
,,,,,,,,,,,,,,,,,516,19,Woman,Right,2,69,0.15,2,0,180,0,0.6443485999989207,['n'],0.9133699000012712,1.0,1490.4974581999995,,,,,516,19,Woman,Right,
,,,,,,,,,,,,,,,,,516,19,Woman,Right,2,67,0.15,2,180,0,0,0.2548205999992206,['n'],0.6888642999983858,1.792,1494.2474734999996,,,,,516,19,Woman,Right,
,,,,,,,,,,,,,,,,,516,19,Woman,Right,2,14,0.4,1,180,-,0,0.2937631999957375,['y'],0.9856832000004943,1.6480000000000001,1497.7650807000027,,,,,516,19,Woman,Right,
,,,,,,,,,,,,,,,,,516,19,Woman,Right,2,45,0.15,2,0,180,0,0.27074610000272514,['n'],1.5465432999990298,1.612,1502.0480809,,,,,516,19,Woman,Right,
,,,,,,,,,,,,,,,,,516,19,Woman,Right,2,10,0.4,1,180,-,180,0.5094161999950302,['n'],1.9786305999950855,1.0,1507.7308235000019,,,,,516,19,Woman,Right,
,,,,,,,,,,,,,,,,,516,19,Woman,Right,2,53,0.15,2,0,180,0,0.3305177000002004,['n'],0.7714705999969738,1.562,1511.1140782000002,,,,,516,19,Woman,Right,
,,,,,,,,,,,,,,,,,516,19,Woman,Right,2,36,0.4,1,0,-,0,0.7802824000027613,['n'],1.0362415999989025,1.412,1515.4973628000007,,,,,516,19,Woman,Right,
,,,,,,,,,,,,,,,,,516,19,Woman,Right,2,54,0.15,1,180,-,180,0.16935080000257585,['n'],1.1086429999995744,1.692,1519.8140581999978,,,,,516,19,Woman,Right,
,,,,,,,,,,,,,,,,,516,19,Woman,Right,2,56,0.15,1,0,-,180,0.3031715000033728,['n'],0.9727822999993805,1.572,1523.413975399999,,,,,516,19,Woman,Right,
,,,,,,,,,,,,,,,,,516,19,Woman,Right,3,4,1,1,0,-,0,0.444749000002048,['n'],1.0064571000038995,2.0,1533.0313282999996,68.75,70.0,60.0,,516,19,Woman,Right,
,,,,,,,,,,,,,,,,,516,19,Woman,Right,3,3,1,2,180,0,0,0.6041294000024209,['y'],1.5272091000006185,2.0,1538.0140238000022,,,,,516,19,Woman,Right,
,,,,,,,,,,,,,,,,,516,19,Woman,Right,3,36,0.4,1,0,-,0,0.7886187000040081,['n'],1.0631666999979643,1.57,1542.4313709999988,,,,,516,19,Woman,Right,
,,,,,,,,,,,,,,,,,516,19,Woman,Right,3,53,0.15,2,0,180,180,0.21210330000030808,['n'],0.5202751999968314,1.476,1545.5975058999975,,,,,516,19,Woman,Right,
,,,,,,,,,,,,,,,,,516,19,Woman,Right,3,51,0.15,2,180,0,180,0.31568459999834886,['n'],0.41640039999765577,1.452,1548.5974720000013,,,,,516,19,Woman,Right,
,,,,,,,,,,,,,,,,,516,19,Woman,Right,3,34,0.4,1,180,-,180,0.15320339999743737,['n'],0.6963748999987729,1.1480000000000001,1551.9640022000021,,,,,516,19,Woman,Right,
,,,,,,,,,,,,,,,,,516,19,Woman,Right,3,73,0.15,2,0,180,180,1.1185930999999982,['n'],0.48907060000055935,1.214,1555.8971796000042,,,,,516,19,Woman,Right,
,,,,,,,,,,,,,,,,,516,19,Woman,Right,3,27,0.4,2,180,0,0,0.368144799998845,['y'],1.3864697000026354,1.714,1560.3815600000016,,,,,516,19,Woman,Right,
,,,,,,,,,,,,,,,,,516,19,Woman,Right,3,61,0.15,2,0,180,0,0.38174180000351043,['n'],1.586079000000609,1.604,1565.314379800002,,,,,516,19,Woman,Right,
,,,,,,,,,,,,,,,,,516,19,Woman,Right,3,37,0.4,2,0,180,180,0.4232144999987213,['y'],0.9070286999995005,1.8639999999999999,1569.3315885999982,,,,,516,19,Woman,Right,
,,,,,,,,,,,,,,,,,516,19,Woman,Right,3,11,0.4,2,180,0,0,0.4248393000016222,['y'],0.7158165000000736,1.896,1572.9472900000037,,,,,516,19,Woman,Right,
,,,,,,,,,,,,,,,,,516,19,Woman,Right,3,55,0.15,2,180,0,0,0.2722464000034961,['y'],0.8198488999987603,1.674,1576.4479751000035,,,,,516,19,Woman,Right,
,,,,,,,,,,,,,,,,,516,19,Woman,Right,3,2,1,1,180,-,180,0.45038669999485137,['n'],1.076793300002464,1.866,1580.5973828999995,,,,,516,19,Woman,Right,
,,,,,,,,,,,,,,,,,516,19,Woman,Right,3,6,1,1,180,-,0,1.836284600001818,['y'],0.5811754000023939,1.6400000000000001,1585.747984200003,,,,,516,19,Woman,Right,
,,,,,,,,,,,,,,,,,516,19,Woman,Right,3,43,0.4,2,180,0,0,0.216215700005705,['y'],0.8934105000007548,1.69,1589.8479198999994,,,,,516,19,Woman,Right,
,,,,,,,,,,,,,,,,,516,19,Woman,Right,3,9,0.4,2,0,180,180,0.21080690000235336,['y'],0.8536168999999063,1.738,1593.547229900003,,,,,516,19,Woman,Right,
,,,,,,,,,,,,,,,,,516,19,Woman,Right,3,22,0.4,1,180,-,180,0.6962605000007898,['n'],0.8546960999956354,1.748,1597.5305527000019,,,,,516,19,Woman,Right,
,,,,,,,,,,,,,,,,,516,19,Woman,Right,3,7,1,2,180,0,0,0.18450619999930495,['y'],0.9504964000007021,1.72,1601.113876299998,,,,,516,19,Woman,Right,
,,,,,,,,,,,,,,,,,516,19,Woman,Right,3,39,0.4,2,180,0,0,0.35366780000185827,['y'],0.839615999997477,1.9,1605.5982337000023,,,,,516,19,Woman,Right,
,,,,,,,,,,,,,,,,,516,19,Woman,Right,3,23,0.4,2,180,0,0,0.2967361000046367,['y'],1.2159161000017775,1.712,1609.5638306000037,,,,,516,19,Woman,Right,
,,,,,,,,,,,,,,,,,516,19,Woman,Right,3,20,0.4,1,0,-,180,1.3272870000000694,['n'],0.9207347999981721,1.164,1614.3480225000021,,,,,516,19,Woman,Right,
,,,,,,,,,,,,,,,,,516,19,Woman,Right,3,47,0.15,2,180,0,180,0.6772028999985196,['n'],0.8643165000030422,1.354,1618.313887700002,,,,,516,19,Woman,Right,
,,,,,,,,,,,,,,,,,516,19,Woman,Right,3,14,0.4,1,180,-,180,0.4482828999971389,['n'],1.0410995999991428,1.85,1622.3977995000023,,,,,516,19,Woman,Right,
,,,,,,,,,,,,,,,,,516,19,Woman,Right,3,46,0.15,1,180,-,0,0.41553189999831375,['y'],0.92987130000256,1.6320000000000001,1626.1638687000013,,,,,516,19,Woman,Right,
,,,,,,,,,,,,,,,,,516,19,Woman,Right,3,49,0.15,2,0,180,0,0.975517699996999,['n'],0.8579005999999936,1.0,1630.930685899999,,,,,516,19,Woman,Right,
,,,,,,,,,,,,,,,,,516,19,Woman,Right,3,18,0.4,1,180,-,180,1.0307269000040833,['n'],1.3072673999995459,1.214,1635.7638660000011,,,,,516,19,Woman,Right,
,,,,,,,,,,,,,,,,,516,19,Woman,Right,3,1,1,2,0,180,180,0.46443079999880865,['y'],0.7881068999995477,2.0,1639.297146500001,,,,,516,19,Woman,Right,
,,,,,,,,,,,,,,,,,516,19,Woman,Right,3,32,0.4,1,0,-,0,0.4507191000011517,['y'],2.0286587000009604,1.13,1645.2138486999975,,,,,516,19,Woman,Right,
,,,,,,,,,,,,,,,,,516,19,Woman,Right,3,15,0.4,2,180,0,0,0.5071367999989889,['y'],0.8213638000015635,1.678,1649.1138907999994,,,,,516,19,Woman,Right,
,,,,,,,,,,,,,,,,,516,19,Woman,Right,3,63,0.15,2,180,0,0,0.6475063999969279,['y'],0.8536430000021937,1.718,1652.8304339000024,,,,,516,19,Woman,Right,
,,,,,,,,,,,,,,,,,516,19,Woman,Right,3,62,0.15,1,180,-,180,0.2588797999997041,['n'],0.8293208000031882,1.328,1656.381314899998,,,,,516,19,Woman,Right,
,,,,,,,,,,,,,,,,,516,19,Woman,Right,3,40,0.4,1,0,-,0,0.3587753999963752,['n'],0.877990500004671,1.892,1659.9304707999981,,,,,516,19,Woman,Right,
,,,,,,,,,,,,,,,,,516,19,Woman,Right,3,67,0.15,2,180,0,180,0.3356549000018276,['n'],0.5586276999965776,1.0,1663.3138699999981,,,,,516,19,Woman,Right,
,,,,,,,,,,,,,,,,,516,19,Woman,Right,3,38,0.4,1,180,-,180,0.40089350000198465,['n'],1.2549675000045681,1.536,1667.3477790000034,,,,,516,19,Woman,Right,
,,,,,,,,,,,,,,,,,516,19,Woman,Right,3,64,0.15,1,0,-,180,0.35827859999699285,['n'],0.447800299996743,1.534,1670.3138313000018,,,,,516,19,Woman,Right,
,,,,,,,,,,,,,,,,,516,19,Woman,Right,3,25,0.4,2,0,180,180,0.9836836000031326,['y'],1.1680496999979368,1.43,1675.913703600003,,,,,516,19,Woman,Right,
,,,,,,,,,,,,,,,,,516,19,Woman,Right,3,29,0.4,2,0,180,180,0.3682245000018156,['n'],1.5127823000002536,1.786,1680.3477647000036,,,,,516,19,Woman,Right,
,,,,,,,,,,,,,,,,,516,19,Woman,Right,3,0,1,1,0,-,0,0.10744140000315383,['n'],1.2253516999990097,1.768,1685.1136265000023,,,,,516,19,Woman,Right,
,,,,,,,,,,,,,,,,,516,19,Woman,Right,3,74,0.15,1,180,-,180,0.27675770000496414,['n'],0.8019213000006857,1.6280000000000001,1688.496983099998,,,,,516,19,Woman,Right,
,,,,,,,,,,,,,,,,,516,19,Woman,Right,3,45,0.15,2,0,180,180,0.06819130000076257,['n'],0.4344704000031925,1.724,1691.5971245000037,,,,,516,19,Woman,Right,
,,,,,,,,,,,,,,,,,516,19,Woman,Right,3,16,0.4,1,0,-,0,0.6213336000000709,['n'],0.8031697999977041,1.6139999999999999,1695.2809479999996,,,,,516,19,Woman,Right,
,,,,,,,,,,,,,,,,,516,19,Woman,Right,3,8,0.4,1,0,-,0,0.33503270000073826,['n'],0.5952400000023772,1.5979999999999999,1698.547671799999,,,,,516,19,Woman,Right,
,,,,,,,,,,,,,,,,,516,19,Woman,Right,3,19,0.4,2,180,0,180,0.2908785000036005,['n'],0.4916395999971428,1.624,1701.8808191999997,,,,,516,19,Woman,Right,
,,,,,,,,,,,,,,,,,516,19,Woman,Right,3,48,0.15,1,0,-,180,0.255436200000986,['n'],0.6117401000010432,1.6360000000000001,1705.0639347000033,,,,,516,19,Woman,Right,
,,,,,,,,,,,,,,,,,516,19,Woman,Right,3,72,0.15,1,0,-,180,0.1259548000016366,['n'],0.42061570000078063,1.6360000000000001,1708.0635710999995,,,,,516,19,Woman,Right,
,,,,,,,,,,,,,,,,,516,19,Woman,Right,3,57,0.15,2,0,180,180,1.022929099999601,['n'],1.708738799999992,1.3940000000000001,1713.2978816000032,,,,,516,19,Woman,Right,
,,,,,,,,,,,,,,,,,516,19,Woman,Right,3,33,0.4,2,0,180,0,0.40357209999638144,['n'],0.6451910000032512,1.324,1716.8635925999988,,,,,516,19,Woman,Right,
,,,,,,,,,,,,,,,,,516,19,Woman,Right,3,54,0.15,1,180,-,180,0.2749805999992532,['n'],0.8540504999982659,1.238,1720.2303356999982,,,,,516,19,Woman,Right,
,,,,,,,,,,,,,,,,,516,19,Woman,Right,3,35,0.4,2,180,0,180,0.17992339999909746,['n'],0.4296905000010156,1.52,1723.1308874000024,,,,,516,19,Woman,Right,
,,,,,,,,,,,,,,,,,516,19,Woman,Right,3,42,0.4,1,180,-,180,0.12467019999894546,['n'],0.6230593000000226,1.5979999999999999,1726.2306771000003,,,,,516,19,Woman,Right,
,,,,,,,,,,,,,,,,,516,19,Woman,Right,3,50,0.15,1,180,-,180,0.29792080000333954,['n'],0.35834780000004685,1.762,1729.3975226999974,,,,,516,19,Woman,Right,
,,,,,,,,,,,,,,,,,516,19,Woman,Right,3,28,0.4,1,0,-,180,0.15849359999992885,['n'],0.25509800000145333,1.564,1732.263676100003,,,,,516,19,Woman,Right,
,,,,,,,,,,,,,,,,,516,19,Woman,Right,3,76,0.15,1,0,-,180,0.2831733000057284,['n'],0.3200985000003129,1.25,1736.063833100001,,,,,516,19,Woman,Right,
,,,,,,,,,,,,,,,,,516,19,Woman,Right,3,56,0.15,1,0,-,180,0.06787569999869447,['n'],0.41632859999663197,1.428,1738.8474215000024,,,,,516,19,Woman,Right,
,,,,,,,,,,,,,,,,,516,19,Woman,Right,3,41,0.4,2,0,180,180,0.0170397000038065,['n'],0.35400839999783784,1.388,1741.5809831000006,,,,,516,19,Woman,Right,
,,,,,,,,,,,,,,,,,516,19,Woman,Right,3,66,0.15,1,180,-,180,0.01672560000588419,['n'],0.41864269999496173,1.3900000000000001,1744.4477190000034,,,,,516,19,Woman,Right,
,,,,,,,,,,,,,,,,,516,19,Woman,Right,3,79,0.15,2,180,0,180,0.05029400000057649,['n'],0.30718639999395236,1.6320000000000001,1747.863999400004,,,,,516,19,Woman,Right,
,,,,,,,,,,,,,,,,,516,19,Woman,Right,3,26,0.4,1,180,-,180,0.4428981999953976,['n'],0.6015034000010928,1.62,1751.213537800002,,,,,516,19,Woman,Right,
,,,,,,,,,,,,,,,,,516,19,Woman,Right,3,24,0.4,1,0,-,0,0.6341327999980422,['n'],0.5174540000007255,1.624,1754.5302512999988,,,,,516,19,Woman,Right,
,,,,,,,,,,,,,,,,,516,19,Woman,Right,3,52,0.15,1,0,-,0,1.0927214000039385,['n'],0.3061833000028855,1.616,1758.1134415999986,,,,,516,19,Woman,Right,
,,,,,,,,,,,,,,,,,516,19,Woman,Right,3,5,1,2,0,180,180,0.8220962999985204,['y'],0.8989862000016728,1.638,1762.3138115999973,,,,,516,19,Woman,Right,
,,,,,,,,,,,,,,,,,516,19,Woman,Right,3,65,0.15,2,0,180,180,0.4694277000016882,['n'],0.3952763999986928,1.3860000000000001,1765.7976271000007,,,,,516,19,Woman,Right,
,,,,,,,,,,,,,,,,,516,19,Woman,Right,3,31,0.4,2,180,0,180,0.04543240000202786,['n'],0.29950779999489896,1.418,1768.3470285000003,,,,,516,19,Woman,Right,
,,,,,,,,,,,,,,,,,516,19,Woman,Right,3,60,0.15,1,0,-,0,0.28069590000086464,['n'],0.4282577999983914,1.8479999999999999,1771.546891099999,,,,,516,19,Woman,Right,
,,,,,,,,,,,,,,,,,516,19,Woman,Right,3,68,0.15,1,0,-,0,0.23082430000067689,['n'],0.5089054999989457,1.6099999999999999,1774.4801004999972,,,,,516,19,Woman,Right,
,,,,,,,,,,,,,,,,,516,19,Woman,Right,3,44,0.15,1,0,-,0,0.1026041000004625,['n'],0.397063899996283,1.6139999999999999,1777.3801504000003,,,,,516,19,Woman,Right,
,,,,,,,,,,,,,,,,,516,19,Woman,Right,3,77,0.15,2,0,180,0,0.6170352999979514,['n'],0.37313250000443077,1.616,1780.6300990000018,,,,,516,19,Woman,Right,
,,,,,,,,,,,,,,,,,516,19,Woman,Right,3,78,0.15,1,180,-,180,0.346222599997418,['n'],0.685400700000173,1.6179999999999999,1784.0134761000008,,,,,516,19,Woman,Right,
,,,,,,,,,,,,,,,,,516,19,Woman,Right,3,13,0.4,2,0,180,180,1.4483093000017107,['n'],0.6548695000019507,1.3559999999999999,1788.8967430999983,,,,,516,19,Woman,Right,
,,,,,,,,,,,,,,,,,516,19,Woman,Right,3,21,0.4,2,0,180,0,0.2934144000028027,['n'],0.47808660000009695,1.6680000000000001,1792.0966988,,,,,516,19,Woman,Right,
,,,,,,,,,,,,,,,,,516,19,Woman,Right,3,75,0.15,2,180,0,0,0.4163929999995162,['n'],0.42310100000031525,1.672,1795.2473518000043,,,,,516,19,Woman,Right,
,,,,,,,,,,,,,,,,,516,19,Woman,Right,3,58,0.15,1,180,-,0,0.45543460000044433,['n'],0.8640334000010625,1.486,1798.7808736000006,,,,,516,19,Woman,Right,
,,,,,,,,,,,,,,,,,516,19,Woman,Right,3,10,0.4,1,180,-,0,0.08941559999948367,['n'],0.33594069999526255,1.504,1801.464007399998,,,,,516,19,Woman,Right,
,,,,,,,,,,,,,,,,,516,19,Woman,Right,3,71,0.15,2,180,0,0,0.3312145000018063,['n'],0.36784240000270074,1.328,1804.913575300001,,,,,516,19,Woman,Right,
,,,,,,,,,,,,,,,,,516,19,Woman,Right,3,59,0.15,2,180,0,0,0.017276699996727984,['n'],1.7857014000037452,1.38,1809.180809999998,,,,,516,19,Woman,Right,
,,,,,,,,,,,,,,,,,516,19,Woman,Right,3,70,0.15,1,180,-,0,0.01725080000323942,['n'],0.6459551000007195,1.38,1812.1311399999977,,,,,516,19,Woman,Right,
,,,,,,,,,,,,,,,,,516,19,Woman,Right,3,30,0.4,1,180,-,0,0.017293600001721643,['n'],0.6314662000004319,1.278,1815.413399099998,,,,,516,19,Woman,Right,
,,,,,,,,,,,,,,,,,516,19,Woman,Right,3,17,0.4,2,0,180,0,0.14061319999746047,['n'],1.3624010999992606,1.374,1819.5973467000003,,,,,516,19,Woman,Right,
,,,,,,,,,,,,,,,,,516,19,Woman,Right,3,69,0.15,2,0,180,0,0.07746990000305232,['n'],0.602829199997359,1.482,1822.5815643000024,,,,,516,19,Woman,Right,
,,,,,,,,,,,,,,,,,516,19,Woman,Right,3,12,0.4,1,0,-,0,0.021373099996708333,['n'],0.4746073999995133,1.436,1825.3300735000012,,,,,516,19,Woman,Right,
,,,,,,,,,,,,,,,,,516,19,Woman,Right,4,68,0.15,1,0,-,0,0.15867959999741288,['n'],0.8284547000002931,1.426,1836.463293599998,66.25,92.5,37.5,,516,19,Woman,Right,
,,,,,,,,,,,,,,,,,516,19,Woman,Right,4,24,0.4,1,0,-,0,0.017443899996578693,['n'],0.5424586000008276,1.434,1839.3466795999993,,,,,516,19,Woman,Right,
,,,,,,,,,,,,,,,,,516,19,Woman,Right,4,34,0.4,1,180,-,0,0.09520389999670442,['n'],0.41275660000246717,1.3860000000000001,1842.2809925999973,,,,,516,19,Woman,Right,
,,,,,,,,,,,,,,,,,516,19,Woman,Right,4,33,0.4,2,0,180,0,0.1472633000012138,['n'],0.49304229999688687,1.334,1845.2300392000034,,,,,516,19,Woman,Right,
,,,,,,,,,,,,,,,,,516,19,Woman,Right,4,77,0.15,2,0,180,0,9.419267599994782,['n'],2.1028656999988016,1.242,1859.4632426000026,,,,,516,19,Woman,Right,
,,,,,,,,,,,,,,,,,516,19,Woman,Right,4,38,0.4,1,180,-,180,1.1494214000049396,['y'],1.111567300002207,1.0,1864.0798719000013,,,,,516,19,Woman,Right,
,,,,,,,,,,,,,,,,,516,19,Woman,Right,4,13,0.4,2,0,180,180,0.4729739000031259,['y'],0.8403435000000172,1.3559999999999999,1868.9306092000043,,,,,516,19,Woman,Right,
,,,,,,,,,,,,,,,,,516,19,Woman,Right,4,69,0.15,2,0,180,180,0.40548020000278484,['y'],0.7685387000019546,1.3679999999999999,1872.3133541999996,,,,,516,19,Woman,Right,
,,,,,,,,,,,,,,,,,516,19,Woman,Right,4,61,0.15,2,0,180,180,0.3667377999954624,['y'],0.7066692000007606,1.412,1875.6307289000033,,,,,516,19,Woman,Right,
,,,,,,,,,,,,,,,,,516,19,Woman,Right,4,8,0.4,1,0,-,0,0.4928529999961029,['n'],1.193813300000329,1.256,1880.829832000003,,,,,516,19,Woman,Right,
,,,,,,,,,,,,,,,,,516,19,Woman,Right,4,65,0.15,2,0,180,180,0.23937740000110352,['n'],0.9141736999954446,1.4020000000000001,1884.5971045999977,,,,,516,19,Woman,Right,
,,,,,,,,,,,,,,,,,516,19,Woman,Right,4,17,0.4,2,0,180,180,0.32541240000136895,['y'],1.2431528000015533,1.738,1888.8472194999995,,,,,516,19,Woman,Right,
,,,,,,,,,,,,,,,,,516,19,Woman,Right,4,53,0.15,2,0,180,180,1.109962300004554,['y'],0.6915385999964201,1.696,1892.7972749000037,,,,,516,19,Woman,Right,
,,,,,,,,,,,,,,,,,516,19,Woman,Right,4,27,0.4,2,180,0,0,0.2334910999998101,['y'],0.8521170000021812,1.69,1896.1299671000015,,,,,516,19,Woman,Right,
,,,,,,,,,,,,,,,,,516,19,Woman,Right,4,7,1,2,180,0,0,0.27253729999938514,['y'],0.8764364999951795,1.976,1900.280436699999,,,,,516,19,Woman,Right,
,,,,,,,,,,,,,,,,,516,19,Woman,Right,4,40,0.4,1,0,-,0,1.4456810999981826,['n'],1.044978900004935,1.446,1905.1965302000026,,,,,516,19,Woman,Right,
,,,,,,,,,,,,,,,,,516,19,Woman,Right,4,74,0.15,1,180,-,180,0.5191765999989002,['n'],0.4614498000009917,1.448,1908.4132467000018,,,,,516,19,Woman,Right,
,,,,,,,,,,,,,,,,,516,19,Woman,Right,4,76,0.15,1,0,-,180,0.40780780000204686,['n'],0.605086499999743,1.6320000000000001,1911.6971279999998,,,,,516,19,Woman,Right,
,,,,,,,,,,,,,,,,,516,19,Woman,Right,4,1,1,2,0,180,180,0.2922418999951333,['y'],1.2539366999990307,2.0,1915.6811357999977,,,,,516,19,Woman,Right,
,,,,,,,,,,,,,,,,,516,19,Woman,Right,4,35,0.4,2,180,0,0,0.6380349999963073,['y'],0.9274294999995618,1.426,1920.1971170000033,,,,,516,19,Woman,Right,
,,,,,,,,,,,,,,,,,516,19,Woman,Right,4,66,0.15,1,180,-,180,0.4354705000005197,['n'],0.3357802000027732,1.4100000000000001,1923.2481550000011,,,,,516,19,Woman,Right,
,,,,,,,,,,,,,,,,,516,19,Woman,Right,4,20,0.4,1,0,-,0,0.27373859999352135,['n'],1.0079475000020466,1.746,1927.0471752000012,,,,,516,19,Woman,Right,
,,,,,,,,,,,,,,,,,516,19,Woman,Right,4,29,0.4,2,0,180,0,0.6786385000013979,['n'],0.39968109999608714,1.666,1930.680105899999,,,,,516,19,Woman,Right,
,,,,,,,,,,,,,,,,,516,19,Woman,Right,4,78,0.15,1,180,-,180,0.2995225999984541,['n'],0.5611495999983163,1.666,1933.8473614000031,,,,,516,19,Woman,Right,
,,,,,,,,,,,,,,,,,516,19,Woman,Right,4,48,0.15,1,0,-,180,0.36958980000054,['n'],0.3373667999985628,1.666,1936.8131950000025,,,,,516,19,Woman,Right,
,,,,,,,,,,,,,,,,,516,19,Woman,Right,4,52,0.15,1,0,-,0,0.20114889999968,['n'],0.5134552999952575,1.666,1939.9130388999984,,,,,516,19,Woman,Right,
,,,,,,,,,,,,,,,,,516,19,Woman,Right,4,54,0.15,1,180,-,0,0.4609935999978916,['n'],0.4822513000035542,1.3980000000000001,1943.5132108000034,,,,,516,19,Woman,Right,
,,,,,,,,,,,,,,,,,516,19,Woman,Right,4,23,0.4,2,180,0,0,0.37589630000002217,['y'],0.8743687000023783,1.828,1947.3465498000005,,,,,516,19,Woman,Right,
,,,,,,,,,,,,,,,,,516,19,Woman,Right,4,67,0.15,2,180,0,180,0.9856822000001557,['y'],0.9542214000030071,1.0,1951.6630284999992,,,,,516,19,Woman,Right,
,,,,,,,,,,,,,,,,,516,19,Woman,Right,4,10,0.4,1,180,-,0,0.5843261999980314,['y'],0.8193376999988686,1.548,1955.6964130999986,,,,,516,19,Woman,Right,
,,,,,,,,,,,,,,,,,516,19,Woman,Right,4,16,0.4,1,0,-,180,0.554104599999846,['y'],0.8834151999981259,1.766,1960.0303382999991,,,,,516,19,Woman,Right,
,,,,,,,,,,,,,,,,,516,19,Woman,Right,4,41,0.4,2,0,180,0,0.4801355999952648,['y'],0.8280099999974482,1.568,1963.7970601999987,,,,,516,19,Woman,Right,
,,,,,,,,,,,,,,,,,516,19,Woman,Right,4,73,0.15,2,0,180,0,0.19080250000115484,['n'],0.7567116999998689,1.4060000000000001,1966.963059200003,,,,,516,19,Woman,Right,
,,,,,,,,,,,,,,,,,516,19,Woman,Right,4,47,0.15,2,180,0,0,0.2959971000018413,['n'],0.4286205999960657,1.342,1969.8971342000004,,,,,516,19,Woman,Right,
,,,,,,,,,,,,,,,,,516,19,Woman,Right,4,51,0.15,2,180,0,0,0.24269700000149896,['y'],1.1499741999941762,1.392,1973.8130949000042,,,,,516,19,Woman,Right,
,,,,,,,,,,,,,,,,,516,19,Woman,Right,4,2,1,1,180,-,180,0.3959012999985134,['n'],0.9018668000062462,2.0,1977.8296590000027,,,,,516,19,Woman,Right,
,,,,,,,,,,,,,,,,,516,19,Woman,Right,4,18,0.4,1,180,-,0,0.4333459999979823,['y'],0.9830118000027142,1.706,1981.8297478000022,,,,,516,19,Woman,Right,
,,,,,,,,,,,,,,,,,516,19,Woman,Right,4,59,0.15,2,180,0,0,0.587581499996304,['y'],0.7506626999966102,1.6520000000000001,1985.4631953999997,,,,,516,19,Woman,Right,
,,,,,,,,,,,,,,,,,516,19,Woman,Right,4,62,0.15,1,180,-,180,0.33085230000142474,['n'],0.49545569999463623,1.256,1988.7630112999977,,,,,516,19,Woman,Right,
,,,,,,,,,,,,,,,,,516,19,Woman,Right,4,50,0.15,1,180,-,180,0.4396947999994154,['n'],0.36783350000041537,1.314,1991.8802899000002,,,,,516,19,Woman,Right,
,,,,,,,,,,,,,,,,,516,19,Woman,Right,4,14,0.4,1,180,-,180,0.6914245000007213,['n'],0.2958968000020832,1.316,1995.1303340000013,,,,,516,19,Woman,Right,
,,,,,,,,,,,,,,,,,516,19,Woman,Right,4,43,0.4,2,180,0,0,0.3275188999978127,['y'],0.7922285999957239,1.694,1998.6129777000024,,,,,516,19,Woman,Right,
,,,,,,,,,,,,,,,,,516,19,Woman,Right,4,12,0.4,1,0,-,0,0.4962669000015012,['n'],0.4652953000040725,1.3679999999999999,2002.8129639000035,,,,,516,19,Woman,Right,
,,,,,,,,,,,,,,,,,516,19,Woman,Right,4,63,0.15,2,180,0,180,0.12824320000072476,['n'],0.32892120000178693,1.366,2005.546319699999,,,,,516,19,Woman,Right,
,,,,,,,,,,,,,,,,,516,19,Woman,Right,4,37,0.4,2,0,180,180,0.6417908000003081,['y'],2.4342063999938546,1.952,2010.9470204000027,,,,,516,19,Woman,Right,
,,,,,,,,,,,,,,,,,516,19,Woman,Right,4,26,0.4,1,180,-,180,0.3528565999949933,['n'],0.370848799997475,1.366,2013.8811681000007,,,,,516,19,Woman,Right,
,,,,,,,,,,,,,,,,,516,19,Woman,Right,4,70,0.15,1,180,-,0,0.25657420000061393,['n'],1.1386736999993445,1.306,2017.930253300001,,,,,516,19,Woman,Right,
,,,,,,,,,,,,,,,,,516,19,Woman,Right,4,42,0.4,1,180,-,0,1.416827300003206,['n'],0.9641522000019904,1.0,2023.0801395000017,,,,,516,19,Woman,Right,
,,,,,,,,,,,,,,,,,516,19,Woman,Right,4,64,0.15,1,0,-,0,0.3692732999988948,['n'],0.4762929999997141,1.26,2026.1462819000008,,,,,516,19,Woman,Right,
,,,,,,,,,,,,,,,,,516,19,Woman,Right,4,57,0.15,2,0,180,0,0.10038999999960652,['n'],0.5333482999994885,1.422,2029.080160700003,,,,,516,19,Woman,Right,
,,,,,,,,,,,,,,,,,516,19,Woman,Right,4,45,0.15,2,0,180,180,0.2163908000002266,['n'],0.3721395999964443,1.3980000000000001,2032.012899100002,,,,,516,19,Woman,Right,
,,,,,,,,,,,,,,,,,516,19,Woman,Right,4,31,0.4,2,180,0,0,1.425600200003828,['n'],0.3250977999996394,1.4060000000000001,2035.9962115000017,,,,,516,19,Woman,Right,
,,,,,,,,,,,,,,,,,516,19,Woman,Right,4,46,0.15,1,180,-,0,0.5677827000035904,['y'],1.3660233999980846,1.3980000000000001,2040.6128807999994,,,,,516,19,Woman,Right,
,,,,,,,,,,,,,,,,,516,19,Woman,Right,4,25,0.4,2,0,180,0,0.2972869999939576,['n'],1.2625626000008197,1.3479999999999999,2044.3962326000037,,,,,516,19,Woman,Right,
,,,,,,,,,,,,,,,,,516,19,Woman,Right,4,36,0.4,1,0,-,0,0.5768367999990005,['n'],1.2150945000030333,1.424,2048.6470961000014,,,,,516,19,Woman,Right,
,,,,,,,,,,,,,,,,,516,19,Woman,Right,4,79,0.15,2,180,0,0,0.5033943999951589,['n'],0.3911337000026833,1.436,2051.4795672000037,,,,,516,19,Woman,Right,
,,,,,,,,,,,,,,,,,516,19,Woman,Right,4,11,0.4,2,180,0,0,0.31690309999976307,['y'],0.7541870999993989,1.828,2055.8462612000003,,,,,516,19,Woman,Right,
,,,,,,,,,,,,,,,,,516,19,Woman,Right,4,49,0.15,2,0,180,0,1.3633775999987847,['y'],1.2647278000004007,1.642,2060.7462994000016,,,,,516,19,Woman,Right,
,,,,,,,,,,,,,,,,,516,19,Woman,Right,4,56,0.15,1,0,-,180,0.3846235000019078,['y'],0.6976070000018808,1.272,2065.3464078000034,,,,,516,19,Woman,Right,
,,,,,,,,,,,,,,,,,516,19,Woman,Right,4,21,0.4,2,0,180,180,1.1993470000015805,['y'],0.9375319000027957,1.32,2070.9128219999984,,,,,516,19,Woman,Right,
,,,,,,,,,,,,,,,,,516,19,Woman,Right,4,9,0.4,2,0,180,180,0.28768910000508185,['y'],0.8264526999992086,1.272,2074.280289800001,,,,,516,19,Woman,Right,
,,,,,,,,,,,,,,,,,516,19,Woman,Right,4,58,0.15,1,180,-,0,0.23617079999530688,['y'],1.1622191999995266,1.6480000000000001,2078.0127904000037,,,,,516,19,Woman,Right,
,,,,,,,,,,,,,,,,,516,19,Woman,Right,4,71,0.15,2,180,0,0,0.3057766999991145,['y'],1.52313359999971,1.678,2082.1462272999997,,,,,516,19,Woman,Right,
,,,,,,,,,,,,,,,,,516,19,Woman,Right,4,44,0.15,1,0,-,0,0.27412420000473503,['y'],0.7710106999948039,1.338,2085.5795068000007,,,,,516,19,Woman,Right,
,,,,,,,,,,,,,,,,,516,19,Woman,Right,4,60,0.15,1,0,-,0,0.14886619999742834,['y'],0.627475900000718,1.766,2088.7794482000027,,,,,516,19,Woman,Right,
,,,,,,,,,,,,,,,,,516,19,Woman,Right,4,15,0.4,2,180,0,0,0.2796072000055574,['y'],0.7406958999999915,1.6099999999999999,2092.4128189999974,,,,,516,19,Woman,Right,
,,,,,,,,,,,,,,,,,516,19,Woman,Right,4,3,1,2,180,0,0,0.3535972000026959,['y'],0.8050686999995378,1.87,2097.2461587,,,,,516,19,Woman,Right,
,,,,,,,,,,,,,,,,,516,19,Woman,Right,4,72,0.15,1,0,-,180,1.0642850000003818,['y'],1.1413289999982226,1.3900000000000001,2101.7627187000035,,,,,516,19,Woman,Right,
,,,,,,,,,,,,,,,,,516,19,Woman,Right,4,32,0.4,1,0,-,180,0.3612751999971806,['y'],0.36646440000185976,1.228,2104.9127219,,,,,516,19,Woman,Right,
,,,,,,,,,,,,,,,,,516,19,Woman,Right,4,6,1,1,180,-,180,0.6591937999983202,['n'],0.9343541000052937,2.0,2109.6968325999987,,,,,516,19,Woman,Right,
,,,,,,,,,,,,,,,,,516,19,Woman,Right,4,39,0.4,2,180,0,0,0.5613838999997824,['n'],0.7192624999952386,1.676,2113.296915799998,,,,,516,19,Woman,Right,
,,,,,,,,,,,,,,,,,516,19,Woman,Right,4,75,0.15,2,180,0,180,0.4076883000016096,['n'],0.7597573999955785,1.362,2116.9467730000033,,,,,516,19,Woman,Right,
,,,,,,,,,,,,,,,,,516,19,Woman,Right,4,4,1,1,0,-,0,0.3854535000064061,['y'],0.8400039999978617,2.0,2120.529333999999,,,,,516,19,Woman,Right,
,,,,,,,,,,,,,,,,,516,19,Woman,Right,4,22,0.4,1,180,-,180,0.20460299999831477,['y'],0.9284054000017932,1.6440000000000001,2125.862770400003,,,,,516,19,Woman,Right,
,,,,,,,,,,,,,,,,,516,19,Woman,Right,4,19,0.4,2,180,0,0,0.43300389999785693,['y'],0.8804306999954861,1.73,2129.8300439000013,,,,,516,19,Woman,Right,
,,,,,,,,,,,,,,,,,516,19,Woman,Right,4,5,1,2,0,180,180,0.7047597000055248,['y'],0.7937378999995417,1.766,2133.946015200003,,,,,516,19,Woman,Right,
,,,,,,,,,,,,,,,,,516,19,Woman,Right,4,28,0.4,1,0,-,0,0.19445740000082878,['n'],0.7140901000020676,1.4100000000000001,2137.280239300002,,,,,516,19,Woman,Right,
,,,,,,,,,,,,,,,,,516,19,Woman,Right,4,55,0.15,2,180,0,0,0.5408602000024985,['n'],0.9064761999979964,1.584,2141.296194499999,,,,,516,19,Woman,Right,
,,,,,,,,,,,,,,,,,516,19,Woman,Right,4,30,0.4,1,180,-,180,1.2016111999982968,['n'],1.1142307999980403,1.97,2146.1626653999992,,,,,516,19,Woman,Right,
,,,,,,,,,,,,,,,,,516,19,Woman,Right,4,0,1,1,0,-,0,0.25470870000572177,['n'],1.2196183999985806,1.97,2146.1626653999992,,,,,516,19,Woman,Right,
,,,,,,,,,,,,,,,,,516,19,Woman,Right,5,14,0.4,1,180,-,180,0.3545830000002752,['n'],0.9322597000063979,1.57,2157.696450299998,68.75,67.5,62.5,,516,19,Woman,Right,
,,,,,,,,,,,,,,,,,516,19,Woman,Right,5,37,0.4,2,0,180,180,0.48009940000338247,['y'],0.8205680999963079,1.812,2161.5292606000003,,,,,516,19,Woman,Right,
,,,,,,,,,,,,,,,,,516,19,Woman,Right,5,46,0.15,1,180,-,0,1.7907502000016393,['n'],1.413976800002274,1.558,2167.080036500003,,,,,516,19,Woman,Right,
,,,,,,,,,,,,,,,,,516,19,Woman,Right,5,11,0.4,2,180,0,0,0.9500765999982832,['y'],0.9182070999959251,1.922,2171.763064300001,,,,,516,19,Woman,Right,
,,,,,,,,,,,,,,,,,516,19,Woman,Right,5,25,0.4,2,0,180,180,0.2650101999970502,['y'],1.0142563999979757,1.6360000000000001,2175.1634440999987,,,,,516,19,Woman,Right,
,,,,,,,,,,,,,,,,,516,19,Woman,Right,5,40,0.4,1,0,-,0,0.3170615999988513,['n'],1.1591224000003422,1.3980000000000001,2179.479192999999,,,,,516,19,Woman,Right,
,,,,,,,,,,,,,,,,,516,19,Woman,Right,5,57,0.15,2,0,180,180,0.6444171000039205,['y'],2.1436675999939325,1.42,2184.780049599998,,,,,516,19,Woman,Right,
,,,,,,,,,,,,,,,,,516,19,Woman,Right,5,52,0.15,1,0,-,180,0.41868930000055116,['n'],0.8245764999956009,1.0,2188.4798868,,,,,516,19,Woman,Right,
,,,,,,,,,,,,,,,,,516,19,Woman,Right,5,27,0.4,2,180,0,0,0.40287009999883594,['y'],0.9527197999996133,1.682,2192.412637499998,,,,,516,19,Woman,Right,
,,,,,,,,,,,,,,,,,516,19,Woman,Right,5,34,0.4,1,180,-,0,0.3503352000043378,['y'],0.8651537999976426,1.3980000000000001,2195.9459289000006,,,,,516,19,Woman,Right,
,,,,,,,,,,,,,,,,,516,19,Woman,Right,5,21,0.4,2,0,180,180,0.3199823999966611,['y'],0.7693803000001935,1.784,2199.4299788999997,,,,,516,19,Woman,Right,
,,,,,,,,,,,,,,,,,516,19,Woman,Right,5,73,0.15,2,0,180,0,0.1544039000000339,['y'],0.7855820000040694,1.722,2202.8125259000008,,,,,516,19,Woman,Right,
,,,,,,,,,,,,,,,,,516,19,Woman,Right,5,8,0.4,1,0,-,0,0.3336007999969297,['y'],0.8914078000016161,1.62,2206.412500999999,,,,,516,19,Woman,Right,
,,,,,,,,,,,,,,,,,516,19,Woman,Right,5,29,0.4,2,0,180,0,0.5189955999958329,['y'],0.9229053999952157,1.624,2210.262790200002,,,,,516,19,Woman,Right,
,,,,,,,,,,,,,,,,,516,19,Woman,Right,5,28,0.4,1,0,-,0,0.3477777000007336,['y'],0.9077380000017001,1.624,2213.5798999000035,,,,,516,19,Woman,Right,
,,,,,,,,,,,,,,,,,516,19,Woman,Right,5,19,0.4,2,180,0,180,0.4207163000028231,['n'],0.923868499994569,1.624,2213.5798999000035,,,,,516,19,Woman,Right,
,,,,,,,,,,,,,,,,,516,19,Woman,Right,5,41,0.4,2,0,180,0,0.4223738000000594,['n'],0.8605538999981945,1.202,2221.145917499998,,,,,516,19,Woman,Right,
,,,,,,,,,,,,,,,,,516,19,Woman,Right,5,48,0.15,1,0,-,0,0.29740270000183955,['n'],1.4453396999961114,1.3980000000000001,2225.1468373000025,,,,,516,19,Woman,Right,
,,,,,,,,,,,,,,,,,516,19,Woman,Right,5,4,1,1,0,-,0,0.1540571000005002,['n'],1.2219565999985207,2.0,2228.8957792,,,,,516,19,Woman,Right,
,,,,,,,,,,,,,,,,,516,19,Woman,Right,5,59,0.15,2,180,0,180,0.24988110000413144,['n'],0.9978657000028761,1.362,2232.6299574000004,,,,,516,19,Woman,Right,
,,,,,,,,,,,,,,,,,516,19,Woman,Right,5,68,0.15,1,0,-,180,0.08643939999456052,['n'],1.07791189999989,1.3860000000000001,2235.9625742999997,,,,,516,19,Woman,Right,
,,,,,,,,,,,,,,,,,516,19,Woman,Right,5,51,0.15,2,180,0,180,0.016698699997505173,['n'],0.6552910000027623,1.396,2239.379181700002,,,,,516,19,Woman,Right,
,,,,,,,,,,,,,,,,,516,19,Woman,Right,5,31,0.4,2,180,0,180,0.016893599997274578,['n'],0.4063423999978113,1.3679999999999999,2242.029755900003,,,,,516,19,Woman,Right,
,,,,,,,,,,,,,,,,,516,19,Woman,Right,5,42,0.4,1,180,-,180,0.6627379999990808,['n'],1.1995979999992414,1.3679999999999999,2242.029755900003,,,,,516,19,Woman,Right,
,,,,,,,,,,,,,,,,,516,19,Woman,Right,5,64,0.15,1,0,-,0,0.17568089999986114,['n'],0.4083886000007624,1.448,2250.6965528,,,,,516,19,Woman,Right,
,,,,,,,,,,,,,,,,,516,19,Woman,Right,5,55,0.15,2,180,0,180,0.07957639999949606,['n'],1.0565432000003057,1.318,2254.029097700004,,,,,516,19,Woman,Right,
,,,,,,,,,,,,,,,,,516,19,Woman,Right,5,61,0.15,2,0,180,180,0.09901739999622805,['n'],0.6811550999991596,1.318,2257.0301235000006,,,,,516,19,Woman,Right,
,,,,,,,,,,,,,,,,,516,19,Woman,Right,5,79,0.15,2,180,0,0,0.22854460000235122,['n'],0.31270519999816315,1.416,2260.1123910000024,,,,,516,19,Woman,Right,
,,,,,,,,,,,,,,,,,516,19,Woman,Right,5,5,1,2,0,180,180,1.7095738999996684,['y'],0.9778736000007484,1.822,2267.7458230999982,,,,,516,19,Woman,Right,
,,,,,,,,,,,,,,,,,516,19,Woman,Right,5,16,0.4,1,0,-,0,0.16390289999981178,['n'],1.2352391999957035,1.434,2272.0790008999975,,,,,516,19,Woman,Right,
,,,,,,,,,,,,,,,,,516,19,Woman,Right,5,60,0.15,1,0,-,0,0.10716330000286689,['n'],0.4355537000010372,1.438,2274.862764800004,,,,,516,19,Woman,Right,
,,,,,,,,,,,,,,,,,516,19,Woman,Right,5,6,1,1,180,-,180,0.39740470000106143,['n'],1.0835961999982828,1.736,2278.662654599997,,,,,516,19,Woman,Right,
,,,,,,,,,,,,,,,,,516,19,Woman,Right,5,67,0.15,2,180,0,0,0.45532650000677677,['n'],0.3560034000038286,1.6360000000000001,2281.6128879000025,,,,,516,19,Woman,Right,
,,,,,,,,,,,,,,,,,516,19,Woman,Right,5,65,0.15,2,0,180,0,0.043133599996508565,['n'],0.44425990000308957,1.334,2284.5125485000026,,,,,516,19,Woman,Right,
,,,,,,,,,,,,,,,,,516,19,Woman,Right,5,12,0.4,1,0,-,0,0.016684199996234383,['n'],0.3486274000024423,1.4020000000000001,2287.1625889999996,,,,,516,19,Woman,Right,
,,,,,,,,,,,,,,,,,516,19,Woman,Right,5,56,0.15,1,0,-,0,0.05206059999909485,['n'],0.48475100000359816,1.322,2289.9965637999994,,,,,516,19,Woman,Right,
,,,,,,,,,,,,,,,,,516,19,Woman,Right,5,38,0.4,1,180,-,180,0.046482199999445584,['n'],0.30126860000018496,1.3639999999999999,2292.612880499997,,,,,516,19,Woman,Right,
,,,,,,,,,,,,,,,,,516,19,Woman,Right,5,50,0.15,1,180,-,0,0.5094740999993519,['n'],0.2932460000010906,1.0,2296.0457324000017,,,,,516,19,Woman,Right,
,,,,,,,,,,,,,,,,,516,19,Woman,Right,5,24,0.4,1,0,-,0,0.13911080000252696,['n'],0.9024109999954817,1.134,2299.6630411000006,,,,,516,19,Woman,Right,
,,,,,,,,,,,,,,,,,516,19,Woman,Right,5,35,0.4,2,180,0,180,0.032303899999533314,['n'],0.6467515000040294,1.12,2302.7457680000007,,,,,516,19,Woman,Right,
,,,,,,,,,,,,,,,,,516,19,Woman,Right,5,77,0.15,2,0,180,180,0.3352132999934838,['n'],0.6229553000011947,1.202,2306.3292359000043,,,,,516,19,Woman,Right,
,,,,,,,,,,,,,,,,,516,19,Woman,Right,5,1,1,2,0,180,180,0.5690928999974858,['y'],0.6481730000014068,2.0,2310.079935900001,,,,,516,19,Woman,Right,
,,,,,,,,,,,,,,,,,516,19,Woman,Right,5,3,1,2,180,0,0,0.36771020000014687,['y'],1.2318922999984352,2.0,2314.1289211999974,,,,,516,19,Woman,Right,
,,,,,,,,,,,,,,,,,516,19,Woman,Right,5,76,0.15,1,0,-,0,0.15609609999955865,['n'],0.6804467999972985,1.252,2317.1289829000016,,,,,516,19,Woman,Right,
,,,,,,,,,,,,,,,,,516,19,Woman,Right,5,32,0.4,1,0,-,0,0.07365369999752147,['n'],0.40889249999599997,1.408,2319.7457569000035,,,,,516,19,Woman,Right,
,,,,,,,,,,,,,,,,,516,19,Woman,Right,5,71,0.15,2,180,0,180,0.036619999998947605,['n'],0.46513779999804683,1.4020000000000001,2322.4962130999993,,,,,516,19,Woman,Right,
,,,,,,,,,,,,,,,,,516,19,Woman,Right,5,72,0.15,1,0,-,0,1.3070316999946954,['n'],0.4740609000000404,1.416,2326.8128307000006,,,,,516,19,Woman,Right,
,,,,,,,,,,,,,,,,,516,19,Woman,Right,5,15,0.4,2,180,0,0,0.22442660000524484,['y'],1.0416525000036927,1.416,2326.8128307000006,,,,,516,19,Woman,Right,
,,,,,,,,,,,,,,,,,516,19,Woman,Right,5,17,0.4,2,0,180,180,0.2712935000017751,['y'],0.7789979000008316,1.77,2334.246320799997,,,,,516,19,Woman,Right,
,,,,,,,,,,,,,,,,,516,19,Woman,Right,5,62,0.15,1,180,-,180,0.3713579000032041,['n'],0.4270586999991792,1.3479999999999999,2337.4289714999977,,,,,516,19,Woman,Right,
,,,,,,,,,,,,,,,,,516,19,Woman,Right,5,13,0.4,2,0,180,180,0.8630814999996801,['y'],0.8433369000049424,1.784,2341.496176300003,,,,,516,19,Woman,Right,
,,,,,,,,,,,,,,,,,516,19,Woman,Right,5,0,1,1,0,-,0,0.31621199999790406,['n'],1.2675280000039493,1.608,2345.279061100002,,,,,516,19,Woman,Right,
,,,,,,,,,,,,,,,,,516,19,Woman,Right,5,45,0.15,2,0,180,180,0.2123286999994889,['y'],1.596015900002385,1.608,2345.279061100002,,,,,516,19,Woman,Right,
,,,,,,,,,,,,,,,,,516,19,Woman,Right,5,30,0.4,1,180,-,0,1.6586792999951285,['y'],1.7818018999969354,1.1440000000000001,2355.945863400004,,,,,516,19,Woman,Right,
,,,,,,,,,,,,,,,,,516,19,Woman,Right,5,66,0.15,1,180,-,0,0.8685112000021036,['n'],0.7658771999995224,1.246,2359.8458108999985,,,,,516,19,Woman,Right,
,,,,,,,,,,,,,,,,,516,19,Woman,Right,5,63,0.15,2,180,0,0,0.40097870000317926,['n'],0.3908028999940143,1.3559999999999999,2362.745669199998,,,,,516,19,Woman,Right,
,,,,,,,,,,,,,,,,,516,19,Woman,Right,5,70,0.15,1,180,-,0,0.8436646999980439,['y'],0.8944104999973206,1.244,2366.9627841999973,,,,,516,19,Woman,Right,
,,,,,,,,,,,,,,,,,516,19,Woman,Right,5,49,0.15,2,0,180,0,0.2032857000012882,['n'],0.4310896999959368,1.678,2369.9455334000013,,,,,516,19,Woman,Right,
,,,,,,,,,,,,,,,,,516,19,Woman,Right,5,23,0.4,2,180,0,180,0.16852020000078483,['n'],0.47972419999859994,1.532,2372.829641600001,,,,,516,19,Woman,Right,
,,,,,,,,,,,,,,,,,516,19,Woman,Right,5,39,0.4,2,180,0,180,0.45920330000080867,['n'],0.33593200000177603,1.272,2376.095915800004,,,,,516,19,Woman,Right,
,,,,,,,,,,,,,,,,,516,19,Woman,Right,5,9,0.4,2,0,180,0,0.1941748000026564,['n'],0.3527209000021685,1.3780000000000001,2378.946471000003,,,,,516,19,Woman,Right,
,,,,,,,,,,,,,,,,,516,19,Woman,Right,5,69,0.15,2,0,180,0,0.13712279999890598,['n'],0.3601254000022891,1.324,2381.6956350000037,,,,,516,19,Woman,Right,
,,,,,,,,,,,,,,,,,516,19,Woman,Right,5,26,0.4,1,180,-,180,0.5607525999948848,['n'],0.4086881000039284,1.302,2385.0121642000013,,,,,516,19,Woman,Right,
,,,,,,,,,,,,,,,,,516,19,Woman,Right,5,74,0.15,1,180,-,0,0.11168629999883706,['n'],0.4493801999997231,1.426,2387.9290468000036,,,,,516,19,Woman,Right,
,,,,,,,,,,,,,,,,,516,19,Woman,Right,5,10,0.4,1,180,-,0,0.26053049999609357,['n'],0.33778029999666614,1.4020000000000001,2390.8629409999994,,,,,516,19,Woman,Right,
,,,,,,,,,,,,,,,,,516,19,Woman,Right,5,20,0.4,1,0,-,0,0.082125900000392,['n'],0.36231299999781186,1.448,2393.429510599999,,,,,516,19,Woman,Right,
,,,,,,,,,,,,,,,,,516,19,Woman,Right,5,47,0.15,2,180,0,0,0.03807980000419775,['n'],0.34663320000254316,1.45,2396.112947200003,,,,,516,19,Woman,Right,
,,,,,,,,,,,,,,,,,516,19,Woman,Right,5,75,0.15,2,180,0,0,0.180160199997772,['n'],1.0510428000052343,1.476,2399.6127506999983,,,,,516,19,Woman,Right,
,,,,,,,,,,,,,,,,,516,19,Woman,Right,5,44,0.15,1,0,-,0,0.2632610000000568,['n'],0.6191233999998076,1.464,2402.6461918999994,,,,,516,19,Woman,Right,
,,,,,,,,,,,,,,,,,516,19,Woman,Right,5,22,0.4,1,180,-,180,0.016980300002614968,['n'],0.28747049999947194,1.46,2405.196063000003,,,,,516,19,Woman,Right,
,,,,,,,,,,,,,,,,,516,19,Woman,Right,5,43,0.4,2,180,0,180,0.09987669999827631,['n'],0.23301370000262978,1.46,2407.545422199997,,,,,516,19,Woman,Right,
,,,,,,,,,,,,,,,,,516,19,Woman,Right,5,53,0.15,2,0,180,0,0.9717166000045836,['n'],0.7166885000042384,1.46,2411.328741199999,,,,,516,19,Woman,Right,
,,,,,,,,,,,,,,,,,516,19,Woman,Right,5,78,0.15,1,180,-,0,0.01673070000106236,['n'],0.2697431999986293,1.464,2413.812106700003,,,,,516,19,Woman,Right,
,,,,,,,,,,,,,,,,,516,19,Woman,Right,5,7,1,2,180,0,0,0.7664845000035712,['y'],0.8219332000007853,1.654,2418.378737500003,,,,,516,19,Woman,Right,
,,,,,,,,,,,,,,,,,516,19,Woman,Right,5,2,1,1,180,-,180,0.2823071000020718,['n'],1.2144112999958452,1.642,2423.046362699999,,,,,516,19,Woman,Right,
,,,,,,,,,,,,,,,,,516,19,Woman,Right,5,36,0.4,1,0,-,0,0.1131835999985924,['n'],0.573888300001272,1.642,2425.8288103000014,,,,,516,19,Woman,Right,
,,,,,,,,,,,,,,,,,516,19,Woman,Right,5,33,0.4,2,0,180,0,0.13652779999392806,['n'],0.5265170999991824,1.604,2428.6473410000035,,,,,516,19,Woman,Right,
,,,,,,,,,,,,,,,,,516,19,Woman,Right,5,54,0.15,1,180,-,0,0.016653999999107327,['n'],0.3127230000027339,1.604,2431.145388099998,,,,,516,19,Woman,Right,
,,,,,,,,,,,,,,,,,516,19,Woman,Right,5,58,0.15,1,180,-,0,0.025793200002226513,['n'],0.3185181000008015,1.604,2433.762219700002,,,,,516,19,Woman,Right,
,,,,,,,,,,,,,,,,,516,19,Woman,Right,5,18,0.4,1,180,-,180,0.5154049000047962,['n'],0.6875905999986571,1.442,2437.1454860000013,,,,,516,19,Woman,Right,
,,,,,,,,,,,,,,,,,,,,,,,,,,,,,,,,,60.0,87.5,40.0,2128.9057776000045,,,,,
