p_block,p_section,p_coherence,p_direction1,p_direction2,p_direction_response,p_direction_RT,p_change_response,p_change_RT,p_confidence,p_full_correct,p_without5_correct,p_full_total,p_without5_total,p_full_avg,p_witout5_avg,p_total_time,sub,age,sex,handedness,loop,trial randomization,coherence,condition,direction1,direction2,direction_response,direction_RT,change_response,change_RT,change_confidence,change_confidence_RT,block_direction_avg,block_stable_avg,block_change_avg,total_time,sub,age,sex,handedness,
1,1,1.0,180,-,180,0.0650042999999414,-,-,-,,,,,,,,1002,25,Woman,Right,,,,,,,,,,,,,,,,,1002,25,Woman,Right,
1,1,1.0,0,-,0,4.479880500000036,-,-,-,,,,,,,,1002,25,Woman,Right,,,,,,,,,,,,,,,,,1002,25,Woman,Right,
1,1,1.0,180,-,180,1.782811899999956,-,-,-,,,,,,,,1002,25,Woman,Right,,,,,,,,,,,,,,,,,1002,25,Woman,Right,
1,1,1.0,180,-,180,0.6421172000000297,-,-,-,,,,,,,,1002,25,Woman,Right,,,,,,,,,,,,,,,,,1002,25,Woman,Right,
1,1,1.0,0,-,0,0.2671525999999176,-,-,-,,,,,,,,1002,25,Woman,Right,,,,,,,,,,,,,,,,,1002,25,Woman,Right,
1,1,1.0,180,-,180,0.016892200000029334,-,-,-,,,,,,,,1002,25,Woman,Right,,,,,,,,,,,,,,,,,1002,25,Woman,Right,
1,1,1.0,180,-,180,0.05220970000004854,-,-,-,,,,,,,,1002,25,Woman,Right,,,,,,,,,,,,,,,,,1002,25,Woman,Right,
1,1,1.0,0,-,0,0.7174873000001298,-,-,-,,,,,,,,1002,25,Woman,Right,,,,,,,,,,,,,,,,,1002,25,Woman,Right,
1,1,1.0,180,-,180,2.490311100000099,-,-,-,,,,,,,,1002,25,Woman,Right,,,,,,,,,,,,,,,,,1002,25,Woman,Right,
1,1,1.0,0,-,0,0.01747760000012022,-,-,-,10,10,10,10,1.0,1.0,,1002,25,Woman,Right,,,,,,,,,,,,,,,,,1002,25,Woman,Right,
2,1,0.4,180,-,0,8.915060499999981,-,-,-,,,,,,,,1002,25,Woman,Right,,,,,,,,,,,,,,,,,1002,25,Woman,Right,
2,1,0.4,180,-,180,1.7484068999999636,-,-,-,,,,,,,,1002,25,Woman,Right,,,,,,,,,,,,,,,,,1002,25,Woman,Right,
2,1,0.4,0,-,0,0.23638430000005428,-,-,-,,,,,,,,1002,25,Woman,Right,,,,,,,,,,,,,,,,,1002,25,Woman,Right,
2,1,0.4,180,-,180,0.016201899999941816,-,-,-,,,,,,,,1002,25,Woman,Right,,,,,,,,,,,,,,,,,1002,25,Woman,Right,
2,1,0.15,180,-,0,1.4701700000000528,-,-,-,,,,,,,,1002,25,Woman,Right,,,,,,,,,,,,,,,,,1002,25,Woman,Right,
2,1,0.15,180,-,180,2.438360800000055,-,-,-,,,,,,,,1002,25,Woman,Right,,,,,,,,,,,,,,,,,1002,25,Woman,Right,
2,1,0.15,180,-,180,0.3510972999999922,-,-,-,,,,,,,,1002,25,Woman,Right,,,,,,,,,,,,,,,,,1002,25,Woman,Right,
2,1,0.15,180,-,180,0.7949022000000241,-,-,-,,,,,,,,1002,25,Woman,Right,,,,,,,,,,,,,,,,,1002,25,Woman,Right,
2,1,0.4,0,-,0,0.017131999999946856,-,-,-,,,,,,,,1002,25,Woman,Right,,,,,,,,,,,,,,,,,1002,25,Woman,Right,
2,1,0.15,0,-,0,0.016170000000101936,-,-,-,8,4,10,5,0.8,0.8,,1002,25,Woman,Right,,,,,,,,,,,,,,,,,1002,25,Woman,Right,
3,2,1.0,180,0,180,5.048301100000117,['y'],5.234025299999985,2.0,,,,,,,,1002,25,Woman,Right,,,,,,,,,,,,,,,,,1002,25,Woman,Right,
3,2,1.0,180,0,0,1.4988961000001382,['y'],2.810600200000181,2.0,,,,,,,,1002,25,Woman,Right,,,,,,,,,,,,,,,,,1002,25,Woman,Right,
3,2,1.0,180,0,0,2.634427699999833,['y'],1.5017597000000933,2.0,,,,,,,,1002,25,Woman,Right,,,,,,,,,,,,,,,,,1002,25,Woman,Right,
3,2,1.0,180,0,0,1.74416999999994,['y'],1.655818699999827,2.0,,,,,,,,1002,25,Woman,Right,,,,,,,,,,,,,,,,,1002,25,Woman,Right,
3,2,1.0,180,0,0,1.79166280000004,['y'],1.3629366999998638,2.0,,,,,,,,1002,25,Woman,Right,,,,,,,,,,,,,,,,,1002,25,Woman,Right,
3,2,1.0,180,0,0,1.6983905000001869,['y'],0.9776057999999921,2.0,,,,,,,,1002,25,Woman,Right,,,,,,,,,,,,,,,,,1002,25,Woman,Right,
3,2,1.0,0,180,180,1.7629512000000886,['y'],1.2796058999999786,1.81,,,,,,,,1002,25,Woman,Right,,,,,,,,,,,,,,,,,1002,25,Woman,Right,
3,2,1.0,0,180,180,2.368782900000042,['y'],0.8131261000000904,2.0,,,,,,,,1002,25,Woman,Right,,,,,,,,,,,,,,,,,1002,25,Woman,Right,
3,2,1.0,0,180,180,1.9826342999999724,['y'],1.011048300000084,1.782,,,,,,,,1002,25,Woman,Right,,,,,,,,,,,,,,,,,1002,25,Woman,Right,
3,2,1.0,0,180,180,1.4995076000000154,['y'],1.2271842000000106,1.978,9,9,10,10,0.9,0.9,,1002,25,Woman,Right,,,,,,,,,,,,,,,,,1002,25,Woman,Right,
4,2,0.4,0,180,180,4.481686200000013,['y'],0.24812759999986156,1.9020000000000001,,,,,,,,1002,25,Woman,Right,,,,,,,,,,,,,,,,,1002,25,Woman,Right,
4,2,0.15,0,180,180,1.557928999999831,['y'],0.9796546000000035,1.5979999999999999,,,,,,,,1002,25,Woman,Right,,,,,,,,,,,,,,,,,1002,25,Woman,Right,
4,2,0.15,0,180,180,3.4294360999999753,['y'],0.9668216999998549,1.3860000000000001,,,,,,,,1002,25,Woman,Right,,,,,,,,,,,,,,,,,1002,25,Woman,Right,
4,2,0.15,0,180,0,3.0556546999998773,['y'],1.4090871999999308,1.0,,,,,,,,1002,25,Woman,Right,,,,,,,,,,,,,,,,,1002,25,Woman,Right,
4,2,0.15,0,180,180,1.941963499999929,['y'],0.8200845999999729,1.588,,,,,,,,1002,25,Woman,Right,,,,,,,,,,,,,,,,,1002,25,Woman,Right,
4,2,0.15,180,0,0,1.0489698000001226,['y'],0.8723147000000608,1.538,,,,,,,,1002,25,Woman,Right,,,,,,,,,,,,,,,,,1002,25,Woman,Right,
4,2,0.4,0,180,180,3.686513800000057,['y'],1.0398945000001731,1.538,,,,,,,,1002,25,Woman,Right,,,,,,,,,,,,,,,,,1002,25,Woman,Right,
4,2,0.4,180,0,0,1.0578706999999667,['y'],0.9083390000000691,1.84,,,,,,,,1002,25,Woman,Right,,,,,,,,,,,,,,,,,1002,25,Woman,Right,
4,2,0.4,0,180,180,1.1997854999999618,['y'],0.9304535999999644,1.82,,,,,,,,1002,25,Woman,Right,,,,,,,,,,,,,,,,,1002,25,Woman,Right,
4,2,0.15,180,0,180,1.2994028000000526,['y'],0.969726000000037,1.718,8,4,10,4,0.8,1.0,,1002,25,Woman,Right,,,,,,,,,,,,,,,,,1002,25,Woman,Right,
5,3,1.0,0,180,180,8.280515400000013,['y'],0.40809059999992314,1.678,,,,,,,,1002,25,Woman,Right,,,,,,,,,,,,,,,,,1002,25,Woman,Right,
5,3,1.0,0,180,180,3.881584200000134,['y'],0.6958194999999705,2.0,,,,,,,,1002,25,Woman,Right,,,,,,,,,,,,,,,,,1002,25,Woman,Right,
5,3,0.15,180,0,0,0.9298227999997835,['y'],0.7123603000000003,1.7,,,,,,,,1002,25,Woman,Right,,,,,,,,,,,,,,,,,1002,25,Woman,Right,
5,3,0.15,0,180,0,2.415045799999916,['y'],1.0316675999999916,1.58,,,,,,,,1002,25,Woman,Right,,,,,,,,,,,,,,,,,1002,25,Woman,Right,
5,3,1.0,180,0,0,1.449529900000016,['y'],0.8192308000000139,1.708,,,,,,,,1002,25,Woman,Right,,,,,,,,,,,,,,,,,1002,25,Woman,Right,
5,3,0.15,180,0,0,1.0569282999999814,['y'],1.9308733000000302,1.5819999999999999,,,,,,,,1002,25,Woman,Right,,,,,,,,,,,,,,,,,1002,25,Woman,Right,
5,3,0.4,180,0,0,2.14910309999982,['y'],0.8023497000001498,1.876,,,,,,,,1002,25,Woman,Right,,,,,,,,,,,,,,,,,1002,25,Woman,Right,
5,3,0.4,0,180,180,1.54613089999998,['y'],6.024002699999983,1.678,,,,,,,,1002,25,Woman,Right,,,,,,,,,,,,,,,,,1002,25,Woman,Right,
5,3,1.0,180,0,0,3.8538352999999006,['y'],0.7371577999999772,1.78,,,,,,,,1002,25,Woman,Right,,,,,,,,,,,,,,,,,1002,25,Woman,Right,
5,3,0.4,180,0,0,0.5314573999999084,['y'],1.1705188999999336,1.8479999999999999,9,7,10,7,0.9,1.0,,1002,25,Woman,Right,,,,,,,,,,,,,,,,,1002,25,Woman,Right,
,,,,,,,,,,,,,,,,6.4000000747910235e-06,1002,25,Woman,Right,,,,,,,,,,,,,,,,,1002,25,Woman,Right,
,,,,,,,,,,,,,,,,,1002,25,Woman,Right,0,9,0.4,2,0,180,180,1.1721702999998342,['y'],2.9835937000000285,1.73,345.2013478000001,,,,,1002,25,Woman,Right,
,,,,,,,,,,,,,,,,,1002,25,Woman,Right,0,7,1,2,180,0,0,1.1043210000000272,['y'],1.024080199999844,1.938,351.0688954,,,,,1002,25,Woman,Right,
,,,,,,,,,,,,,,,,,1002,25,Woman,Right,0,55,0.15,2,180,0,0,0.7484832999998616,['y'],0.9063086999999541,1.936,355.2854714,,,,,1002,25,Woman,Right,
,,,,,,,,,,,,,,,,,1002,25,Woman,Right,0,62,0.15,1,180,-,180,1.3106586000001244,['y'],0.8082498999999643,1.694,360.6700840000001,,,,,1002,25,Woman,Right,
,,,,,,,,,,,,,,,,,1002,25,Woman,Right,0,40,0.4,1,0,-,0,2.7581739000002017,['y'],4.823609399999896,1.694,370.8526363000001,,,,,1002,25,Woman,Right,
,,,,,,,,,,,,,,,,,1002,25,Woman,Right,0,56,0.15,1,0,-,0,6.726670600000034,['n'],2.111370099999931,1.5779999999999998,383.06912409999995,,,,,1002,25,Woman,Right,
,,,,,,,,,,,,,,,,,1002,25,Woman,Right,0,60,0.15,1,0,-,0,3.61351290000016,['n'],1.0880349999999908,1.3479999999999999,391.26933929999996,,,,,1002,25,Woman,Right,
,,,,,,,,,,,,,,,,,1002,25,Woman,Right,0,37,0.4,2,0,180,180,1.5048243999999613,['y'],1.7520315000001574,1.716,398.67051719999995,,,,,1002,25,Woman,Right,
,,,,,,,,,,,,,,,,,1002,25,Woman,Right,0,43,0.4,2,180,0,180,31.21465820000003,['y'],0.9223981000000094,1.32,433.72000219999995,,,,,1002,25,Woman,Right,
,,,,,,,,,,,,,,,,,1002,25,Woman,Right,0,75,0.15,2,180,0,0,2.044836999999916,['y'],1.2155044000000998,1.434,442.0191668,,,,,1002,25,Woman,Right,
,,,,,,,,,,,,,,,,,1002,25,Woman,Right,0,69,0.15,2,0,180,0,2.5381706000000577,['y'],1.2160109000001285,1.6320000000000001,448.8703719,,,,,1002,25,Woman,Right,
,,,,,,,,,,,,,,,,,1002,25,Woman,Right,0,72,0.15,1,0,-,0,5.690183200000092,['n'],1.1119662000000972,1.4100000000000001,458.7181686000001,,,,,1002,25,Woman,Right,
,,,,,,,,,,,,,,,,,1002,25,Woman,Right,0,46,0.15,1,180,-,0,2.314364800000021,['y'],0.9040640999999141,1.616,465.05213249999997,,,,,1002,25,Woman,Right,
,,,,,,,,,,,,,,,,,1002,25,Woman,Right,0,0,1,1,0,-,0,1.1027894999999717,['n'],1.6233508000000256,1.908,470.92042560000004,,,,,1002,25,Woman,Right,
,,,,,,,,,,,,,,,,,1002,25,Woman,Right,0,58,0.15,1,180,-,180,1.2125422999999955,['y'],1.6475586999999905,1.6019999999999999,476.736087,,,,,1002,25,Woman,Right,
,,,,,,,,,,,,,,,,,1002,25,Woman,Right,0,66,0.15,1,180,-,180,1.2414941000001818,['y'],0.9203503999999612,1.6019999999999999,481.386203,,,,,1002,25,Woman,Right,
,,,,,,,,,,,,,,,,,1002,25,Woman,Right,0,78,0.15,1,180,-,180,5.655364099999815,['y'],0.6717184999999972,1.5779999999999998,490.2869183,,,,,1002,25,Woman,Right,
,,,,,,,,,,,,,,,,,1002,25,Woman,Right,0,34,0.4,1,180,-,0,3.264569599999959,['y'],1.4452905000000555,1.5779999999999998,497.55363920000013,,,,,1002,25,Woman,Right,
,,,,,,,,,,,,,,,,,1002,25,Woman,Right,0,59,0.15,2,180,0,0,0.8959497999999257,['y'],0.8801210999999967,1.5779999999999998,501.83484670000007,,,,,1002,25,Woman,Right,
,,,,,,,,,,,,,,,,,1002,25,Woman,Right,0,67,0.15,2,180,0,0,6.408037599999943,['y'],0.7759923999999501,1.638,512.9521141,,,,,1002,25,Woman,Right,
,,,,,,,,,,,,,,,,,1002,25,Woman,Right,0,74,0.15,1,180,-,0,16.102456100000154,['y'],1.3911411999999928,1.4100000000000001,534.0702627000001,,,,,1002,25,Woman,Right,
,,,,,,,,,,,,,,,,,1002,25,Woman,Right,0,33,0.4,2,0,180,180,1.4323362000000088,['n'],1.5794559000000845,1.568,540.052786,,,,,1002,25,Woman,Right,
,,,,,,,,,,,,,,,,,1002,25,Woman,Right,0,21,0.4,2,0,180,180,0.9908500999999887,['y'],1.023377900000014,1.924,544.8028069,,,,,1002,25,Woman,Right,
,,,,,,,,,,,,,,,,,1002,25,Woman,Right,0,4,1,1,0,-,0,0.7045932000000903,['y'],1.1599933999998484,1.294,551.0035237,,,,,1002,25,Woman,Right,
,,,,,,,,,,,,,,,,,1002,25,Woman,Right,0,70,0.15,1,180,-,0,1.5327483000000939,['y'],3.83995270000014,1.612,559.2521946000002,,,,,1002,25,Woman,Right,
,,,,,,,,,,,,,,,,,1002,25,Woman,Right,0,11,0.4,2,180,0,0,0.6752799999999297,['y'],0.8000858999998854,1.612,564.0866601,,,,,1002,25,Woman,Right,
,,,,,,,,,,,,,,,,,1002,25,Woman,Right,0,77,0.15,2,0,180,0,2.8764033999998446,['n'],1.311437099999921,1.3820000000000001,571.9529692000001,,,,,1002,25,Woman,Right,
,,,,,,,,,,,,,,,,,1002,25,Woman,Right,0,6,1,1,180,-,180,1.325124100000039,['n'],1.0312392999999247,1.35,581.5026842,,,,,1002,25,Woman,Right,
,,,,,,,,,,,,,,,,,1002,25,Woman,Right,0,36,0.4,1,0,-,0,0.6119393999999829,['n'],12.344107399999984,1.638,597.8694777000001,,,,,1002,25,Woman,Right,
,,,,,,,,,,,,,,,,,1002,25,Woman,Right,0,18,0.4,1,180,-,180,3.0582312999999886,['n'],24.039652299999943,1.232,628.5198174,,,,,1002,25,Woman,Right,
,,,,,,,,,,,,,,,,,1002,25,Woman,Right,0,51,0.15,2,180,0,0,5.19488309999997,['n'],2.0640123999999105,1.3439999999999999,641.7364479,,,,,1002,25,Woman,Right,
,,,,,,,,,,,,,,,,,1002,25,Woman,Right,0,44,0.15,1,0,-,180,2.788458300000002,['n'],1.112145099999907,1.3439999999999999,675.1690379000001,,,,,1002,25,Woman,Right,
,,,,,,,,,,,,,,,,,1002,25,Woman,Right,0,20,0.4,1,0,-,180,1.0638208000000304,['n'],1.816233900000043,1.3439999999999999,681.4366429000002,,,,,1002,25,Woman,Right,
,,,,,,,,,,,,,,,,,1002,25,Woman,Right,0,64,0.15,1,0,-,180,2.578601300000173,['y'],1.0881609999999,1.284,689.0028588,,,,,1002,25,Woman,Right,
,,,,,,,,,,,,,,,,,1002,25,Woman,Right,0,50,0.15,1,180,-,0,0.8021020000001045,['y'],0.9041277000001173,1.396,695.2023514,,,,,1002,25,Woman,Right,
,,,,,,,,,,,,,,,,,1002,25,Woman,Right,0,15,0.4,2,180,0,0,0.6363324999999804,['n'],1.087967899999967,1.6139999999999999,700.286936,,,,,1002,25,Woman,Right,
,,,,,,,,,,,,,,,,,1002,25,Woman,Right,0,8,0.4,1,0,-,0,1.0571153000000777,['n'],0.9995192999999745,1.6059999999999999,704.9862698,,,,,1002,25,Woman,Right,
,,,,,,,,,,,,,,,,,1002,25,Woman,Right,0,29,0.4,2,0,180,180,1.881428299999925,['y'],1.3515214000001379,1.714,711.2359784,,,,,1002,25,Woman,Right,
,,,,,,,,,,,,,,,,,1002,25,Woman,Right,0,48,0.15,1,0,-,180,1.3052921999999398,['n'],1.0712937999999212,1.678,716.7360020000001,,,,,1002,25,Woman,Right,
,,,,,,,,,,,,,,,,,1002,25,Woman,Right,0,47,0.15,2,180,0,180,4.065061300000025,['y'],1.8960955000000013,1.216,725.5858942,,,,,1002,25,Woman,Right,
,,,,,,,,,,,,,,,,,1002,25,Woman,Right,0,54,0.15,1,180,-,180,8.247791099999858,['n'],1.6232138999998824,1.12,738.0190802,,,,,1002,25,Woman,Right,
,,,,,,,,,,,,,,,,,1002,25,Woman,Right,0,12,0.4,1,0,-,180,2.242503700000043,['n'],3.871560900000077,1.314,747.5030016000001,,,,,1002,25,Woman,Right,
,,,,,,,,,,,,,,,,,1002,25,Woman,Right,0,49,0.15,2,0,180,0,1.0351080000000366,['y'],0.9434483,1.716,752.6705302,,,,,1002,25,Woman,Right,
,,,,,,,,,,,,,,,,,1002,25,Woman,Right,0,19,0.4,2,180,0,0,1.581290699999954,['y'],1.37578829999984,1.704,758.1702899000002,,,,,1002,25,Woman,Right,
,,,,,,,,,,,,,,,,,1002,25,Woman,Right,0,63,0.15,2,180,0,0,0.4949210999998286,['n'],2.0323167000001376,1.704,763.4365425000001,,,,,1002,25,Woman,Right,
,,,,,,,,,,,,,,,,,1002,25,Woman,Right,0,53,0.15,2,0,180,180,17.348163300000124,['y'],0.6270449999999528,1.834,784.5025826000001,,,,,1002,25,Woman,Right,
,,,,,,,,,,,,,,,,,1002,25,Woman,Right,0,2,1,1,180,-,180,0.96662409999999,['n'],1.1841640999998617,1.874,789.7361037000001,,,,,1002,25,Woman,Right,
,,,,,,,,,,,,,,,,,1002,25,Woman,Right,0,22,0.4,1,180,-,0,0.7480854000000363,['y'],5.103243399999883,1.834,798.3858527,,,,,1002,25,Woman,Right,
,,,,,,,,,,,,,,,,,1002,25,Woman,Right,0,5,1,2,0,180,180,0.7752861000001303,['y'],1.063246000000163,1.834,798.3858527,,,,,1002,25,Woman,Right,
,,,,,,,,,,,,,,,,,1002,25,Woman,Right,0,25,0.4,2,0,180,180,0.5431963000000906,['y'],0.6554706000001715,1.838,806.9201634000001,,,,,1002,25,Woman,Right,
,,,,,,,,,,,,,,,,,1002,25,Woman,Right,0,71,0.15,2,180,0,0,1.1549955999998929,['y'],1.2714981999999964,1.712,812.1032605,,,,,1002,25,Woman,Right,
,,,,,,,,,,,,,,,,,1002,25,Woman,Right,0,23,0.4,2,180,0,180,23.36798120000003,['y'],1.823459400000047,1.744,843.5861153000001,,,,,1002,25,Woman,Right,
,,,,,,,,,,,,,,,,,1002,25,Woman,Right,0,3,1,2,180,0,0,0.560044299999845,['y'],1.1112683000001198,1.85,848.1200429,,,,,1002,25,Woman,Right,
,,,,,,,,,,,,,,,,,1002,25,Woman,Right,0,41,0.4,2,0,180,180,0.6698232999999618,['n'],1.7755469999999605,1.816,853.4037019,,,,,1002,25,Woman,Right,
,,,,,,,,,,,,,,,,,1002,25,Woman,Right,0,57,0.15,2,0,180,0,1.6791035000001102,['n'],3.448120000000017,1.0,861.3534644000001,,,,,1002,25,Woman,Right,
,,,,,,,,,,,,,,,,,1002,25,Woman,Right,0,35,0.4,2,180,0,0,0.5538256999998339,['y'],0.9760340000000269,1.984,865.7866496000001,,,,,1002,25,Woman,Right,
,,,,,,,,,,,,,,,,,1002,25,Woman,Right,0,68,0.15,1,0,-,180,1.257055199999968,['n'],1.2954308999999284,1.012,871.2368281000001,,,,,1002,25,Woman,Right,
,,,,,,,,,,,,,,,,,1002,25,Woman,Right,0,28,0.4,1,0,-,0,1.055219599999873,['n'],0.9918920999998591,1.588,876.4529616,,,,,1002,25,Woman,Right,
,,,,,,,,,,,,,,,,,1002,25,Woman,Right,0,24,0.4,1,0,-,0,19.447693800000252,['n'],1.4565110000003187,1.588,900.0865803000002,,,,,1002,25,Woman,Right,
,,,,,,,,,,,,,,,,,1002,25,Woman,Right,0,73,0.15,2,0,180,180,0.5995222999999896,['y'],1.2561514999997598,1.676,904.602821,,,,,1002,25,Woman,Right,
,,,,,,,,,,,,,,,,,1002,25,Woman,Right,0,16,0.4,1,0,-,0,1.0742685999998685,['n'],0.671321700000135,1.674,909.2374350999999,,,,,1002,25,Woman,Right,
,,,,,,,,,,,,,,,,,1002,25,Woman,Right,0,27,0.4,2,180,0,0,0.5480938999999125,['y'],1.0039068999999472,1.954,913.2527846000003,,,,,1002,25,Woman,Right,
,,,,,,,,,,,,,,,,,1002,25,Woman,Right,0,14,0.4,1,180,-,0,1.045785099999648,['y'],1.8798271000000568,1.68,918.6690170000002,,,,,1002,25,Woman,Right,
,,,,,,,,,,,,,,,,,1002,25,Woman,Right,0,65,0.15,2,0,180,180,1.7364701000001332,['y'],1.511955499999658,1.0,924.4205943000002,,,,,1002,25,Woman,Right,
,,,,,,,,,,,,,,,,,1002,25,Woman,Right,0,30,0.4,1,180,-,0,1.1519157999996423,['y'],0.6796127000002343,1.214,929.1692160000002,,,,,1002,25,Woman,Right,
,,,,,,,,,,,,,,,,,1002,25,Woman,Right,0,52,0.15,1,0,-,0,0.9765496999998504,['n'],1.8479209999995874,1.214,934.652345,,,,,1002,25,Woman,Right,
,,,,,,,,,,,,,,,,,1002,25,Woman,Right,0,42,0.4,1,180,-,0,0.9674056999997447,['n'],12.688110999999935,1.214,951.0201357999999,,,,,1002,25,Woman,Right,
,,,,,,,,,,,,,,,,,1002,25,Woman,Right,0,38,0.4,1,180,-,0,0.6043219000002864,['y'],9.280239199999869,1.642,963.8027160000001,,,,,1002,25,Woman,Right,
,,,,,,,,,,,,,,,,,1002,25,Woman,Right,0,32,0.4,1,0,-,180,0.8706268999999338,['y'],1.0001452999999856,1.642,968.8024340000002,,,,,1002,25,Woman,Right,
,,,,,,,,,,,,,,,,,1002,25,Woman,Right,0,79,0.15,2,180,0,0,0.6815351000000192,['n'],1.440649300000132,1.084,973.7523016999999,,,,,1002,25,Woman,Right,
,,,,,,,,,,,,,,,,,1002,25,Woman,Right,0,17,0.4,2,0,180,180,0.7737038999998731,['y'],0.8638018999999986,1.69,978.9362395000003,,,,,1002,25,Woman,Right,
,,,,,,,,,,,,,,,,,1002,25,Woman,Right,0,39,0.4,2,180,0,0,0.6575702000000092,['y'],1.4474671000002672,1.714,983.6864195000003,,,,,1002,25,Woman,Right,
,,,,,,,,,,,,,,,,,1002,25,Woman,Right,0,13,0.4,2,0,180,180,0.6951581000002989,['y'],2.567319199999929,1.954,989.8360480000001,,,,,1002,25,Woman,Right,
,,,,,,,,,,,,,,,,,1002,25,Woman,Right,0,76,0.15,1,0,-,180,0.6485100999998394,['y'],0.6716996000000108,1.954,989.8360480000001,,,,,1002,25,Woman,Right,
,,,,,,,,,,,,,,,,,1002,25,Woman,Right,0,1,1,2,0,180,180,0.670630600000095,['y'],0.5360089000000698,1.826,1004.4358046000002,,,,,1002,25,Woman,Right,
,,,,,,,,,,,,,,,,,1002,25,Woman,Right,0,26,0.4,1,180,-,180,1.0272784000003412,['n'],1.3199503999999251,1.75,1009.4200838000002,,,,,1002,25,Woman,Right,
,,,,,,,,,,,,,,,,,1002,25,Woman,Right,0,10,0.4,1,180,-,180,1.3458636999998816,['n'],0.9518880000000536,1.75,1014.2205287000002,,,,,1002,25,Woman,Right,
,,,,,,,,,,,,,,,,,1002,25,Woman,Right,0,45,0.15,2,0,180,180,0.7484385000002476,['n'],0.9349664000001212,1.776,1019.9024516,,,,,1002,25,Woman,Right,
,,,,,,,,,,,,,,,,,1002,25,Woman,Right,0,31,0.4,2,180,0,0,0.4837145999999848,['y'],2.592209900000398,1.776,1019.9024516,,,,,1002,25,Woman,Right,
,,,,,,,,,,,,,,,,,1002,25,Woman,Right,0,61,0.15,2,0,180,180,1.135613800000101,['y'],0.8877599000002192,1.67,1030.9869529000002,,,,,1002,25,Woman,Right,
,,,,,,,,,,,,,,,,,1002,25,Woman,Right,1,14,0.4,1,180,-,180,2.4154984000001605,['y'],0.8402936000002228,1.686,1080.2201555000001,550.0,55.0,77.5,,1002,25,Woman,Right,
,,,,,,,,,,,,,,,,,1002,25,Woman,Right,1,44,0.15,1,0,-,0,0.7861836000001858,['n'],0.7757808999999725,1.682,1084.3525177000001,,,,,1002,25,Woman,Right,
,,,,,,,,,,,,,,,,,1002,25,Woman,Right,1,68,0.15,1,0,-,0,0.7561783000001014,['n'],1.0240969999999834,1.682,1088.4704287,,,,,1002,25,Woman,Right,
,,,,,,,,,,,,,,,,,1002,25,Woman,Right,1,36,0.4,1,0,-,180,0.48126929999989443,['y'],0.7643895999999586,1.626,1092.9191645,,,,,1002,25,Woman,Right,
,,,,,,,,,,,,,,,,,1002,25,Woman,Right,1,23,0.4,2,180,0,0,1.4945152999998754,['y'],0.7041721999999027,1.76,1097.8528138000001,,,,,1002,25,Woman,Right,
,,,,,,,,,,,,,,,,,1002,25,Woman,Right,1,60,0.15,1,0,-,0,0.7913346999998794,['y'],1.3361742000001868,1.76,1102.4365406000002,,,,,1002,25,Woman,Right,
,,,,,,,,,,,,,,,,,1002,25,Woman,Right,1,42,0.4,1,180,-,0,1.1327926000003572,['n'],0.7121007000000645,1.76,1106.9367929999999,,,,,1002,25,Woman,Right,
,,,,,,,,,,,,,,,,,1002,25,Woman,Right,1,26,0.4,1,180,-,0,0.483560000000125,['y'],0.5920983999999407,1.76,1110.8368020000003,,,,,1002,25,Woman,Right,
,,,,,,,,,,,,,,,,,1002,25,Woman,Right,1,19,0.4,2,180,0,0,0.3914829999998801,['y'],0.6163316000001942,1.802,1114.8198383,,,,,1002,25,Woman,Right,
,,,,,,,,,,,,,,,,,1002,25,Woman,Right,1,70,0.15,1,180,-,0,0.4901684000001296,['y'],0.44009809999988647,1.802,1118.9185059000001,,,,,1002,25,Woman,Right,
,,,,,,,,,,,,,,,,,1002,25,Woman,Right,1,45,0.15,2,0,180,0,1.1962004000001798,['y'],0.4638881000000765,1.82,1123.4201833000002,,,,,1002,25,Woman,Right,
,,,,,,,,,,,,,,,,,1002,25,Woman,Right,1,67,0.15,2,180,0,0,0.6725744999998824,['y'],11.367973799999618,1.812,1137.8867509000002,,,,,1002,25,Woman,Right,
,,,,,,,,,,,,,,,,,1002,25,Woman,Right,1,3,1,2,180,0,0,0.35727129999986573,['y'],0.4400157999998555,1.812,1141.1025522,,,,,1002,25,Woman,Right,
,,,,,,,,,,,,,,,,,1002,25,Woman,Right,1,48,0.15,1,0,-,0,0.5646603000000141,['n'],0.584157100000084,1.812,1141.1025522,,,,,1002,25,Woman,Right,
,,,,,,,,,,,,,,,,,1002,25,Woman,Right,1,76,0.15,1,0,-,180,0.658138400000098,['y'],0.4800298999998631,1.812,1148.1527041,,,,,1002,25,Woman,Right,
,,,,,,,,,,,,,,,,,1002,25,Woman,Right,1,13,0.4,2,0,180,180,0.5813334999998006,['y'],0.3486640000000989,1.812,1151.7372297000002,,,,,1002,25,Woman,Right,
,,,,,,,,,,,,,,,,,1002,25,Woman,Right,1,55,0.15,2,180,0,0,0.7533573000000615,['y'],0.8241594000000987,1.812,1155.7196893,,,,,1002,25,Woman,Right,
,,,,,,,,,,,,,,,,,1002,25,Woman,Right,1,18,0.4,1,180,-,0,0.6376703000000816,['y'],0.872272200000225,1.812,1159.470402,,,,,1002,25,Woman,Right,
,,,,,,,,,,,,,,,,,1002,25,Woman,Right,1,37,0.4,2,0,180,180,0.9207792000001973,['y'],0.38408879999997225,1.812,1163.0872011000001,,,,,1002,25,Woman,Right,
,,,,,,,,,,,,,,,,,1002,25,Woman,Right,1,41,0.4,2,0,180,180,1.8836332000000766,['y'],0.7121996999999283,1.812,1168.0185806,,,,,1002,25,Woman,Right,
,,,,,,,,,,,,,,,,,1002,25,Woman,Right,1,61,0.15,2,0,180,180,1.1993445000002794,['y'],2.1040460999997777,1.812,1174.170313,,,,,1002,25,Woman,Right,
,,,,,,,,,,,,,,,,,1002,25,Woman,Right,1,5,1,2,0,180,180,0.8111025999996855,['y'],0.7599813000001632,1.812,1178.1205436,,,,,1002,25,Woman,Right,
,,,,,,,,,,,,,,,,,1002,25,Woman,Right,1,63,0.15,2,180,0,0,0.3905494999999064,['y'],0.7280713000000105,1.812,1181.5031919000003,,,,,1002,25,Woman,Right,
,,,,,,,,,,,,,,,,,1002,25,Woman,Right,1,29,0.4,2,0,180,180,0.5871867999999267,['y'],0.43993300000011004,1.812,1184.936949,,,,,1002,25,Woman,Right,
,,,,,,,,,,,,,,,,,1002,25,Woman,Right,1,40,0.4,1,0,-,180,0.8269309000002067,['y'],0.38410049999993134,1.812,1188.6373377,,,,,1002,25,Woman,Right,
,,,,,,,,,,,,,,,,,1002,25,Woman,Right,1,69,0.15,2,0,180,180,0.7920346000000791,['y'],0.2800735999999233,1.812,1192.2526219000001,,,,,1002,25,Woman,Right,
,,,,,,,,,,,,,,,,,1002,25,Woman,Right,1,20,0.4,1,0,-,0,10.615838900000199,['n'],1.0991821000002346,1.812,1206.8863254000003,,,,,1002,25,Woman,Right,
,,,,,,,,,,,,,,,,,1002,25,Woman,Right,1,71,0.15,2,180,0,180,2.3313751000000593,['n'],1.0029144000000088,1.54,1213.5523425000001,,,,,1002,25,Woman,Right,
,,,,,,,,,,,,,,,,,1002,25,Woman,Right,1,52,0.15,1,0,-,0,0.871302999999898,['y'],1.0635575000001154,1.168,1218.4525643000002,,,,,1002,25,Woman,Right,
,,,,,,,,,,,,,,,,,1002,25,Woman,Right,1,54,0.15,1,180,-,0,0.6652531999998246,['y'],1.4394384000001992,1.3900000000000001,1223.0525315999998,,,,,1002,25,Woman,Right,
,,,,,,,,,,,,,,,,,1002,25,Woman,Right,1,9,0.4,2,0,180,180,1.1366689999999835,['y'],0.5600670000003447,1.3900000000000001,1227.0538655,,,,,1002,25,Woman,Right,
,,,,,,,,,,,,,,,,,1002,25,Woman,Right,1,2,1,1,180,-,180,0.9412637999998879,['n'],0.7280314000004182,1.3900000000000001,1227.0538655,,,,,1002,25,Woman,Right,
,,,,,,,,,,,,,,,,,1002,25,Woman,Right,1,46,0.15,1,180,-,180,25.347689600000194,['y'],0.9228369000002203,1.638,1260.5370177999998,,,,,1002,25,Woman,Right,
,,,,,,,,,,,,,,,,,1002,25,Woman,Right,1,79,0.15,2,180,0,0,0.5602304000003642,['n'],1.7039960000001884,1.638,1265.3362828,,,,,1002,25,Woman,Right,
,,,,,,,,,,,,,,,,,1002,25,Woman,Right,1,57,0.15,2,0,180,180,0.5993438000000424,['y'],0.6480219000000034,1.638,1268.9197098,,,,,1002,25,Woman,Right,
,,,,,,,,,,,,,,,,,1002,25,Woman,Right,1,64,0.15,1,0,-,180,1.1312132000002748,['n'],1.157720000000154,1.026,1274.1365610000003,,,,,1002,25,Woman,Right,
,,,,,,,,,,,,,,,,,1002,25,Woman,Right,1,4,1,1,0,-,0,0.5332808000002842,['n'],0.6396617000000333,1.764,1278.387091,,,,,1002,25,Woman,Right,
,,,,,,,,,,,,,,,,,1002,25,Woman,Right,1,34,0.4,1,180,-,180,1.9010103000000527,['n'],0.8954134999999042,1.6680000000000001,1283.8702296000001,,,,,1002,25,Woman,Right,
,,,,,,,,,,,,,,,,,1002,25,Woman,Right,1,6,1,1,180,-,180,0.8582294000002548,['n'],0.8079792000003181,1.6680000000000001,1283.8702296000001,,,,,1002,25,Woman,Right,
,,,,,,,,,,,,,,,,,1002,25,Woman,Right,1,17,0.4,2,0,180,180,0.5612025000000358,['n'],2.4638661999997566,1.634,1293.4693569,,,,,1002,25,Woman,Right,
,,,,,,,,,,,,,,,,,1002,25,Woman,Right,1,32,0.4,1,0,-,0,0.8824961999998777,['n'],4.136122799999612,1.634,1301.3371986000002,,,,,1002,25,Woman,Right,
,,,,,,,,,,,,,,,,,1002,25,Woman,Right,1,16,0.4,1,0,-,0,0.3465885000000526,['n'],0.9121376000002783,1.634,1305.1531663,,,,,1002,25,Woman,Right,
,,,,,,,,,,,,,,,,,1002,25,Woman,Right,1,78,0.15,1,180,-,0,0.4521348999996917,['n'],3.5361884000003556,1.626,1311.5861702000002,,,,,1002,25,Woman,Right,
,,,,,,,,,,,,,,,,,1002,25,Woman,Right,1,65,0.15,2,0,180,0,9.114208100000269,['n'],0.721719000000121,1.626,1311.5861702000002,,,,,1002,25,Woman,Right,
,,,,,,,,,,,,,,,,,1002,25,Woman,Right,1,51,0.15,2,180,0,180,1.3689954999999827,['y'],1.4082664000002296,1.626,1328.9539651999999,,,,,1002,25,Woman,Right,
,,,,,,,,,,,,,,,,,1002,25,Woman,Right,1,22,0.4,1,180,-,180,0.3975445999999465,['y'],1.113199700000223,1.626,1332.7376187,,,,,1002,25,Woman,Right,
,,,,,,,,,,,,,,,,,1002,25,Woman,Right,1,7,1,2,180,0,0,0.526339999999891,['n'],0.928177499999947,1.674,1336.7034202,,,,,1002,25,Woman,Right,
,,,,,,,,,,,,,,,,,1002,25,Woman,Right,1,77,0.15,2,0,180,180,0.6152153000002727,['y'],1.495527200000197,1.67,1341.0536525000002,,,,,1002,25,Woman,Right,
,,,,,,,,,,,,,,,,,1002,25,Woman,Right,1,35,0.4,2,180,0,0,0.37431640000022526,['y'],0.6241197999997894,1.67,1344.4365891000002,,,,,1002,25,Woman,Right,
,,,,,,,,,,,,,,,,,1002,25,Woman,Right,1,21,0.4,2,0,180,180,0.6903854000001957,['y'],0.5843309000001682,1.67,1347.9539772000003,,,,,1002,25,Woman,Right,
,,,,,,,,,,,,,,,,,1002,25,Woman,Right,1,43,0.4,2,180,0,0,0.16803859999981796,['y'],0.5762239000000591,1.67,1351.0522078,,,,,1002,25,Woman,Right,
,,,,,,,,,,,,,,,,,1002,25,Woman,Right,1,72,0.15,1,0,-,180,0.89356749999979,['y'],0.6561306000003242,1.67,1354.9708156000002,,,,,1002,25,Woman,Right,
,,,,,,,,,,,,,,,,,1002,25,Woman,Right,1,11,0.4,2,180,0,0,0.3242451999999503,['y'],0.5200606000003063,1.67,1358.1202434000002,,,,,1002,25,Woman,Right,
,,,,,,,,,,,,,,,,,1002,25,Woman,Right,1,58,0.15,1,180,-,0,0.31413229999998293,['y'],0.4160621999999421,1.67,1361.8361531,,,,,1002,25,Woman,Right,
,,,,,,,,,,,,,,,,,1002,25,Woman,Right,1,74,0.15,1,180,-,0,1.277518500000042,['n'],1.2722681000000193,1.67,1366.7703777000002,,,,,1002,25,Woman,Right,
,,,,,,,,,,,,,,,,,1002,25,Woman,Right,1,27,0.4,2,180,0,0,0.514326600000004,['y'],1.5620780999997805,1.67,1371.0859904,,,,,1002,25,Woman,Right,
,,,,,,,,,,,,,,,,,1002,25,Woman,Right,1,53,0.15,2,0,180,0,4.1911645000000135,['n'],1.1441462999996475,1.67,1371.0859904,,,,,1002,25,Woman,Right,
,,,,,,,,,,,,,,,,,1002,25,Woman,Right,1,38,0.4,1,180,-,180,0.7133927999998377,['n'],1.1036416000001736,1.676,1383.3858171000002,,,,,1002,25,Woman,Right,
,,,,,,,,,,,,,,,,,1002,25,Woman,Right,1,59,0.15,2,180,0,0,0.3795495999997911,['n'],1.7043527999999242,1.676,1383.3858171000002,,,,,1002,25,Woman,Right,
,,,,,,,,,,,,,,,,,1002,25,Woman,Right,1,75,0.15,2,180,0,0,1.3144506999997247,['n'],0.5354869000002509,1.676,1392.1363953999999,,,,,1002,25,Woman,Right,
,,,,,,,,,,,,,,,,,1002,25,Woman,Right,1,56,0.15,1,0,-,0,0.38712359999999535,['n'],1.1680827999998655,1.674,1396.6027942,,,,,1002,25,Woman,Right,
,,,,,,,,,,,,,,,,,1002,25,Woman,Right,1,0,1,1,0,-,0,0.3592045999998845,['n'],0.39205260000017006,1.674,1399.9865211000001,,,,,1002,25,Woman,Right,
,,,,,,,,,,,,,,,,,1002,25,Woman,Right,1,49,0.15,2,0,180,180,0.8169667000001937,['n'],0.7680098999999245,1.674,1404.2851982000002,,,,,1002,25,Woman,Right,
,,,,,,,,,,,,,,,,,1002,25,Woman,Right,1,50,0.15,1,180,-,0,8.181201500000043,['n'],0.5361419000000751,1.676,1415.970018,,,,,1002,25,Woman,Right,
,,,,,,,,,,,,,,,,,1002,25,Woman,Right,1,10,0.4,1,180,-,0,0.3255294000000504,['n'],0.5842529000001377,1.676,1419.2528114000002,,,,,1002,25,Woman,Right,
,,,,,,,,,,,,,,,,,1002,25,Woman,Right,1,31,0.4,2,180,0,0,0.45546669999976075,['y'],2.60798479999994,1.82,1425.2526712,,,,,1002,25,Woman,Right,
,,,,,,,,,,,,,,,,,1002,25,Woman,Right,1,39,0.4,2,180,0,0,0.30698949999987235,['y'],0.607591500000126,1.804,1428.4370410000001,,,,,1002,25,Woman,Right,
,,,,,,,,,,,,,,,,,1002,25,Woman,Right,1,73,0.15,2,0,180,180,1.3964445000001433,['y'],0.5919293000001744,1.796,1432.7862773000002,,,,,1002,25,Woman,Right,
,,,,,,,,,,,,,,,,,1002,25,Woman,Right,1,25,0.4,2,0,180,180,0.2894206999999369,['y'],0.43985920000022816,1.546,1435.8708528000002,,,,,1002,25,Woman,Right,
,,,,,,,,,,,,,,,,,1002,25,Woman,Right,1,24,0.4,1,0,-,180,0.3386783999999352,['y'],0.4314988999999514,1.5979999999999999,1439.8372666,,,,,1002,25,Woman,Right,
,,,,,,,,,,,,,,,,,1002,25,Woman,Right,1,62,0.15,1,180,-,0,0.7153748999999152,['y'],0.5360032999997202,1.5979999999999999,1443.3030529000002,,,,,1002,25,Woman,Right,
,,,,,,,,,,,,,,,,,1002,25,Woman,Right,1,1,1,2,0,180,180,0.5570089000002554,['y'],0.4000431999998,1.748,1447.7030693000002,,,,,1002,25,Woman,Right,
,,,,,,,,,,,,,,,,,1002,25,Woman,Right,1,15,0.4,2,180,0,0,0.7816084999999475,['y'],0.36710690000018076,1.592,1451.6864782000002,,,,,1002,25,Woman,Right,
,,,,,,,,,,,,,,,,,1002,25,Woman,Right,1,8,0.4,1,0,-,180,0.27078919999985374,['y'],0.35199469999997746,1.604,1454.8029243,,,,,1002,25,Woman,Right,
,,,,,,,,,,,,,,,,,1002,25,Woman,Right,1,12,0.4,1,0,-,180,0.3505156999999599,['y'],0.3601232000000891,1.612,1458.6040583,,,,,1002,25,Woman,Right,
,,,,,,,,,,,,,,,,,1002,25,Woman,Right,1,47,0.15,2,180,0,180,0.4553403999998409,['y'],2.063950499999919,1.626,1463.7860021000001,,,,,1002,25,Woman,Right,
,,,,,,,,,,,,,,,,,1002,25,Woman,Right,1,33,0.4,2,0,180,180,0.29807819999996354,['y'],0.8560612999999648,1.626,1467.2359425,,,,,1002,25,Woman,Right,
,,,,,,,,,,,,,,,,,1002,25,Woman,Right,1,66,0.15,1,180,-,180,0.7710505000000012,['y'],0.5360768000000462,1.626,1470.9530212,,,,,1002,25,Woman,Right,
,,,,,,,,,,,,,,,,,1002,25,Woman,Right,1,30,0.4,1,180,-,0,9.525890899999922,['y'],1.7438139000000774,1.0,1485.8026553,,,,,1002,25,Woman,Right,
,,,,,,,,,,,,,,,,,1002,25,Woman,Right,1,28,0.4,1,0,-,0,0.595521799999915,['y'],1.0160213999997723,1.6059999999999999,1490.5370214,,,,,1002,25,Woman,Right,
,,,,,,,,,,,,,,,,,1002,25,Woman,Right,2,24,0.4,1,0,-,0,0.9487450000001445,['n'],1.0064076000003297,1.642,1565.0030015000002,540.0,47.5,77.5,,1002,25,Woman,Right,
,,,,,,,,,,,,,,,,,1002,25,Woman,Right,2,17,0.4,2,0,180,180,0.6501180999998724,['y'],0.6319232000000738,1.682,1569.7370577000002,,,,,1002,25,Woman,Right,
,,,,,,,,,,,,,,,,,1002,25,Woman,Right,2,62,0.15,1,180,-,0,0.46854190000021845,['y'],0.5355469999999514,1.374,1573.169859,,,,,1002,25,Woman,Right,
,,,,,,,,,,,,,,,,,1002,25,Woman,Right,2,29,0.4,2,0,180,180,0.3572316999998293,['y'],0.33571919999985766,1.6280000000000001,1576.8863396000002,,,,,1002,25,Woman,Right,
,,,,,,,,,,,,,,,,,1002,25,Woman,Right,2,67,0.15,2,180,0,0,0.2082471999997324,['y'],0.31155630000012025,1.6099999999999999,1579.636892,,,,,1002,25,Woman,Right,
,,,,,,,,,,,,,,,,,1002,25,Woman,Right,2,79,0.15,2,180,0,0,0.5366789999998218,['y'],0.3917522000001554,1.204,1583.3368646,,,,,1002,25,Woman,Right,
,,,,,,,,,,,,,,,,,1002,25,Woman,Right,2,72,0.15,1,0,-,0,0.5488632999999936,['y'],0.31133020000015676,1.162,1586.7708038,,,,,1002,25,Woman,Right,
,,,,,,,,,,,,,,,,,1002,25,Woman,Right,2,35,0.4,2,180,0,0,0.4227211000002171,['y'],0.7280034999998861,1.904,1590.6703392,,,,,1002,25,Woman,Right,
,,,,,,,,,,,,,,,,,1002,25,Woman,Right,2,23,0.4,2,180,0,0,0.20106469999973342,['y'],0.35946970000031797,1.718,1593.9521647000001,,,,,1002,25,Woman,Right,
,,,,,,,,,,,,,,,,,1002,25,Woman,Right,2,4,1,1,0,-,0,0.4470305999998345,['n'],1.055284699999902,1.832,1598.1706686000002,,,,,1002,25,Woman,Right,
,,,,,,,,,,,,,,,,,1002,25,Woman,Right,2,52,0.15,1,0,-,0,1.0034915999999612,['n'],2.2797151999998277,1.018,1604.2374632,,,,,1002,25,Woman,Right,
,,,,,,,,,,,,,,,,,1002,25,Woman,Right,2,45,0.15,2,0,180,0,0.6409369000002698,['n'],1.535487600000124,1.0,1608.9042506,,,,,1002,25,Woman,Right,
,,,,,,,,,,,,,,,,,1002,25,Woman,Right,2,59,0.15,2,180,0,0,0.6463207000001603,['n'],1.391605900000286,1.076,1613.5365588,,,,,1002,25,Woman,Right,
,,,,,,,,,,,,,,,,,1002,25,Woman,Right,2,13,0.4,2,0,180,180,0.47112550000019837,['y'],0.5280979000003754,1.112,1616.8365907000002,,,,,1002,25,Woman,Right,
,,,,,,,,,,,,,,,,,1002,25,Woman,Right,2,2,1,1,180,-,180,0.3759872999999061,['n'],0.9838992999998482,1.8860000000000001,1621.4199818000002,,,,,1002,25,Woman,Right,
,,,,,,,,,,,,,,,,,1002,25,Woman,Right,2,14,0.4,1,180,-,0,0.38958729999967545,['n'],1.3915046000001894,1.258,1625.8197739000002,,,,,1002,25,Woman,Right,
,,,,,,,,,,,,,,,,,1002,25,Woman,Right,2,20,0.4,1,0,-,180,6.905188599999747,['n'],1.3039704999996502,1.6139999999999999,1636.7539453,,,,,1002,25,Woman,Right,
,,,,,,,,,,,,,,,,,1002,25,Woman,Right,2,41,0.4,2,0,180,180,0.6783320999998068,['y'],0.6641555000001063,1.826,1640.719595,,,,,1002,25,Woman,Right,
,,,,,,,,,,,,,,,,,1002,25,Woman,Right,2,32,0.4,1,0,-,0,1.2210724000001392,['n'],0.3754983999997421,1.826,1640.719595,,,,,1002,25,Woman,Right,
,,,,,,,,,,,,,,,,,1002,25,Woman,Right,2,48,0.15,1,0,-,0,0.5515040999998746,['n'],0.33560969999962253,1.72,1647.9208291999998,,,,,1002,25,Woman,Right,
,,,,,,,,,,,,,,,,,1002,25,Woman,Right,2,50,0.15,1,180,-,0,0.5919063000001188,['n'],1.0321485999998004,1.056,1652.0039649999999,,,,,1002,25,Woman,Right,
,,,,,,,,,,,,,,,,,1002,25,Woman,Right,2,10,0.4,1,180,-,0,1.0676902000000155,['y'],0.75919870000007,1.056,1652.0039649999999,,,,,1002,25,Woman,Right,
,,,,,,,,,,,,,,,,,1002,25,Woman,Right,2,19,0.4,2,180,0,0,0.7539069999997992,['y'],0.4402183000001969,1.304,1660.4368054000001,,,,,1002,25,Woman,Right,
,,,,,,,,,,,,,,,,,1002,25,Woman,Right,2,36,0.4,1,0,-,180,0.596045299999787,['y'],0.48805640000000494,1.304,1663.6040795,,,,,1002,25,Woman,Right,
,,,,,,,,,,,,,,,,,1002,25,Woman,Right,2,75,0.15,2,180,0,0,0.7588020000002871,['y'],0.3598686000000271,1.346,1667.0692186,,,,,1002,25,Woman,Right,
,,,,,,,,,,,,,,,,,1002,25,Woman,Right,2,25,0.4,2,0,180,180,0.3811722999998892,['y'],0.44771110000010594,1.346,1670.1867769,,,,,1002,25,Woman,Right,
,,,,,,,,,,,,,,,,,1002,25,Woman,Right,2,28,0.4,1,0,-,180,0.4324263999997129,['y'],0.4401340999997956,1.346,1673.3710767000002,,,,,1002,25,Woman,Right,
,,,,,,,,,,,,,,,,,1002,25,Woman,Right,2,44,0.15,1,0,-,180,3.411152200000288,['y'],0.6720539999996618,1.346,1679.8537168000003,,,,,1002,25,Woman,Right,
,,,,,,,,,,,,,,,,,1002,25,Woman,Right,2,43,0.4,2,180,0,0,0.7280103000002782,['y'],0.3679575000001023,1.608,1683.7027881,,,,,1002,25,Woman,Right,
,,,,,,,,,,,,,,,,,1002,25,Woman,Right,2,68,0.15,1,0,-,0,10.047668199999862,['n'],3.6031032000000778,1.608,1683.7027881,,,,,1002,25,Woman,Right,
,,,,,,,,,,,,,,,,,1002,25,Woman,Right,2,21,0.4,2,0,180,180,0.687445900000057,['y'],0.5920170999997936,1.736,1703.8203331,,,,,1002,25,Woman,Right,
,,,,,,,,,,,,,,,,,1002,25,Woman,Right,2,6,1,1,180,-,180,1.0114932999999837,['n'],1.2074522000002617,1.67,1708.5866666000002,,,,,1002,25,Woman,Right,
,,,,,,,,,,,,,,,,,1002,25,Woman,Right,2,53,0.15,2,0,180,180,0.5186662999999498,['n'],1.1596058999998604,1.638,1712.5031763000002,,,,,1002,25,Woman,Right,
,,,,,,,,,,,,,,,,,1002,25,Woman,Right,2,66,0.15,1,180,-,180,0.8087221999999201,['n'],0.9440991000001304,1.638,1712.5031763000002,,,,,1002,25,Woman,Right,
,,,,,,,,,,,,,,,,,1002,25,Woman,Right,2,54,0.15,1,180,-,0,0.638774900000044,['n'],0.7041232000001401,1.638,1720.2027698000002,,,,,1002,25,Woman,Right,
,,,,,,,,,,,,,,,,,1002,25,Woman,Right,2,65,0.15,2,0,180,180,0.6104135999999016,['n'],0.6641589999999269,1.638,1720.2027698000002,,,,,1002,25,Woman,Right,
,,,,,,,,,,,,,,,,,1002,25,Woman,Right,2,26,0.4,1,180,-,0,0.4888538999998673,['n'],1.4715119999996205,1.728,1728.4028018,,,,,1002,25,Woman,Right,
,,,,,,,,,,,,,,,,,1002,25,Woman,Right,2,74,0.15,1,180,-,0,0.6854475000000093,['n'],0.4959332000003087,1.728,1732.1045417,,,,,1002,25,Woman,Right,
,,,,,,,,,,,,,,,,,1002,25,Woman,Right,2,60,0.15,1,0,-,0,0.7798517000001084,['n'],0.6720863000000463,1.65,1736.4200626000002,,,,,1002,25,Woman,Right,
,,,,,,,,,,,,,,,,,1002,25,Woman,Right,2,73,0.15,2,0,180,180,0.4165911000000051,['n'],0.4000378000000637,1.6560000000000001,1740.3526083000002,,,,,1002,25,Woman,Right,
,,,,,,,,,,,,,,,,,1002,25,Woman,Right,2,5,1,2,0,180,180,0.7200530000000072,['y'],0.4956601999997474,1.642,1743.7874713,,,,,1002,25,Woman,Right,
,,,,,,,,,,,,,,,,,1002,25,Woman,Right,2,49,0.15,2,0,180,180,0.8536991000000853,['n'],0.5600840000001881,1.642,1747.5528024,,,,,1002,25,Woman,Right,
,,,,,,,,,,,,,,,,,1002,25,Woman,Right,2,34,0.4,1,180,-,180,1.2477437999996255,['n'],0.5245192000002135,1.642,1751.7201446,,,,,1002,25,Woman,Right,
,,,,,,,,,,,,,,,,,1002,25,Woman,Right,2,18,0.4,1,180,-,180,0.7289759000000231,['n'],0.759444600000279,1.078,1755.7699425,,,,,1002,25,Woman,Right,
,,,,,,,,,,,,,,,,,1002,25,Woman,Right,2,51,0.15,2,180,0,180,0.655171099999734,['n'],0.41546870000001945,1.1320000000000001,1759.4866631999998,,,,,1002,25,Woman,Right,
,,,,,,,,,,,,,,,,,1002,25,Woman,Right,2,9,0.4,2,0,180,180,0.6374983999999131,['n'],0.3273269999999684,1.138,1765.4211043,,,,,1002,25,Woman,Right,
,,,,,,,,,,,,,,,,,1002,25,Woman,Right,2,3,1,2,180,0,0,0.5559922999996161,['y'],1.4880709000003662,1.742,1769.6204444999998,,,,,1002,25,Woman,Right,
,,,,,,,,,,,,,,,,,1002,25,Woman,Right,2,30,0.4,1,180,-,0,0.1365977999998904,['n'],0.26397540000016306,1.708,1772.7535683,,,,,1002,25,Woman,Right,
,,,,,,,,,,,,,,,,,1002,25,Woman,Right,2,7,1,2,180,0,0,7.775800899999922,['y'],1.2556494999998904,1.752,1784.2705163,,,,,1002,25,Woman,Right,
,,,,,,,,,,,,,,,,,1002,25,Woman,Right,2,40,0.4,1,0,-,0,0.7503364999997757,['y'],9.399638799999593,1.746,1797.3367784000002,,,,,1002,25,Woman,Right,
,,,,,,,,,,,,,,,,,1002,25,Woman,Right,2,56,0.15,1,0,-,0,0.9596506000002591,['n'],2.247996999999941,1.164,1803.2876843,,,,,1002,25,Woman,Right,
,,,,,,,,,,,,,,,,,1002,25,Woman,Right,2,38,0.4,1,180,-,0,0.599106799999845,['n'],0.38346150000006674,1.1320000000000001,1807.3027573,,,,,1002,25,Woman,Right,
,,,,,,,,,,,,,,,,,1002,25,Woman,Right,2,11,0.4,2,180,0,0,0.7367770999999266,['y'],0.47948019999967073,1.662,1811.0032983,,,,,1002,25,Woman,Right,
,,,,,,,,,,,,,,,,,1002,25,Woman,Right,2,0,1,1,0,-,0,0.5251240000002326,['n'],0.3680624999997235,1.662,1814.8864085,,,,,1002,25,Woman,Right,
,,,,,,,,,,,,,,,,,1002,25,Woman,Right,2,37,0.4,2,0,180,180,0.514825700000074,['y'],0.5358350000001337,1.738,1818.5701680000002,,,,,1002,25,Woman,Right,
,,,,,,,,,,,,,,,,,1002,25,Woman,Right,2,46,0.15,1,180,-,0,0.6617167999997946,['n'],0.46410740000010264,1.734,1822.3697608000002,,,,,1002,25,Woman,Right,
,,,,,,,,,,,,,,,,,1002,25,Woman,Right,2,22,0.4,1,180,-,0,0.33789930000011736,['y'],0.45611460000009174,1.734,1825.453752,,,,,1002,25,Woman,Right,
,,,,,,,,,,,,,,,,,1002,25,Woman,Right,2,69,0.15,2,0,180,180,0.3715959000001021,['y'],0.74409710000009,1.734,1828.7704697,,,,,1002,25,Woman,Right,
,,,,,,,,,,,,,,,,,1002,25,Woman,Right,2,76,0.15,1,0,-,0,0.44519420000005994,['y'],0.38417989999970814,1.734,1831.8207112999999,,,,,1002,25,Woman,Right,
,,,,,,,,,,,,,,,,,1002,25,Woman,Right,2,31,0.4,2,180,0,0,0.31026550000024145,['y'],0.5840579000000616,1.734,1835.2375523,,,,,1002,25,Woman,Right,
,,,,,,,,,,,,,,,,,1002,25,Woman,Right,2,77,0.15,2,0,180,0,0.17562709999992876,['y'],0.44008430000030785,1.734,1838.3704597,,,,,1002,25,Woman,Right,
,,,,,,,,,,,,,,,,,1002,25,Woman,Right,2,1,1,2,0,180,180,0.3746374000002106,['y'],0.4400708000002851,1.706,1841.8531159,,,,,1002,25,Woman,Right,
,,,,,,,,,,,,,,,,,1002,25,Woman,Right,2,61,0.15,2,0,180,0,0.6607286000003114,['y'],0.2799308000003293,1.706,1844.8862177,,,,,1002,25,Woman,Right,
,,,,,,,,,,,,,,,,,1002,25,Woman,Right,2,42,0.4,1,180,-,180,0.2632786999997734,['y'],0.4880580000003647,1.706,1847.7704242999998,,,,,1002,25,Woman,Right,
,,,,,,,,,,,,,,,,,1002,25,Woman,Right,2,33,0.4,2,0,180,180,1.619368200000281,['y'],0.25609780000013416,1.706,1851.8856784,,,,,1002,25,Woman,Right,
,,,,,,,,,,,,,,,,,1002,25,Woman,Right,2,64,0.15,1,0,-,0,0.7350951999997051,['y'],0.5040271999996548,1.706,1855.4033531,,,,,1002,25,Woman,Right,
,,,,,,,,,,,,,,,,,1002,25,Woman,Right,2,15,0.4,2,180,0,0,0.5332446999996137,['y'],0.6641240999997535,1.706,1858.8203862999999,,,,,1002,25,Woman,Right,
,,,,,,,,,,,,,,,,,1002,25,Woman,Right,2,55,0.15,2,180,0,0,0.7643717000000834,['y'],0.5202197000003252,1.706,1862.3033111,,,,,1002,25,Woman,Right,
,,,,,,,,,,,,,,,,,1002,25,Woman,Right,2,71,0.15,2,180,0,0,0.37583889999996245,['y'],0.6560584000003473,1.706,1865.5705538000002,,,,,1002,25,Woman,Right,
,,,,,,,,,,,,,,,,,1002,25,Woman,Right,2,16,0.4,1,0,-,0,6.464259400000174,['y'],1.3890630000000783,1.706,1875.7373554,,,,,1002,25,Woman,Right,
,,,,,,,,,,,,,,,,,1002,25,Woman,Right,2,12,0.4,1,0,-,0,0.40048879999994824,['n'],0.45615670000006503,1.706,1878.7876179999998,,,,,1002,25,Woman,Right,
,,,,,,,,,,,,,,,,,1002,25,Woman,Right,2,57,0.15,2,0,180,180,0.5519257000000835,['y'],0.4801094999997986,1.706,1882.3700579000001,,,,,1002,25,Woman,Right,
,,,,,,,,,,,,,,,,,1002,25,Woman,Right,2,27,0.4,2,180,0,0,0.607737399999678,['y'],1.1681393000003482,1.706,1886.3028718,,,,,1002,25,Woman,Right,
,,,,,,,,,,,,,,,,,1002,25,Woman,Right,2,39,0.4,2,180,0,0,0.1845935000001191,['y'],1.4640079000000696,1.706,1890.0708345000003,,,,,1002,25,Woman,Right,
,,,,,,,,,,,,,,,,,1002,25,Woman,Right,2,58,0.15,1,180,-,180,0.995571899999959,['n'],2.1441036000001077,1.706,1890.0708345000003,,,,,1002,25,Woman,Right,
,,,,,,,,,,,,,,,,,1002,25,Woman,Right,2,8,0.4,1,0,-,180,7.10735909999994,['n'],1.5992913000000044,1.162,1907.2205709999998,,,,,1002,25,Woman,Right,
,,,,,,,,,,,,,,,,,1002,25,Woman,Right,2,70,0.15,1,180,-,180,0.40475930000002336,['n'],1.447526100000232,1.3780000000000001,1911.7530040000001,,,,,1002,25,Woman,Right,
,,,,,,,,,,,,,,,,,1002,25,Woman,Right,2,78,0.15,1,180,-,180,0.9900808000002144,['n'],1.2154359000001023,1.054,1916.370746,,,,,1002,25,Woman,Right,
,,,,,,,,,,,,,,,,,1002,25,Woman,Right,2,63,0.15,2,180,0,0,0.5359422999999879,['y'],1.6641835999998875,1.836,1922.4029316,,,,,1002,25,Woman,Right,
,,,,,,,,,,,,,,,,,1002,25,Woman,Right,2,47,0.15,2,180,0,0,0.2983196999998654,['y'],0.5838794999999664,1.708,1925.819955,,,,,1002,25,Woman,Right,
,,,,,,,,,,,,,,,,,1002,25,Woman,Right,3,55,0.15,2,180,0,180,6.220555200000035,['y'],0.3674564000002647,1.5819999999999999,1962.5358205000002,600.0,70.0,80.0,,1002,25,Woman,Right,
,,,,,,,,,,,,,,,,,1002,25,Woman,Right,3,57,0.15,2,0,180,180,2.0854575000003024,['n'],0.35985640000035346,1.5819999999999999,1967.3367448,,,,,1002,25,Woman,Right,
,,,,,,,,,,,,,,,,,1002,25,Woman,Right,3,73,0.15,2,0,180,180,0.6990138999999544,['n'],0.38795029999982944,1.5819999999999999,1967.3367448,,,,,1002,25,Woman,Right,
,,,,,,,,,,,,,,,,,1002,25,Woman,Right,3,12,0.4,1,0,-,180,0.8064696000001277,['n'],0.5436367000002065,1.292,1974.7872525000002,,,,,1002,25,Woman,Right,
,,,,,,,,,,,,,,,,,1002,25,Woman,Right,3,18,0.4,1,180,-,0,0.6695995999998559,['n'],1.5840886000000864,1.292,1974.7872525000002,,,,,1002,25,Woman,Right,
,,,,,,,,,,,,,,,,,1002,25,Woman,Right,3,69,0.15,2,0,180,180,0.4319785000002412,['n'],0.850600299999769,1.3439999999999999,1983.1192908000003,,,,,1002,25,Woman,Right,
,,,,,,,,,,,,,,,,,1002,25,Woman,Right,3,53,0.15,2,0,180,180,0.3544035999998414,['y'],1.1201790000000074,1.3439999999999999,1986.7362790000002,,,,,1002,25,Woman,Right,
,,,,,,,,,,,,,,,,,1002,25,Woman,Right,3,35,0.4,2,180,0,0,0.5654836000003343,['y'],0.6556971999998495,1.792,1990.7196496000001,,,,,1002,25,Woman,Right,
,,,,,,,,,,,,,,,,,1002,25,Woman,Right,3,50,0.15,1,180,-,0,0.3056504000001041,['y'],0.43969960000003994,1.6520000000000001,1993.9369995000002,,,,,1002,25,Woman,Right,
,,,,,,,,,,,,,,,,,1002,25,Woman,Right,3,27,0.4,2,180,0,0,0.5511222999998608,['y'],0.36824750000005224,1.6520000000000001,1997.1205494,,,,,1002,25,Woman,Right,
,,,,,,,,,,,,,,,,,1002,25,Woman,Right,3,23,0.4,2,180,0,0,0.3211236000001918,['y'],0.37612399999989066,1.6520000000000001,2000.0709018000002,,,,,1002,25,Woman,Right,
,,,,,,,,,,,,,,,,,1002,25,Woman,Right,3,47,0.15,2,180,0,0,0.09117400000013731,['y'],0.4159788000001754,1.6520000000000001,2002.8705382000003,,,,,1002,25,Woman,Right,
,,,,,,,,,,,,,,,,,1002,25,Woman,Right,3,63,0.15,2,180,0,0,0.24236199999995733,['y'],0.3520306000000346,1.6520000000000001,2005.7533498000003,,,,,1002,25,Woman,Right,
,,,,,,,,,,,,,,,,,1002,25,Woman,Right,3,59,0.15,2,180,0,0,3.9156143000000156,['n'],0.8233617999999296,1.6480000000000001,2013.3703286,,,,,1002,25,Woman,Right,
,,,,,,,,,,,,,,,,,1002,25,Woman,Right,3,36,0.4,1,0,-,0,0.4370269000000917,['n'],1.0162193999999545,1.6480000000000001,2017.2043002,,,,,1002,25,Woman,Right,
,,,,,,,,,,,,,,,,,1002,25,Woman,Right,3,52,0.15,1,0,-,0,0.45325640000010026,['n'],0.7122746999998526,1.6480000000000001,2020.5529397,,,,,1002,25,Woman,Right,
,,,,,,,,,,,,,,,,,1002,25,Woman,Right,3,60,0.15,1,0,-,0,0.298274599999786,['n'],0.4079854999999952,1.6480000000000001,2023.6874471,,,,,1002,25,Woman,Right,
,,,,,,,,,,,,,,,,,1002,25,Woman,Right,3,68,0.15,1,0,-,0,0.23994779999975435,['n'],0.4639628999998422,1.6480000000000001,2026.7533207000001,,,,,1002,25,Woman,Right,
,,,,,,,,,,,,,,,,,1002,25,Woman,Right,3,4,1,1,0,-,0,0.2312872999996216,['n'],1.3361042000001362,1.658,2030.75331,,,,,1002,25,Woman,Right,
,,,,,,,,,,,,,,,,,1002,25,Woman,Right,3,51,0.15,2,180,0,0,0.4143919999996797,['n'],0.5517454000000726,1.658,2034.0200662000002,,,,,1002,25,Woman,Right,
,,,,,,,,,,,,,,,,,1002,25,Woman,Right,3,58,0.15,1,180,-,180,0.44948229999999967,['n'],0.33523220000006404,1.5979999999999999,2037.4043121,,,,,1002,25,Woman,Right,
,,,,,,,,,,,,,,,,,1002,25,Woman,Right,3,7,1,2,180,0,0,0.49190439999983937,['n'],0.3523276999999325,1.5979999999999999,2040.4865978000003,,,,,1002,25,Woman,Right,
,,,,,,,,,,,,,,,,,1002,25,Woman,Right,3,24,0.4,1,0,-,0,0.8810241000001042,['n'],0.7581381999998484,1.682,2044.9199364,,,,,1002,25,Woman,Right,
,,,,,,,,,,,,,,,,,1002,25,Woman,Right,3,25,0.4,2,0,180,180,0.5624728999996478,['n'],0.3036887999996907,1.67,2047.9374278999999,,,,,1002,25,Woman,Right,
,,,,,,,,,,,,,,,,,1002,25,Woman,Right,3,6,1,1,180,-,180,0.4374431999999615,['n'],0.4150942999999643,1.6139999999999999,2051.6692093,,,,,1002,25,Woman,Right,
,,,,,,,,,,,,,,,,,1002,25,Woman,Right,3,0,1,1,0,-,0,0.40138640000031955,['n'],0.33570519999966564,1.6280000000000001,2054.6871925,,,,,1002,25,Woman,Right,
,,,,,,,,,,,,,,,,,1002,25,Woman,Right,3,16,0.4,1,0,-,0,0.22104399999989255,['n'],0.3359512000001814,1.6280000000000001,2057.5874806,,,,,1002,25,Woman,Right,
,,,,,,,,,,,,,,,,,1002,25,Woman,Right,3,17,0.4,2,0,180,180,0.4038009000000784,['y'],1.1762226000000737,1.6280000000000001,2061.3702036,,,,,1002,25,Woman,Right,
,,,,,,,,,,,,,,,,,1002,25,Woman,Right,3,2,1,1,180,-,180,0.5018817999998646,['y'],0.5839753000000201,1.6280000000000001,2064.4871366,,,,,1002,25,Woman,Right,
,,,,,,,,,,,,,,,,,1002,25,Woman,Right,3,78,0.15,1,180,-,0,0.10124580000001515,['n'],0.8481778999998824,1.256,2067.9857709000003,,,,,1002,25,Woman,Right,
,,,,,,,,,,,,,,,,,1002,25,Woman,Right,3,76,0.15,1,0,-,0,0.6863726999999926,['n'],0.45579789999965215,1.288,2071.5533953,,,,,1002,25,Woman,Right,
,,,,,,,,,,,,,,,,,1002,25,Woman,Right,3,20,0.4,1,0,-,180,0.45532730000013544,['y'],0.9033914999999979,1.754,2075.8710517,,,,,1002,25,Woman,Right,
,,,,,,,,,,,,,,,,,1002,25,Woman,Right,3,45,0.15,2,0,180,180,0.2915312999998605,['y'],0.7112363999999616,1.71,2079.0043704,,,,,1002,25,Woman,Right,
,,,,,,,,,,,,,,,,,1002,25,Woman,Right,3,3,1,2,180,0,0,0.4297864000000118,['y'],1.151597799999763,1.314,2083.037567,,,,,1002,25,Woman,Right,
,,,,,,,,,,,,,,,,,1002,25,Woman,Right,3,65,0.15,2,0,180,180,0.45277290000012727,['y'],1.0558538000000226,1.27,2086.7533374,,,,,1002,25,Woman,Right,
,,,,,,,,,,,,,,,,,1002,25,Woman,Right,3,43,0.4,2,180,0,0,0.257035900000119,['n'],0.31146399999988716,1.3780000000000001,2089.8205817000003,,,,,1002,25,Woman,Right,
,,,,,,,,,,,,,,,,,1002,25,Woman,Right,3,13,0.4,2,0,180,180,0.6994178999998439,['n'],0.7279465000001437,1.048,2094.436854,,,,,1002,25,Woman,Right,
,,,,,,,,,,,,,,,,,1002,25,Woman,Right,3,56,0.15,1,0,-,0,0.6375960999998824,['y'],0.5759517999999844,1.3679999999999999,2098.1534420000003,,,,,1002,25,Woman,Right,
,,,,,,,,,,,,,,,,,1002,25,Woman,Right,3,38,0.4,1,180,-,180,1.0314296999999897,['y'],0.4797346000000289,1.3359999999999999,2101.9870517,,,,,1002,25,Woman,Right,
,,,,,,,,,,,,,,,,,1002,25,Woman,Right,3,28,0.4,1,0,-,0,0.8148603999998159,['n'],0.31230820000018866,1.242,2105.6866919,,,,,1002,25,Woman,Right,
,,,,,,,,,,,,,,,,,1002,25,Woman,Right,3,62,0.15,1,180,-,180,0.5965995000001385,['n'],0.26360129999966375,1.228,2109.0371042,,,,,1002,25,Woman,Right,
,,,,,,,,,,,,,,,,,1002,25,Woman,Right,3,9,0.4,2,0,180,180,0.5531139999998231,['y'],0.5836712000000261,1.63,2112.7030653,,,,,1002,25,Woman,Right,
,,,,,,,,,,,,,,,,,1002,25,Woman,Right,3,46,0.15,1,180,-,0,0.9243934000000991,['n'],0.6158877000002576,1.568,2119.8357036,,,,,1002,25,Woman,Right,
,,,,,,,,,,,,,,,,,1002,25,Woman,Right,3,75,0.15,2,180,0,180,0.6908336000001327,['n'],1.0555475999999544,1.69,2124.3201134,,,,,1002,25,Woman,Right,
,,,,,,,,,,,,,,,,,1002,25,Woman,Right,3,14,0.4,1,180,-,0,0.1052324000002045,['n'],0.6240759999996044,1.6280000000000001,2127.8045158,,,,,1002,25,Woman,Right,
,,,,,,,,,,,,,,,,,1002,25,Woman,Right,3,39,0.4,2,180,0,0,0.24417540000013105,['n'],0.3833843999996134,1.6280000000000001,2130.7859548,,,,,1002,25,Woman,Right,
,,,,,,,,,,,,,,,,,1002,25,Woman,Right,3,41,0.4,2,0,180,180,0.3166833000000224,['y'],0.6241565000000264,1.3,2134.4706931,,,,,1002,25,Woman,Right,
,,,,,,,,,,,,,,,,,1002,25,Woman,Right,3,44,0.15,1,0,-,0,0.8866507000002457,['n'],0.495536699999775,1.3399999999999999,2138.8374755,,,,,1002,25,Woman,Right,
,,,,,,,,,,,,,,,,,1002,25,Woman,Right,3,48,0.15,1,0,-,0,1.1169629000000896,['n'],0.3919167999997626,1.428,2144.7540966,,,,,1002,25,Woman,Right,
,,,,,,,,,,,,,,,,,1002,25,Woman,Right,3,71,0.15,2,180,0,180,0.6178385000002891,['n'],0.3920908000000054,1.306,2149.4192642000003,,,,,1002,25,Woman,Right,
,,,,,,,,,,,,,,,,,1002,25,Woman,Right,3,1,1,2,0,180,180,0.6164118000001508,['n'],0.5036635999999817,1.238,2153.1707444,,,,,1002,25,Woman,Right,
,,,,,,,,,,,,,,,,,1002,25,Woman,Right,3,40,0.4,1,0,-,0,0.5606241000000409,['n'],0.3836228999998639,1.714,2156.5032444,,,,,1002,25,Woman,Right,
,,,,,,,,,,,,,,,,,1002,25,Woman,Right,3,77,0.15,2,0,180,180,0.4906370000003335,['n'],0.3913564999998016,1.354,2159.9533232,,,,,1002,25,Woman,Right,
,,,,,,,,,,,,,,,,,1002,25,Woman,Right,3,66,0.15,1,180,-,0,0.448201500000323,['n'],0.4792441999998118,1.374,2163.304391,,,,,1002,25,Woman,Right,
,,,,,,,,,,,,,,,,,1002,25,Woman,Right,3,61,0.15,2,0,180,180,0.41647180000018125,['n'],0.45609550000017407,1.374,2166.5029962,,,,,1002,25,Woman,Right,
,,,,,,,,,,,,,,,,,1002,25,Woman,Right,3,74,0.15,1,180,-,0,0.9934726999999839,['n'],0.7595879999998942,1.176,2170.6034576,,,,,1002,25,Woman,Right,
,,,,,,,,,,,,,,,,,1002,25,Woman,Right,3,54,0.15,1,180,-,180,0.8129194000002826,['n'],0.39969680000012886,1.3980000000000001,2174.2696336,,,,,1002,25,Woman,Right,
,,,,,,,,,,,,,,,,,1002,25,Woman,Right,3,26,0.4,1,180,-,0,0.5035695000001397,['n'],0.2878147999999783,1.196,2177.5369555,,,,,1002,25,Woman,Right,
,,,,,,,,,,,,,,,,,1002,25,Woman,Right,3,67,0.15,2,180,0,0,0.5086941999998089,['n'],0.25562619999982417,1.762,2181.1373966,,,,,1002,25,Woman,Right,
,,,,,,,,,,,,,,,,,1002,25,Woman,Right,3,8,0.4,1,0,-,0,1.8959098999998787,['n'],0.7757286999999451,1.762,2181.1373966,,,,,1002,25,Woman,Right,
,,,,,,,,,,,,,,,,,1002,25,Woman,Right,3,31,0.4,2,180,0,0,1.6114419999998972,['y'],0.375267100000201,1.6219999999999999,2190.5535304,,,,,1002,25,Woman,Right,
,,,,,,,,,,,,,,,,,1002,25,Woman,Right,3,30,0.4,1,180,-,180,7.103457900000194,['y'],1.279603699999825,1.6219999999999999,2190.5535304,,,,,1002,25,Woman,Right,
,,,,,,,,,,,,,,,,,1002,25,Woman,Right,3,49,0.15,2,0,180,180,0.2863947000000735,['n'],0.3593725999999151,1.5,2203.5328482,,,,,1002,25,Woman,Right,
,,,,,,,,,,,,,,,,,1002,25,Woman,Right,3,21,0.4,2,0,180,180,0.2518476999998711,['n'],0.8884055000003173,1.626,2207.4867434000003,,,,,1002,25,Woman,Right,
,,,,,,,,,,,,,,,,,1002,25,Woman,Right,3,70,0.15,1,180,-,0,1.0423980000000483,['n'],0.952229399999851,1.626,2212.1871624,,,,,1002,25,Woman,Right,
,,,,,,,,,,,,,,,,,1002,25,Woman,Right,3,37,0.4,2,0,180,180,0.6699429999998756,['y'],1.6160546999999497,1.626,2216.7872552,,,,,1002,25,Woman,Right,
,,,,,,,,,,,,,,,,,1002,25,Woman,Right,3,64,0.15,1,0,-,180,0.7565041000002566,['n'],0.7200394999999844,1.626,2216.7872552,,,,,1002,25,Woman,Right,
,,,,,,,,,,,,,,,,,1002,25,Woman,Right,3,5,1,2,0,180,180,0.9647383999999875,['y'],0.8941450000002078,1.5,2224.0291288,,,,,1002,25,Woman,Right,
,,,,,,,,,,,,,,,,,1002,25,Woman,Right,3,29,0.4,2,0,180,180,0.48598969999966357,['y'],0.3591833000000406,1.676,2227.6029492000002,,,,,1002,25,Woman,Right,
,,,,,,,,,,,,,,,,,1002,25,Woman,Right,3,79,0.15,2,180,0,0,0.3339584999998806,['n'],1.2401593999998113,1.676,2227.6029492000002,,,,,1002,25,Woman,Right,
,,,,,,,,,,,,,,,,,1002,25,Woman,Right,3,22,0.4,1,180,-,180,0.43126950000032593,['y'],0.7921672000002218,1.5,2234.2772055,,,,,1002,25,Woman,Right,
,,,,,,,,,,,,,,,,,1002,25,Woman,Right,3,11,0.4,2,180,0,0,0.2821513999997478,['n'],1.1759980000001633,1.5,2237.8288573,,,,,1002,25,Woman,Right,
,,,,,,,,,,,,,,,,,1002,25,Woman,Right,3,34,0.4,1,180,-,0,0.35000080000008893,['n'],0.3439310000003388,1.676,2241.3701701,,,,,1002,25,Woman,Right,
,,,,,,,,,,,,,,,,,1002,25,Woman,Right,3,15,0.4,2,180,0,0,0.37441660000013144,['n'],0.3521029000003182,1.676,2244.6373921,,,,,1002,25,Woman,Right,
,,,,,,,,,,,,,,,,,1002,25,Woman,Right,3,42,0.4,1,180,-,0,0.33592440000029455,['y'],0.43204770000011194,1.676,2244.6373921,,,,,1002,25,Woman,Right,
,,,,,,,,,,,,,,,,,1002,25,Woman,Right,3,10,0.4,1,180,-,0,0.3204236999999921,['y'],0.5359797000000981,1.676,2251.4692593,,,,,1002,25,Woman,Right,
,,,,,,,,,,,,,,,,,1002,25,Woman,Right,3,33,0.4,2,0,180,180,1.3545264000003954,['y'],0.30413350000026185,1.676,2255.503788,,,,,1002,25,Woman,Right,
,,,,,,,,,,,,,,,,,1002,25,Woman,Right,3,19,0.4,2,180,0,0,0.16030839999984892,['y'],0.8240707999998449,1.676,2258.6197006,,,,,1002,25,Woman,Right,
,,,,,,,,,,,,,,,,,1002,25,Woman,Right,3,32,0.4,1,0,-,180,0.5498468000000685,['y'],0.3440964999999778,1.676,2262.1872467,,,,,1002,25,Woman,Right,
,,,,,,,,,,,,,,,,,1002,25,Woman,Right,3,72,0.15,1,0,-,180,0.5180786000000808,['n'],0.6000561000000744,1.616,2266.0205607000003,,,,,1002,25,Woman,Right,
,,,,,,,,,,,,,,,,,1002,25,Woman,Right,4,62,0.15,1,180,-,0,0.7160051000000749,['n'],0.5596501999998509,1.682,2302.0869921,600.0,75.0,47.5,,1002,25,Woman,Right,
,,,,,,,,,,,,,,,,,1002,25,Woman,Right,4,18,0.4,1,180,-,0,0.5446099000000686,['y'],0.3756066999999348,1.682,2305.5536024000003,,,,,1002,25,Woman,Right,
,,,,,,,,,,,,,,,,,1002,25,Woman,Right,4,32,0.4,1,0,-,0,0.8335723000000144,['n'],0.4556109000000106,1.682,2309.0712806,,,,,1002,25,Woman,Right,
,,,,,,,,,,,,,,,,,1002,25,Woman,Right,4,17,0.4,2,0,180,180,1.3268151000002035,['y'],0.29614889999993466,1.682,2312.9700596000002,,,,,1002,25,Woman,Right,
,,,,,,,,,,,,,,,,,1002,25,Woman,Right,4,76,0.15,1,0,-,0,0.016445399999611254,['y'],0.5422049999997398,1.682,2315.6377353000003,,,,,1002,25,Woman,Right,
,,,,,,,,,,,,,,,,,1002,25,Woman,Right,4,24,0.4,1,0,-,0,0.18857170000001133,['y'],0.32809709999992265,1.682,2318.2698562,,,,,1002,25,Woman,Right,
,,,,,,,,,,,,,,,,,1002,25,Woman,Right,4,70,0.15,1,180,-,0,0.32358949999979814,['y'],0.288060399999722,1.682,2320.9363782,,,,,1002,25,Woman,Right,
,,,,,,,,,,,,,,,,,1002,25,Woman,Right,4,75,0.15,2,180,0,0,0.7042418999999427,['y'],0.3359994000002189,1.65,2324.7377532,,,,,1002,25,Woman,Right,
,,,,,,,,,,,,,,,,,1002,25,Woman,Right,4,19,0.4,2,180,0,0,0.3559021000000939,['y'],0.36773059999995894,1.6480000000000001,2327.7543447000003,,,,,1002,25,Woman,Right,
,,,,,,,,,,,,,,,,,1002,25,Woman,Right,4,36,0.4,1,0,-,180,0.6221914999996443,['y'],0.2481089999996584,1.6480000000000001,2330.8710005000003,,,,,1002,25,Woman,Right,
,,,,,,,,,,,,,,,,,1002,25,Woman,Right,4,46,0.15,1,180,-,180,0.4834859000002325,['y'],0.23195699999996577,1.6480000000000001,2333.8197456000003,,,,,1002,25,Woman,Right,
,,,,,,,,,,,,,,,,,1002,25,Woman,Right,4,2,1,1,180,-,0,0.48721759999989445,['y'],0.37588159999995696,1.6480000000000001,2336.7864188,,,,,1002,25,Woman,Right,
,,,,,,,,,,,,,,,,,1002,25,Woman,Right,4,58,0.15,1,180,-,0,5.114759900000081,['y'],0.3567464000002474,1.6480000000000001,2344.4531889,,,,,1002,25,Woman,Right,
,,,,,,,,,,,,,,,,,1002,25,Woman,Right,4,20,0.4,1,0,-,180,0.37623430000030567,['y'],0.4642052000003787,1.6480000000000001,2347.8873786,,,,,1002,25,Woman,Right,
,,,,,,,,,,,,,,,,,1002,25,Woman,Right,4,5,1,2,0,180,180,0.5309886000000006,['y'],0.47403259999964575,1.758,2351.4702814,,,,,1002,25,Woman,Right,
,,,,,,,,,,,,,,,,,1002,25,Woman,Right,4,38,0.4,1,180,-,0,0.9470288000002256,['y'],0.8880404999999882,1.758,2355.3710427,,,,,1002,25,Woman,Right,
,,,,,,,,,,,,,,,,,1002,25,Woman,Right,4,67,0.15,2,180,0,0,0.49569960000007995,['n'],0.4320741999999882,1.758,2358.5701201,,,,,1002,25,Woman,Right,
,,,,,,,,,,,,,,,,,1002,25,Woman,Right,4,0,1,1,0,-,0,0.5171688999998878,['n'],0.8080171999999948,1.6320000000000001,2362.5374438,,,,,1002,25,Woman,Right,
,,,,,,,,,,,,,,,,,1002,25,Woman,Right,4,27,0.4,2,180,0,0,0.34164570000029926,['n'],0.3200372999999672,1.6320000000000001,2365.5047532,,,,,1002,25,Woman,Right,
,,,,,,,,,,,,,,,,,1002,25,Woman,Right,4,1,1,2,0,180,180,0.4890778000003593,['n'],0.47189750000006825,1.62,2370.7209919,,,,,1002,25,Woman,Right,
,,,,,,,,,,,,,,,,,1002,25,Woman,Right,4,78,0.15,1,180,-,180,0.5847886999999901,['n'],0.39146049999999377,1.626,2374.3880472,,,,,1002,25,Woman,Right,
,,,,,,,,,,,,,,,,,1002,25,Woman,Right,4,50,0.15,1,180,-,180,0.6223093999997218,['n'],0.5757923999999548,1.626,2377.8208858000003,,,,,1002,25,Woman,Right,
,,,,,,,,,,,,,,,,,1002,25,Woman,Right,4,44,0.15,1,0,-,180,0.3109815000002527,['n'],0.5120084000000134,1.626,2380.8534965,,,,,1002,25,Woman,Right,
,,,,,,,,,,,,,,,,,1002,25,Woman,Right,4,11,0.4,2,180,0,0,0.3637634000001526,['n'],0.5199769000000742,1.626,2383.9709687,,,,,1002,25,Woman,Right,
,,,,,,,,,,,,,,,,,1002,25,Woman,Right,4,26,0.4,1,180,-,0,1.0188469999998233,['n'],0.3680276000000049,1.626,2387.6534773,,,,,1002,25,Woman,Right,
,,,,,,,,,,,,,,,,,1002,25,Woman,Right,4,16,0.4,1,0,-,0,0.5029142000003048,['n'],0.383890899999642,1.626,2390.955015,,,,,1002,25,Woman,Right,
,,,,,,,,,,,,,,,,,1002,25,Woman,Right,4,56,0.15,1,0,-,0,1.561044000000038,['n'],0.32797520000031,1.626,2395.0375838,,,,,1002,25,Woman,Right,
,,,,,,,,,,,,,,,,,1002,25,Woman,Right,4,29,0.4,2,0,180,180,0.34431820000008884,['y'],0.4881215999998858,1.626,2398.154039,,,,,1002,25,Woman,Right,
,,,,,,,,,,,,,,,,,1002,25,Woman,Right,4,23,0.4,2,180,0,0,0.3538571999997657,['n'],0.5200896999999713,1.626,2401.3030227,,,,,1002,25,Woman,Right,
,,,,,,,,,,,,,,,,,1002,25,Woman,Right,4,34,0.4,1,180,-,0,0.4396394999998847,['y'],0.3921086000000287,1.626,2404.3208218,,,,,1002,25,Woman,Right,
,,,,,,,,,,,,,,,,,1002,25,Woman,Right,4,49,0.15,2,0,180,180,0.9052154999999402,['n'],0.2801449000003231,1.626,2407.7045873,,,,,1002,25,Woman,Right,
,,,,,,,,,,,,,,,,,1002,25,Woman,Right,4,6,1,1,180,-,0,1.4481955000001108,['n'],0.3241257999998197,1.626,2411.8031092,,,,,1002,25,Woman,Right,
,,,,,,,,,,,,,,,,,1002,25,Woman,Right,4,47,0.15,2,180,0,0,0.6462848999999551,['n'],0.43210169999974823,1.626,2415.2211066,,,,,1002,25,Woman,Right,
,,,,,,,,,,,,,,,,,1002,25,Woman,Right,4,42,0.4,1,180,-,180,0.6231469999997898,['n'],0.463993599999867,1.034,2418.7865323,,,,,1002,25,Woman,Right,
,,,,,,,,,,,,,,,,,1002,25,Woman,Right,4,22,0.4,1,180,-,180,0.38345479999998133,['n'],0.9679246999999123,1.21,2422.7368791,,,,,1002,25,Woman,Right,
,,,,,,,,,,,,,,,,,1002,25,Woman,Right,4,28,0.4,1,0,-,0,0.37945140000010724,['n'],0.2960782999998628,1.748,2426.1379186,,,,,1002,25,Woman,Right,
,,,,,,,,,,,,,,,,,1002,25,Woman,Right,4,69,0.15,2,0,180,180,0.44628340000008393,['n'],1.1038310000003548,1.154,2430.2705653000003,,,,,1002,25,Woman,Right,
,,,,,,,,,,,,,,,,,1002,25,Woman,Right,4,21,0.4,2,0,180,180,0.644677799999954,['y'],0.7918015000000196,1.702,2434.0203457000002,,,,,1002,25,Woman,Right,
,,,,,,,,,,,,,,,,,1002,25,Woman,Right,4,68,0.15,1,0,-,0,0.46733380000023317,['n'],0.8716878999998698,1.43,2438.2377397,,,,,1002,25,Woman,Right,
,,,,,,,,,,,,,,,,,1002,25,Woman,Right,4,14,0.4,1,180,-,0,0.2918720000002395,['n'],1.3516021999998884,1.6179999999999999,2442.0864158,,,,,1002,25,Woman,Right,
,,,,,,,,,,,,,,,,,1002,25,Woman,Right,4,33,0.4,2,0,180,180,0.7230539000001954,['y'],0.6637178000000858,1.604,2445.7032085,,,,,1002,25,Woman,Right,
,,,,,,,,,,,,,,,,,1002,25,Woman,Right,4,55,0.15,2,180,0,0,0.4658171000000948,['n'],0.48001399999975547,1.3900000000000001,2449.1712541,,,,,1002,25,Woman,Right,
,,,,,,,,,,,,,,,,,1002,25,Woman,Right,4,25,0.4,2,0,180,180,0.3765414999998029,['y'],0.6154836999999134,1.634,2452.7693206,,,,,1002,25,Woman,Right,
,,,,,,,,,,,,,,,,,1002,25,Woman,Right,4,52,0.15,1,0,-,0,0.3853189999999813,['n'],1.000099400000181,1.634,2452.7693206,,,,,1002,25,Woman,Right,
,,,,,,,,,,,,,,,,,1002,25,Woman,Right,4,73,0.15,2,0,180,180,0.7278140999997049,['n'],0.5434462000002895,1.454,2460.319669,,,,,1002,25,Woman,Right,
,,,,,,,,,,,,,,,,,1002,25,Woman,Right,4,31,0.4,2,180,0,0,0.64199009999993,['n'],0.7199408999999832,1.22,2464.3210836,,,,,1002,25,Woman,Right,
,,,,,,,,,,,,,,,,,1002,25,Woman,Right,4,41,0.4,2,0,180,180,0.32108059999973193,['n'],0.9278171000000839,1.222,2467.9699751000003,,,,,1002,25,Woman,Right,
,,,,,,,,,,,,,,,,,1002,25,Woman,Right,4,45,0.15,2,0,180,180,2.082522700000027,['y'],0.33179000000018277,1.222,2467.9699751000003,,,,,1002,25,Woman,Right,
,,,,,,,,,,,,,,,,,1002,25,Woman,Right,4,7,1,2,180,0,0,0.9249643000002834,['y'],0.3280329000003803,1.558,2477.1874818,,,,,1002,25,Woman,Right,
,,,,,,,,,,,,,,,,,1002,25,Woman,Right,4,10,0.4,1,180,-,180,0.5754300999997213,['n'],0.4795675999998821,1.554,2480.5360399,,,,,1002,25,Woman,Right,
,,,,,,,,,,,,,,,,,1002,25,Woman,Right,4,39,0.4,2,180,0,0,0.250197400000161,['y'],0.45577719999982946,1.608,2483.6875712,,,,,1002,25,Woman,Right,
,,,,,,,,,,,,,,,,,1002,25,Woman,Right,4,13,0.4,2,0,180,180,0.549327500000345,['y'],0.3516285999999127,1.612,2487.2699527,,,,,1002,25,Woman,Right,
,,,,,,,,,,,,,,,,,1002,25,Woman,Right,4,51,0.15,2,180,0,180,0.9185426999997617,['y'],0.2717435999998088,1.6179999999999999,2491.1036192,,,,,1002,25,Woman,Right,
,,,,,,,,,,,,,,,,,1002,25,Woman,Right,4,43,0.4,2,180,0,0,0.4022005000001627,['y'],0.7841174000000137,1.6179999999999999,2494.5193334,,,,,1002,25,Woman,Right,
,,,,,,,,,,,,,,,,,1002,25,Woman,Right,4,77,0.15,2,0,180,180,0.47459539999999834,['y'],0.24004500000000917,1.6320000000000001,2498.0541184,,,,,1002,25,Woman,Right,
,,,,,,,,,,,,,,,,,1002,25,Woman,Right,4,35,0.4,2,180,0,0,0.6017353000002004,['y'],0.7758828999999423,1.672,2501.7208973,,,,,1002,25,Woman,Right,
,,,,,,,,,,,,,,,,,1002,25,Woman,Right,4,63,0.15,2,180,0,180,1.1154809999998179,['n'],0.6712907000000996,1.6680000000000001,2505.7042653,,,,,1002,25,Woman,Right,
,,,,,,,,,,,,,,,,,1002,25,Woman,Right,4,72,0.15,1,0,-,180,5.658832600000096,['n'],0.40028620000020965,1.6680000000000001,2514.1031639000003,,,,,1002,25,Woman,Right,
,,,,,,,,,,,,,,,,,1002,25,Woman,Right,4,12,0.4,1,0,-,180,0.5720710999999028,['y'],0.3600495000000592,1.6680000000000001,2517.1527271,,,,,1002,25,Woman,Right,
,,,,,,,,,,,,,,,,,1002,25,Woman,Right,4,66,0.15,1,180,-,0,0.26527230000010604,['n'],0.3600820999999996,1.6680000000000001,2519.9201955,,,,,1002,25,Woman,Right,
,,,,,,,,,,,,,,,,,1002,25,Woman,Right,4,59,0.15,2,180,0,180,0.32119120000015755,['n'],0.20802839999987555,1.6680000000000001,2522.6707697,,,,,1002,25,Woman,Right,
,,,,,,,,,,,,,,,,,1002,25,Woman,Right,4,61,0.15,2,0,180,180,0.48247019999962504,['y'],0.28315859999975146,1.6680000000000001,2525.5713338,,,,,1002,25,Woman,Right,
,,,,,,,,,,,,,,,,,1002,25,Woman,Right,4,30,0.4,1,180,-,0,0.4492065000004004,['y'],0.38408079999999245,1.6680000000000001,2528.5029448,,,,,1002,25,Woman,Right,
,,,,,,,,,,,,,,,,,1002,25,Woman,Right,4,4,1,1,0,-,0,0.2643029999999271,['n'],1.129320000000007,1.6680000000000001,2528.5029448,,,,,1002,25,Woman,Right,
,,,,,,,,,,,,,,,,,1002,25,Woman,Right,4,15,0.4,2,180,0,0,0.4428683999999521,['y'],0.37638719999995374,1.6680000000000001,2536.1536489,,,,,1002,25,Woman,Right,
,,,,,,,,,,,,,,,,,1002,25,Woman,Right,4,40,0.4,1,0,-,0,0.2636275999998361,['n'],0.7521582999997918,1.6680000000000001,2539.4210731,,,,,1002,25,Woman,Right,
,,,,,,,,,,,,,,,,,1002,25,Woman,Right,4,64,0.15,1,0,-,180,1.005569800000103,['y'],0.42410530000006474,1.6680000000000001,2543.4708892,,,,,1002,25,Woman,Right,
,,,,,,,,,,,,,,,,,1002,25,Woman,Right,4,37,0.4,2,0,180,180,0.4282607000000098,['y'],1.4401668000000427,1.6680000000000001,2543.4708892,,,,,1002,25,Woman,Right,
,,,,,,,,,,,,,,,,,1002,25,Woman,Right,4,3,1,2,180,0,0,0.5072785000002114,['y'],0.6400832999997874,1.6680000000000001,2550.7368117,,,,,1002,25,Woman,Right,
,,,,,,,,,,,,,,,,,1002,25,Woman,Right,4,60,0.15,1,0,-,180,0.4100506999998288,['y'],0.2801665000001776,1.6680000000000001,2553.603298,,,,,1002,25,Woman,Right,
,,,,,,,,,,,,,,,,,1002,25,Woman,Right,4,79,0.15,2,180,0,0,1.0246296999998776,['y'],2.7442505999997593,1.6680000000000001,2559.4701767,,,,,1002,25,Woman,Right,
,,,,,,,,,,,,,,,,,1002,25,Woman,Right,4,48,0.15,1,0,-,180,2.038398000000143,['n'],1.2240378000001328,1.052,2565.0045998,,,,,1002,25,Woman,Right,
,,,,,,,,,,,,,,,,,1002,25,Woman,Right,4,8,0.4,1,0,-,0,0.5447392000000946,['n'],0.4479334000002382,1.052,2565.0045998,,,,,1002,25,Woman,Right,
,,,,,,,,,,,,,,,,,1002,25,Woman,Right,4,71,0.15,2,180,0,0,0.6437846999997419,['n'],1.3915716999999859,1.558,2574.7368071,,,,,1002,25,Woman,Right,
,,,,,,,,,,,,,,,,,1002,25,Woman,Right,4,74,0.15,1,180,-,0,2.3636280000000625,['y'],1.383917399999973,1.558,2574.7368071,,,,,1002,25,Woman,Right,
,,,,,,,,,,,,,,,,,1002,25,Woman,Right,4,65,0.15,2,0,180,180,0.5623866999999336,['y'],0.5200418000003992,1.5,2583.6863219,,,,,1002,25,Woman,Right,
,,,,,,,,,,,,,,,,,1002,25,Woman,Right,4,9,0.4,2,0,180,180,0.5238164000002143,['y'],0.35150789999988774,1.5,2586.6622813,,,,,1002,25,Woman,Right,
,,,,,,,,,,,,,,,,,1002,25,Woman,Right,4,53,0.15,2,0,180,180,0.5313147000001663,['y'],0.3280024000000594,1.63,2590.386527,,,,,1002,25,Woman,Right,
,,,,,,,,,,,,,,,,,1002,25,Woman,Right,4,54,0.15,1,180,-,180,0.9356260999998085,['y'],0.3120069000001422,1.63,2593.8545237,,,,,1002,25,Woman,Right,
,,,,,,,,,,,,,,,,,1002,25,Woman,Right,4,57,0.15,2,0,180,180,0.19118609999986802,['y'],0.41616659999999683,1.63,2593.8545237,,,,,1002,25,Woman,Right,
,,,,,,,,,,,,,,,,,1002,25,Woman,Right,5,35,0.4,2,180,0,0,1.6993400000001202,['y'],0.26335889999973006,1.5,2633.1665204,560.0,57.5,62.5,,1002,25,Woman,Right,
,,,,,,,,,,,,,,,,,1002,25,Woman,Right,5,10,0.4,1,180,-,180,0.3865486999998211,['y'],0.5120260000003327,1.732,2636.9373329,,,,,1002,25,Woman,Right,
,,,,,,,,,,,,,,,,,1002,25,Woman,Right,5,14,0.4,1,180,-,180,0.38674119999996037,['n'],0.8241089999996802,1.732,2640.6032735,,,,,1002,25,Woman,Right,
,,,,,,,,,,,,,,,,,1002,25,Woman,Right,5,28,0.4,1,0,-,180,0.5503161999999975,['y'],0.7440244999997958,1.732,2640.6032735,,,,,1002,25,Woman,Right,
,,,,,,,,,,,,,,,,,1002,25,Woman,Right,5,25,0.4,2,0,180,180,0.9117565999999897,['y'],0.47210069999982807,1.732,2647.7202652,,,,,1002,25,Woman,Right,
,,,,,,,,,,,,,,,,,1002,25,Woman,Right,5,69,0.15,2,0,180,180,0.9063008999996782,['y'],0.6635670999999093,1.584,2651.6370131,,,,,1002,25,Woman,Right,
,,,,,,,,,,,,,,,,,1002,25,Woman,Right,5,12,0.4,1,0,-,0,0.4959787000002507,['n'],0.33535100000017337,1.262,2655.4704768,,,,,1002,25,Woman,Right,
,,,,,,,,,,,,,,,,,1002,25,Woman,Right,5,17,0.4,2,0,180,180,1.9207617000001846,['y'],0.28747500000008586,1.44,2660.3534635,,,,,1002,25,Woman,Right,
,,,,,,,,,,,,,,,,,1002,25,Woman,Right,5,26,0.4,1,180,-,180,0.8961761000000479,['n'],0.6558371999999508,1.794,2664.4701659,,,,,1002,25,Woman,Right,
,,,,,,,,,,,,,,,,,1002,25,Woman,Right,5,47,0.15,2,180,0,0,0.8201272999999674,['n'],0.7116176999998061,1.6139999999999999,2668.4209935,,,,,1002,25,Woman,Right,
,,,,,,,,,,,,,,,,,1002,25,Woman,Right,5,16,0.4,1,0,-,180,0.49592189999975744,['n'],0.4796150000001944,1.612,2671.936395,,,,,1002,25,Woman,Right,
,,,,,,,,,,,,,,,,,1002,25,Woman,Right,5,7,1,2,180,0,0,0.5063476000000264,['n'],0.3918837999999596,1.596,2675.0374858,,,,,1002,25,Woman,Right,
,,,,,,,,,,,,,,,,,1002,25,Woman,Right,5,78,0.15,1,180,-,0,0.7278824999998506,['n'],0.2641466999998556,1.596,2678.3036506,,,,,1002,25,Woman,Right,
,,,,,,,,,,,,,,,,,1002,25,Woman,Right,5,24,0.4,1,0,-,0,0.5461216000003333,['n'],0.2559307000001354,1.6560000000000001,2681.3211969,,,,,1002,25,Woman,Right,
,,,,,,,,,,,,,,,,,1002,25,Woman,Right,5,55,0.15,2,180,0,180,0.25847139999996216,['n'],0.2720672000000377,1.6560000000000001,2684.53666,,,,,1002,25,Woman,Right,
,,,,,,,,,,,,,,,,,1002,25,Woman,Right,5,39,0.4,2,180,0,0,0.3120650000000751,['n'],0.20814259999997375,1.6560000000000001,2687.2867169,,,,,1002,25,Woman,Right,
,,,,,,,,,,,,,,,,,1002,25,Woman,Right,5,44,0.15,1,0,-,0,0.24294359999976223,['n'],0.21610189999955765,1.6560000000000001,2689.9036533,,,,,1002,25,Woman,Right,
,,,,,,,,,,,,,,,,,1002,25,Woman,Right,5,2,1,1,180,-,180,0.5850875999999516,['n'],0.5280794000000242,1.6099999999999999,2693.3030625,,,,,1002,25,Woman,Right,
,,,,,,,,,,,,,,,,,1002,25,Woman,Right,5,0,1,1,0,-,0,0.1326160999997228,['n'],0.3521584999998595,1.6099999999999999,2696.0211313,,,,,1002,25,Woman,Right,
,,,,,,,,,,,,,,,,,1002,25,Woman,Right,5,38,0.4,1,180,-,180,3.957236400000056,['n'],0.7601450000001932,1.6099999999999999,2702.8032551,,,,,1002,25,Woman,Right,
,,,,,,,,,,,,,,,,,1002,25,Woman,Right,5,15,0.4,2,180,0,0,0.27946960000008403,['n'],0.24800950000008015,1.6099999999999999,2705.4371201,,,,,1002,25,Woman,Right,
,,,,,,,,,,,,,,,,,1002,25,Woman,Right,5,22,0.4,1,180,-,180,3.4145682000003035,['n'],0.7510959999999614,1.6099999999999999,2711.8879149,,,,,1002,25,Woman,Right,
,,,,,,,,,,,,,,,,,1002,25,Woman,Right,5,76,0.15,1,0,-,0,0.519454400000086,['n'],0.3201082000000497,1.6099999999999999,2715.0047032,,,,,1002,25,Woman,Right,
,,,,,,,,,,,,,,,,,1002,25,Woman,Right,5,66,0.15,1,180,-,180,0.7112168000003294,['n'],0.3596529000001283,1.512,2718.1532874,,,,,1002,25,Woman,Right,
,,,,,,,,,,,,,,,,,1002,25,Woman,Right,5,70,0.15,1,180,-,0,0.626511599999958,['n'],0.36009489999969446,1.512,2721.2535841,,,,,1002,25,Woman,Right,
,,,,,,,,,,,,,,,,,1002,25,Woman,Right,5,29,0.4,2,0,180,180,0.6449855000000753,['n'],0.479810599999837,1.62,2725.1861628,,,,,1002,25,Woman,Right,
,,,,,,,,,,,,,,,,,1002,25,Woman,Right,5,68,0.15,1,0,-,0,0.4101040999998986,['n'],0.4160643000000164,1.62,2728.1535175,,,,,1002,25,Woman,Right,
,,,,,,,,,,,,,,,,,1002,25,Woman,Right,5,21,0.4,2,0,180,180,0.4182648999999401,['y'],0.46342609999965134,1.524,2731.4872089,,,,,1002,25,Woman,Right,
,,,,,,,,,,,,,,,,,1002,25,Woman,Right,5,34,0.4,1,180,-,180,0.6915277000002789,['y'],0.41607840000006036,1.524,2734.6545727000002,,,,,1002,25,Woman,Right,
,,,,,,,,,,,,,,,,,1002,25,Woman,Right,5,64,0.15,1,0,-,180,0.510957800000142,['y'],0.7274282000003041,1.57,2738.1709628,,,,,1002,25,Woman,Right,
,,,,,,,,,,,,,,,,,1002,25,Woman,Right,5,19,0.4,2,180,0,0,0.36264770000025237,['n'],0.28774079999993774,1.558,2741.0203775,,,,,1002,25,Woman,Right,
,,,,,,,,,,,,,,,,,1002,25,Woman,Right,5,20,0.4,1,0,-,0,0.4816710999998577,['n'],0.3994440999999824,1.654,2744.5543052000003,,,,,1002,25,Woman,Right,
,,,,,,,,,,,,,,,,,1002,25,Woman,Right,5,57,0.15,2,0,180,180,0.44025349999992613,['n'],0.4159632999999303,1.654,2748.2531179000002,,,,,1002,25,Woman,Right,
,,,,,,,,,,,,,,,,,1002,25,Woman,Right,5,62,0.15,1,180,-,180,0.2603046999997787,['n'],0.28008909999971365,1.654,2751.0037291,,,,,1002,25,Woman,Right,
,,,,,,,,,,,,,,,,,1002,25,Woman,Right,5,4,1,1,0,-,0,0.13595520000035322,['n'],0.36709449999989374,1.65,2753.6715371,,,,,1002,25,Woman,Right,
,,,,,,,,,,,,,,,,,1002,25,Woman,Right,5,43,0.4,2,180,0,0,1.2755399000002399,['y'],0.38410609999982626,1.65,2757.40379,,,,,1002,25,Woman,Right,
,,,,,,,,,,,,,,,,,1002,25,Woman,Right,5,54,0.15,1,180,-,180,1.0950030000003608,['n'],0.7360592999998516,1.284,2761.4714214,,,,,1002,25,Woman,Right,
,,,,,,,,,,,,,,,,,1002,25,Woman,Right,5,65,0.15,2,0,180,0,0.5017167999999401,['y'],0.7037457000001268,1.284,2761.4714214,,,,,1002,25,Woman,Right,
,,,,,,,,,,,,,,,,,1002,25,Woman,Right,5,27,0.4,2,180,0,0,0.29795560000002297,['y'],0.5679864999997335,1.522,2768.2711961,,,,,1002,25,Woman,Right,
,,,,,,,,,,,,,,,,,1002,25,Woman,Right,5,71,0.15,2,180,0,0,0.40486760000021604,['n'],0.5034782999996423,1.616,2772.0032922,,,,,1002,25,Woman,Right,
,,,,,,,,,,,,,,,,,1002,25,Woman,Right,5,41,0.4,2,0,180,180,0.36802350000016304,['y'],0.4953576000002613,1.616,2772.0032922,,,,,1002,25,Woman,Right,
,,,,,,,,,,,,,,,,,1002,25,Woman,Right,5,48,0.15,1,0,-,0,0.22104040000021996,['n'],0.48813419999987673,1.3359999999999999,2778.2047501,,,,,1002,25,Woman,Right,
,,,,,,,,,,,,,,,,,1002,25,Woman,Right,5,30,0.4,1,180,-,180,0.9602024000000711,['n'],0.2074721999997564,1.486,2781.5215875,,,,,1002,25,Woman,Right,
,,,,,,,,,,,,,,,,,1002,25,Woman,Right,5,9,0.4,2,0,180,180,0.6334156000002622,['y'],0.304155400000127,1.486,2784.787018,,,,,1002,25,Woman,Right,
,,,,,,,,,,,,,,,,,1002,25,Woman,Right,5,58,0.15,1,180,-,180,0.36234680000006847,['n'],0.2480703999999605,1.3599999999999999,2787.9876878,,,,,1002,25,Woman,Right,
,,,,,,,,,,,,,,,,,1002,25,Woman,Right,5,63,0.15,2,180,0,0,0.4338466999997763,['n'],0.39989009999999325,1.3599999999999999,2787.9876878,,,,,1002,25,Woman,Right,
,,,,,,,,,,,,,,,,,1002,25,Woman,Right,5,60,0.15,1,0,-,0,0.22782460000007632,['n'],0.18377640000016982,1.5,2793.2149591,,,,,1002,25,Woman,Right,
,,,,,,,,,,,,,,,,,1002,25,Woman,Right,5,77,0.15,2,0,180,180,0.5208148000001529,['n'],0.7116224999999758,1.558,2797.769979,,,,,1002,25,Woman,Right,
,,,,,,,,,,,,,,,,,1002,25,Woman,Right,5,61,0.15,2,0,180,180,0.360946100000092,['n'],0.24018200000000434,1.558,2800.5869288,,,,,1002,25,Woman,Right,
,,,,,,,,,,,,,,,,,1002,25,Woman,Right,5,79,0.15,2,180,0,0,0.428099100000054,['n'],0.3114878999999746,1.568,2803.8198787,,,,,1002,25,Woman,Right,
,,,,,,,,,,,,,,,,,1002,25,Woman,Right,5,31,0.4,2,180,0,0,1.4319522000000688,['y'],0.22362400000019989,1.572,2807.9699305,,,,,1002,25,Woman,Right,
,,,,,,,,,,,,,,,,,1002,25,Woman,Right,5,11,0.4,2,180,0,0,0.3822461999998268,['y'],0.36805080000021917,1.572,2811.0544462000003,,,,,1002,25,Woman,Right,
,,,,,,,,,,,,,,,,,1002,25,Woman,Right,5,32,0.4,1,0,-,0,0.8225262999999359,['n'],0.24836069999992105,1.572,2814.4538566,,,,,1002,25,Woman,Right,
,,,,,,,,,,,,,,,,,1002,25,Woman,Right,5,13,0.4,2,0,180,180,0.48977430000013555,['y'],0.37601489999997284,1.572,2817.7201039,,,,,1002,25,Woman,Right,
,,,,,,,,,,,,,,,,,1002,25,Woman,Right,5,59,0.15,2,180,0,0,0.3322051999998621,['n'],0.38406929999973727,1.572,2820.5370139,,,,,1002,25,Woman,Right,
,,,,,,,,,,,,,,,,,1002,25,Woman,Right,5,46,0.15,1,180,-,180,0.8123292999998739,['n'],1.0395253000001503,1.06,2825.4547019,,,,,1002,25,Woman,Right,
,,,,,,,,,,,,,,,,,1002,25,Woman,Right,5,72,0.15,1,0,-,180,0.6152725000001737,['n'],0.22376819999999498,1.052,2828.7374277,,,,,1002,25,Woman,Right,
,,,,,,,,,,,,,,,,,1002,25,Woman,Right,5,33,0.4,2,0,180,180,0.7314970000002177,['n'],0.4622174000000996,1.284,2832.771125,,,,,1002,25,Woman,Right,
,,,,,,,,,,,,,,,,,1002,25,Woman,Right,5,53,0.15,2,0,180,180,0.569549399999687,['n'],0.199353400000291,1.304,2838.4712162,,,,,1002,25,Woman,Right,
,,,,,,,,,,,,,,,,,1002,25,Woman,Right,5,23,0.4,2,180,0,0,0.2711819999999534,['n'],1.6394007999997484,1.3519999999999999,2842.6877335,,,,,1002,25,Woman,Right,
,,,,,,,,,,,,,,,,,1002,25,Woman,Right,5,50,0.15,1,180,-,0,0.13454640000009022,['n'],0.37582079999992857,1.358,2845.5874501,,,,,1002,25,Woman,Right,
,,,,,,,,,,,,,,,,,1002,25,Woman,Right,5,40,0.4,1,0,-,0,0.1608936000002359,['n'],0.19159820000004402,1.392,2848.4204298,,,,,1002,25,Woman,Right,
,,,,,,,,,,,,,,,,,1002,25,Woman,Right,5,56,0.15,1,0,-,0,0.21326150000004418,['n'],0.20745400000032532,1.338,2851.2205504,,,,,1002,25,Woman,Right,
,,,,,,,,,,,,,,,,,1002,25,Woman,Right,5,18,0.4,1,180,-,180,0.3751009000002341,['n'],0.2794693000000734,1.374,2854.1701447,,,,,1002,25,Woman,Right,
,,,,,,,,,,,,,,,,,1002,25,Woman,Right,5,51,0.15,2,180,0,0,0.5327646000000641,['n'],0.2081969000000754,1.3940000000000001,2857.4208054,,,,,1002,25,Woman,Right,
,,,,,,,,,,,,,,,,,1002,25,Woman,Right,5,8,0.4,1,0,-,0,0.2921498000000611,['n'],0.25625350000018443,1.3639999999999999,2860.5041005000003,,,,,1002,25,Woman,Right,
,,,,,,,,,,,,,,,,,1002,25,Woman,Right,5,6,1,1,180,-,180,0.2685609000000113,['n'],0.2716860999998971,1.286,2863.3545961,,,,,1002,25,Woman,Right,
,,,,,,,,,,,,,,,,,1002,25,Woman,Right,5,73,0.15,2,0,180,180,0.5661396000000423,['n'],0.2632266000000527,1.22,2866.5374888,,,,,1002,25,Woman,Right,
,,,,,,,,,,,,,,,,,1002,25,Woman,Right,5,42,0.4,1,180,-,180,0.3682370000001356,['n'],0.24701920000006794,1.302,2869.7526239,,,,,1002,25,Woman,Right,
,,,,,,,,,,,,,,,,,1002,25,Woman,Right,5,74,0.15,1,180,-,180,0.5758336999997482,['n'],0.15989779999972598,1.256,2872.8208822,,,,,1002,25,Woman,Right,
,,,,,,,,,,,,,,,,,1002,25,Woman,Right,5,36,0.4,1,0,-,180,2.4715173999998115,['n'],0.5599727999997413,1.26,2878.2040313,,,,,1002,25,Woman,Right,
,,,,,,,,,,,,,,,,,1002,25,Woman,Right,5,1,1,2,0,180,180,0.8710750999998709,['n'],0.27993749999996,1.26,2878.2040313,,,,,1002,25,Woman,Right,
,,,,,,,,,,,,,,,,,1002,25,Woman,Right,5,45,0.15,2,0,180,0,0.2834602999996605,['n'],1.6318360999998731,1.1520000000000001,2887.1035428,,,,,1002,25,Woman,Right,
,,,,,,,,,,,,,,,,,1002,25,Woman,Right,5,52,0.15,1,0,-,0,0.30724000000009255,['n'],0.6717574999997851,1.134,2890.5033598,,,,,1002,25,Woman,Right,
,,,,,,,,,,,,,,,,,1002,25,Woman,Right,5,49,0.15,2,0,180,180,1.4189663000001929,['y'],0.42369520000011107,1.55,2895.3366727000002,,,,,1002,25,Woman,Right,
,,,,,,,,,,,,,,,,,1002,25,Woman,Right,5,37,0.4,2,0,180,180,0.6098084000000199,['y'],0.4635140999998839,1.418,2898.7372753,,,,,1002,25,Woman,Right,
,,,,,,,,,,,,,,,,,1002,25,Woman,Right,5,75,0.15,2,180,0,0,0.41279000000031374,['n'],1.52745909999976,1.428,2902.7548347,,,,,1002,25,Woman,Right,
,,,,,,,,,,,,,,,,,1002,25,Woman,Right,5,3,1,2,180,0,0,1.3474026999997477,['y'],0.3758057000000008,1.474,2906.537326,,,,,1002,25,Woman,Right,
,,,,,,,,,,,,,,,,,1002,25,Woman,Right,5,67,0.15,2,180,0,0,0.3873609000002034,['y'],0.5355144000000109,1.584,2910.1545282,,,,,1002,25,Woman,Right,
,,,,,,,,,,,,,,,,,1002,25,Woman,Right,5,5,1,2,0,180,0,0.01680609999993976,['y'],0.8004165000002104,1.458,2913.3045922,,,,,1002,25,Woman,Right,
,,,,,,,,,,,,,,,,,,,,,,,,,,,,,,,,,680.0,90.0,45.0,2581.3940030000003,,,,,
