p_block,p_section,p_coherence,p_direction1,p_direction2,p_direction_response,p_direction_RT,p_change_response,p_change_RT,p_confidence,p_full_correct,p_without5_correct,p_full_total,p_without5_total,p_full_avg,p_witout5_avg,p_total_time,sub,age,sex,handedness,loop,trial randomization,coherence,condition,direction1,direction2,direction_response,direction_RT,change_response,change_RT,change_confidence,change_confidence_RT,block_direction_avg,block_stable_avg,block_change_avg,total_time,sub,age,sex,handedness,
1,1,1.0,180,-,180,0.8114465999997265,-,-,-,,,,,,,,574,18,Woman,Right,,,,,,,,,,,,,,,,,574,18,Woman,Right,
1,1,1.0,0,-,0,0.9338339999994787,-,-,-,,,,,,,,574,18,Woman,Right,,,,,,,,,,,,,,,,,574,18,Woman,Right,
1,1,1.0,0,-,0,0.2508129000007102,-,-,-,,,,,,,,574,18,Woman,Right,,,,,,,,,,,,,,,,,574,18,Woman,Right,
1,1,1.0,180,-,180,0.01671219999934692,-,-,-,,,,,,,,574,18,Woman,Right,,,,,,,,,,,,,,,,,574,18,Woman,Right,
1,1,1.0,0,-,0,0.6851039000002856,-,-,-,,,,,,,,574,18,Woman,Right,,,,,,,,,,,,,,,,,574,18,Woman,Right,
1,1,1.0,0,-,0,0.3876395000006596,-,-,-,,,,,,,,574,18,Woman,Right,,,,,,,,,,,,,,,,,574,18,Woman,Right,
1,1,1.0,180,-,180,0.46243800000047486,-,-,-,,,,,,,,574,18,Woman,Right,,,,,,,,,,,,,,,,,574,18,Woman,Right,
1,1,1.0,180,-,180,0.44698479999988194,-,-,-,,,,,,,,574,18,Woman,Right,,,,,,,,,,,,,,,,,574,18,Woman,Right,
1,1,1.0,180,-,180,0.20835010000064358,-,-,-,,,,,,,,574,18,Woman,Right,,,,,,,,,,,,,,,,,574,18,Woman,Right,
1,1,1.0,0,-,180,0.45905390000007174,-,-,-,9,9,10,10,0.9,0.9,,574,18,Woman,Right,,,,,,,,,,,,,,,,,574,18,Woman,Right,
2,1,0.15,0,-,180,0.7685082999996666,-,-,-,,,,,,,,574,18,Woman,Right,,,,,,,,,,,,,,,,,574,18,Woman,Right,
2,1,0.15,180,-,0,0.5874371999998402,-,-,-,,,,,,,,574,18,Woman,Right,,,,,,,,,,,,,,,,,574,18,Woman,Right,
2,1,0.15,0,-,0,0.5501038000002154,-,-,-,,,,,,,,574,18,Woman,Right,,,,,,,,,,,,,,,,,574,18,Woman,Right,
2,1,0.4,180,-,180,0.4740724000002956,-,-,-,,,,,,,,574,18,Woman,Right,,,,,,,,,,,,,,,,,574,18,Woman,Right,
2,1,0.15,180,-,180,0.4254832999995415,-,-,-,,,,,,,,574,18,Woman,Right,,,,,,,,,,,,,,,,,574,18,Woman,Right,
2,1,0.4,0,-,0,0.5227260000001479,-,-,-,,,,,,,,574,18,Woman,Right,,,,,,,,,,,,,,,,,574,18,Woman,Right,
2,1,0.15,180,-,0,0.11252160000003641,-,-,-,,,,,,,,574,18,Woman,Right,,,,,,,,,,,,,,,,,574,18,Woman,Right,
2,1,0.15,0,-,180,1.0140527000003203,-,-,-,,,,,,,,574,18,Woman,Right,,,,,,,,,,,,,,,,,574,18,Woman,Right,
2,1,0.4,0,-,0,0.5500216999998884,-,-,-,,,,,,,,574,18,Woman,Right,,,,,,,,,,,,,,,,,574,18,Woman,Right,
2,1,0.4,0,-,0,0.3887309000001551,-,-,-,6,4,10,4,0.6,1.0,,574,18,Woman,Right,,,,,,,,,,,,,,,,,574,18,Woman,Right,
3,2,1.0,180,0,0,0.9501631000002817,['y'],0.5372033000003285,1.51,,,,,,,,574,18,Woman,Right,,,,,,,,,,,,,,,,,574,18,Woman,Right,
3,2,1.0,180,0,0,2.2660390000000916,['n'],1.3923731999993834,1.49,,,,,,,,574,18,Woman,Right,,,,,,,,,,,,,,,,,574,18,Woman,Right,
3,2,1.0,0,180,180,0.8602350999999544,['y'],0.36463410000033036,1.476,,,,,,,,574,18,Woman,Right,,,,,,,,,,,,,,,,,574,18,Woman,Right,
3,2,1.0,180,0,180,0.7247710999999981,['y'],0.7230238000001918,1.502,,,,,,,,574,18,Woman,Right,,,,,,,,,,,,,,,,,574,18,Woman,Right,
3,2,1.0,180,0,0,0.5738803000003827,['y'],0.7563064999994822,1.502,,,,,,,,574,18,Woman,Right,,,,,,,,,,,,,,,,,574,18,Woman,Right,
3,2,1.0,180,0,0,0.44494179999946937,['y'],1.3294957999996768,1.496,,,,,,,,574,18,Woman,Right,,,,,,,,,,,,,,,,,574,18,Woman,Right,
3,2,1.0,0,180,180,0.5938443999993979,['y'],0.28114780000032624,1.496,,,,,,,,574,18,Woman,Right,,,,,,,,,,,,,,,,,574,18,Woman,Right,
3,2,1.0,0,180,180,0.3937321000003067,['y'],0.5133397999998124,1.496,,,,,,,,574,18,Woman,Right,,,,,,,,,,,,,,,,,574,18,Woman,Right,
3,2,1.0,0,180,180,0.4458494000000428,['y'],0.36413530000027095,1.496,,,,,,,,574,18,Woman,Right,,,,,,,,,,,,,,,,,574,18,Woman,Right,
3,2,1.0,0,180,180,0.40038779999940743,['y'],0.7044936000002053,1.496,9,9,10,10,0.9,0.9,,574,18,Woman,Right,,,,,,,,,,,,,,,,,574,18,Woman,Right,
4,2,0.4,0,180,180,0.512355199999547,['y'],0.2629550999999992,1.51,,,,,,,,574,18,Woman,Right,,,,,,,,,,,,,,,,,574,18,Woman,Right,
4,2,0.4,180,0,0,0.619786700000077,['y'],0.3580136999999013,1.514,,,,,,,,574,18,Woman,Right,,,,,,,,,,,,,,,,,574,18,Woman,Right,
4,2,0.4,0,180,180,0.5408046000002287,['y'],0.29839279999941937,1.496,,,,,,,,574,18,Woman,Right,,,,,,,,,,,,,,,,,574,18,Woman,Right,
4,2,0.15,180,0,0,0.7814523999995799,['n'],0.2673610000001645,1.496,,,,,,,,574,18,Woman,Right,,,,,,,,,,,,,,,,,574,18,Woman,Right,
4,2,0.15,0,180,180,0.4957564000005732,['n'],0.45907850000003236,1.496,,,,,,,,574,18,Woman,Right,,,,,,,,,,,,,,,,,574,18,Woman,Right,
4,2,0.4,180,0,0,0.40008189999934984,['n'],0.5603122000002259,1.496,,,,,,,,574,18,Woman,Right,,,,,,,,,,,,,,,,,574,18,Woman,Right,
4,2,0.4,180,0,0,0.6001599000001079,['y'],0.37621909999961645,1.496,,,,,,,,574,18,Woman,Right,,,,,,,,,,,,,,,,,574,18,Woman,Right,
4,2,0.4,0,180,180,0.39640760000020236,['y'],0.30836959999942337,1.496,,,,,,,,574,18,Woman,Right,,,,,,,,,,,,,,,,,574,18,Woman,Right,
4,2,0.4,180,0,0,0.5474998000008782,['y'],0.33550650000051974,1.496,,,,,,,,574,18,Woman,Right,,,,,,,,,,,,,,,,,574,18,Woman,Right,
4,2,0.4,0,180,0,0.645576699999765,['y'],0.44579669999984617,1.496,9,7,10,8,0.9,0.875,,574,18,Woman,Right,,,,,,,,,,,,,,,,,574,18,Woman,Right,
5,3,0.15,180,0,0,0.7534792000005837,['y'],0.2953091999997923,1.496,,,,,,,,574,18,Woman,Right,,,,,,,,,,,,,,,,,574,18,Woman,Right,
5,3,1.0,0,180,180,0.3862070000004678,['y'],0.2790469999999914,1.496,,,,,,,,574,18,Woman,Right,,,,,,,,,,,,,,,,,574,18,Woman,Right,
5,3,0.4,0,-,180,0.4263650000002599,['y'],0.3583803000001353,1.496,,,,,,,,574,18,Woman,Right,,,,,,,,,,,,,,,,,574,18,Woman,Right,
5,3,0.4,180,-,0,0.649885699999686,['y'],0.2845387999996092,1.496,,,,,,,,574,18,Woman,Right,,,,,,,,,,,,,,,,,574,18,Woman,Right,
5,3,0.15,180,0,180,0.46679110000059154,['y'],0.6330016000001706,1.496,,,,,,,,574,18,Woman,Right,,,,,,,,,,,,,,,,,574,18,Woman,Right,
5,3,0.4,180,-,0,0.4961547000002611,['n'],0.49985519999972894,1.496,,,,,,,,574,18,Woman,Right,,,,,,,,,,,,,,,,,574,18,Woman,Right,
5,3,0.15,180,0,0,0.5361335000006875,['y'],0.41131700000005367,1.496,,,,,,,,574,18,Woman,Right,,,,,,,,,,,,,,,,,574,18,Woman,Right,
5,3,1.0,180,0,0,0.4227759999994305,['y'],0.4561548000001494,1.496,,,,,,,,574,18,Woman,Right,,,,,,,,,,,,,,,,,574,18,Woman,Right,
5,3,1.0,180,0,0,0.3508287999993627,['y'],0.322537399999419,1.496,,,,,,,,574,18,Woman,Right,,,,,,,,,,,,,,,,,574,18,Woman,Right,
5,3,0.4,180,-,0,0.3255120000003444,['y'],0.2524082999998427,1.496,,,,,,,,574,18,Woman,Right,,,,,,,,,,,,,,,,,574,18,Woman,Right,
5,3,0.4,0,180,180,0.3694472000006499,['y'],0.28627979999964737,1.496,,,,,,,,574,18,Woman,Right,,,,,,,,,,,,,,,,,574,18,Woman,Right,
5,3,1.0,180,0,0,0.4395706000004793,['y'],0.4188318000005893,1.496,,,,,,,,574,18,Woman,Right,,,,,,,,,,,,,,,,,574,18,Woman,Right,
5,3,0.4,180,0,0,0.41192749999936495,['y'],0.5055966999998418,1.496,,,,,,,,574,18,Woman,Right,,,,,,,,,,,,,,,,,574,18,Woman,Right,
5,3,1.0,0,180,180,0.35477220000029774,['y'],0.6581707000004826,1.496,,,,,,,,574,18,Woman,Right,,,,,,,,,,,,,,,,,574,18,Woman,Right,
5,3,1.0,180,-,0,0.3666569000006348,['y'],0.29460959999960323,1.496,,,,,,,,574,18,Woman,Right,,,,,,,,,,,,,,,,,574,18,Woman,Right,
5,3,0.4,180,0,0,0.44811550000031275,['y'],0.8382443000000421,1.496,,,,,,,,574,18,Woman,Right,,,,,,,,,,,,,,,,,574,18,Woman,Right,
5,3,1.0,180,-,180,0.5713759999998729,['y'],1.2209387000002607,1.496,,,,,,,,574,18,Woman,Right,,,,,,,,,,,,,,,,,574,18,Woman,Right,
5,3,0.15,0,180,0,0.7845216999994591,['n'],2.0196014000002833,1.496,,,,,,,,574,18,Woman,Right,,,,,,,,,,,,,,,,,574,18,Woman,Right,
5,3,1.0,0,-,180,1.1746020000000499,['y'],0.4264619000005041,1.502,,,,,,,,574,18,Woman,Right,,,,,,,,,,,,,,,,,574,18,Woman,Right,
5,3,1.0,180,-,0,0.4479400000000169,['n'],0.22604489999957877,1.502,,,,,,,,574,18,Woman,Right,,,,,,,,,,,,,,,,,574,18,Woman,Right,
5,3,0.4,180,0,180,0.4446890999997777,['n'],0.2236087999999654,1.502,,,,,,,,574,18,Woman,Right,,,,,,,,,,,,,,,,,574,18,Woman,Right,
5,3,0.4,180,-,0,1.0647310999993351,['y'],0.6363314999998693,1.502,,,,,,,,574,18,Woman,Right,,,,,,,,,,,,,,,,,574,18,Woman,Right,
5,3,0.4,0,180,180,0.4334233999998105,['y'],0.2636206000006496,1.502,,,,,,,,574,18,Woman,Right,,,,,,,,,,,,,,,,,574,18,Woman,Right,
5,3,1.0,0,-,0,0.6286746000005223,['y'],0.32344579999971756,1.504,,,,,,,,574,18,Woman,Right,,,,,,,,,,,,,,,,,574,18,Woman,Right,
5,3,1.0,180,0,0,0.45219449999967765,['y'],0.4102192999998806,1.502,,,,,,,,574,18,Woman,Right,,,,,,,,,,,,,,,,,574,18,Woman,Right,
5,3,1.0,0,-,0,0.4464914000000135,['n'],0.2620904999994309,1.502,,,,,,,,574,18,Woman,Right,,,,,,,,,,,,,,,,,574,18,Woman,Right,
5,3,0.4,0,180,180,0.6730326999995668,['y'],0.351179599999341,1.502,,,,,,,,574,18,Woman,Right,,,,,,,,,,,,,,,,,574,18,Woman,Right,
5,3,0.15,180,0,0,0.3977479000004678,['n'],0.13553440000032424,1.502,,,,,,,,574,18,Woman,Right,,,,,,,,,,,,,,,,,574,18,Woman,Right,
5,3,0.4,180,-,180,0.016705000000001746,['y'],1.7173855000000913,1.502,,,,,,,,574,18,Woman,Right,,,,,,,,,,,,,,,,,574,18,Woman,Right,
5,3,0.15,180,-,0,0.4897675000001982,['y'],0.8104996999991272,1.502,,,,,,,,574,18,Woman,Right,,,,,,,,,,,,,,,,,574,18,Woman,Right,
5,3,0.15,0,-,0,0.3517776999997295,['y'],0.3186022999998386,1.502,,,,,,,,574,18,Woman,Right,,,,,,,,,,,,,,,,,574,18,Woman,Right,
5,3,0.15,0,180,180,0.34244459999990795,['n'],0.34365059999981895,1.502,,,,,,,,574,18,Woman,Right,,,,,,,,,,,,,,,,,574,18,Woman,Right,
5,3,0.4,180,-,0,0.43570330000056856,['n'],0.256655199999841,1.502,,,,,,,,574,18,Woman,Right,,,,,,,,,,,,,,,,,574,18,Woman,Right,
5,3,0.4,180,0,0,0.5679159000001164,['y'],0.5363336000000345,1.502,,,,,,,,574,18,Woman,Right,,,,,,,,,,,,,,,,,574,18,Woman,Right,
5,3,0.4,0,180,180,0.40044720000059897,['y'],0.37693730000046344,1.502,,,,,,,,574,18,Woman,Right,,,,,,,,,,,,,,,,,574,18,Woman,Right,
5,3,0.4,0,-,180,0.44454679999944346,['y'],0.28374299999995856,1.502,,,,,,,,574,18,Woman,Right,,,,,,,,,,,,,,,,,574,18,Woman,Right,
5,3,0.15,180,0,180,0.667987699999685,['y'],1.450602799999615,1.498,,,,,,,,574,18,Woman,Right,,,,,,,,,,,,,,,,,574,18,Woman,Right,
5,3,0.15,0,-,180,0.5434760999996797,['n'],0.05961419999948703,1.498,,,,,,,,574,18,Woman,Right,,,,,,,,,,,,,,,,,574,18,Woman,Right,
5,3,0.4,0,-,0,0.813675799999146,['n'],0.5289588999994521,1.498,,,,,,,,574,18,Woman,Right,,,,,,,,,,,,,,,,,574,18,Woman,Right,
5,3,0.4,0,-,0,0.9003558000003977,['y'],0.2835607000006348,1.498,,,,,,,,574,18,Woman,Right,,,,,,,,,,,,,,,,,574,18,Woman,Right,
5,3,1.0,0,-,0,0.5009839000003922,['y'],0.6457516000000396,1.498,,,,,,,,574,18,Woman,Right,,,,,,,,,,,,,,,,,574,18,Woman,Right,
5,3,0.4,180,0,0,0.3529296999995495,['y'],0.8644131999999445,1.498,,,,,,,,574,18,Woman,Right,,,,,,,,,,,,,,,,,574,18,Woman,Right,
5,3,0.4,0,-,0,0.575030400000287,['n'],0.4623209000001225,1.498,,,,,,,,574,18,Woman,Right,,,,,,,,,,,,,,,,,574,18,Woman,Right,
5,3,0.4,0,180,0,0.9644232999999076,['y'],1.798405699999421,1.472,,,,,,,,574,18,Woman,Right,,,,,,,,,,,,,,,,,574,18,Woman,Right,
5,3,0.15,180,0,0,1.4107450999999855,['y'],0.5236070999999356,1.49,,,,,,,,574,18,Woman,Right,,,,,,,,,,,,,,,,,574,18,Woman,Right,
5,3,0.15,180,0,180,0.9558563000000504,['n'],0.39964879999934055,1.492,,,,,,,,574,18,Woman,Right,,,,,,,,,,,,,,,,,574,18,Woman,Right,
5,3,0.15,180,0,180,0.8708501999999498,['y'],0.5671492999999828,1.492,,,,,,,,574,18,Woman,Right,,,,,,,,,,,,,,,,,574,18,Woman,Right,
5,3,0.4,180,0,0,0.4061586999996507,['y'],0.2896362000001318,1.492,,,,,,,,574,18,Woman,Right,,,,,,,,,,,,,,,,,574,18,Woman,Right,
5,3,1.0,0,180,180,0.41679089999979624,['y'],0.2676516999999876,1.492,,,,,,,,574,18,Woman,Right,,,,,,,,,,,,,,,,,574,18,Woman,Right,
5,3,0.4,0,-,0,0.27955240000028425,['y'],0.30582979999962845,1.492,7,6,10,7,0.7,0.8571428571428571,,574,18,Woman,Right,,,,,,,,,,,,,,,,,574,18,Woman,Right,
,,,,,,,,,,,,,,,,6.299999768089037e-06,574,18,Woman,Right,,,,,,,,,,,,,,,,,574,18,Woman,Right,
,,,,,,,,,,,,,,,,,574,18,Woman,Right,0,64,0.15,1,0,-,0,0.552177199999278,['y'],1.9889628999999331,1.492,504.1669896000003,,,,,574,18,Woman,Right,
,,,,,,,,,,,,,,,,,574,18,Woman,Right,0,53,0.15,2,0,180,180,0.2888336000005438,['y'],0.5253069999998843,1.496,508.96762240000044,,,,,574,18,Woman,Right,
,,,,,,,,,,,,,,,,,574,18,Woman,Right,0,36,0.4,1,0,-,0,0.9181665000005523,['y'],0.5577922000002218,1.496,513.0835028000001,,,,,574,18,Woman,Right,
,,,,,,,,,,,,,,,,,574,18,Woman,Right,0,17,0.4,2,0,180,180,0.4745503000003737,['y'],1.0299938999996812,1.496,518.4333735999999,,,,,574,18,Woman,Right,
,,,,,,,,,,,,,,,,,574,18,Woman,Right,0,68,0.15,1,0,-,0,0.298828400000275,['y'],0.5428646999998819,1.496,521.7334560999998,,,,,574,18,Woman,Right,
,,,,,,,,,,,,,,,,,574,18,Woman,Right,0,75,0.15,2,180,0,180,0.7388733000007051,['y'],0.519470100000035,1.496,525.6167894999999,,,,,574,18,Woman,Right,
,,,,,,,,,,,,,,,,,574,18,Woman,Right,0,16,0.4,1,0,-,0,0.6407086999997773,['y'],0.40816590000031283,1.496,529.5337783000004,,,,,574,18,Woman,Right,
,,,,,,,,,,,,,,,,,574,18,Woman,Right,0,34,0.4,1,180,-,180,0.33331579999958194,['y'],1.2238185000005615,1.496,533.4001275,,,,,574,18,Woman,Right,
,,,,,,,,,,,,,,,,,574,18,Woman,Right,0,4,1,1,0,-,0,0.5293899999996938,['y'],0.5288987999992969,1.496,537.1502336000003,,,,,574,18,Woman,Right,
,,,,,,,,,,,,,,,,,574,18,Woman,Right,0,40,0.4,1,0,-,180,0.4669013000002451,['y'],0.477267700000084,1.496,540.6834538000003,,,,,574,18,Woman,Right,
,,,,,,,,,,,,,,,,,574,18,Woman,Right,0,31,0.4,2,180,0,0,0.2808138999998846,['n'],0.9296840999995766,1.496,545.1838121000001,,,,,574,18,Woman,Right,
,,,,,,,,,,,,,,,,,574,18,Woman,Right,0,28,0.4,1,0,-,180,0.23059220000050118,['y'],0.6259196000000884,1.496,548.4004083,,,,,574,18,Woman,Right,
,,,,,,,,,,,,,,,,,574,18,Woman,Right,0,7,1,2,180,0,0,0.4921313000004375,['y'],0.4028586999993422,1.496,552.1836131,,,,,574,18,Woman,Right,
,,,,,,,,,,,,,,,,,574,18,Woman,Right,0,0,1,1,0,-,180,0.32005300000037096,['y'],0.3390412999997352,1.496,555.2170343999996,,,,,574,18,Woman,Right,
,,,,,,,,,,,,,,,,,574,18,Woman,Right,0,6,1,1,180,-,180,0.352583500000037,['y'],0.4196569999994608,1.496,558.5836042999999,,,,,574,18,Woman,Right,
,,,,,,,,,,,,,,,,,574,18,Woman,Right,0,51,0.15,2,180,0,0,0.8852507999999943,['y'],0.4439492000001337,1.496,562.3168218999999,,,,,574,18,Woman,Right,
,,,,,,,,,,,,,,,,,574,18,Woman,Right,0,33,0.4,2,0,180,180,0.42331560000002355,['y'],0.5163396999996621,1.496,565.7169110000004,,,,,574,18,Woman,Right,
,,,,,,,,,,,,,,,,,574,18,Woman,Right,0,57,0.15,2,0,180,180,0.3587899000003745,['n'],0.4849229999999807,1.496,569.1837920999997,,,,,574,18,Woman,Right,
,,,,,,,,,,,,,,,,,574,18,Woman,Right,0,47,0.15,2,180,0,180,0.016846300000906922,['n'],1.9891695999995136,1.496,573.8835699000001,,,,,574,18,Woman,Right,
,,,,,,,,,,,,,,,,,574,18,Woman,Right,0,30,0.4,1,180,-,0,0.44273450000036974,['n'],0.7341381999995065,1.496,577.5002838999999,,,,,574,18,Woman,Right,
,,,,,,,,,,,,,,,,,574,18,Woman,Right,0,41,0.4,2,0,180,180,0.7671995999999126,['n'],0.8779887999999119,1.496,581.8836477000004,,,,,574,18,Woman,Right,
,,,,,,,,,,,,,,,,,574,18,Woman,Right,0,3,1,2,180,0,0,0.9572239999997691,['y'],0.5107816999998249,1.496,585.7005617000004,,,,,574,18,Woman,Right,
,,,,,,,,,,,,,,,,,574,18,Woman,Right,0,73,0.15,2,0,180,180,0.8907349000000977,['y'],0.599435000000085,1.496,590.5337393,,,,,574,18,Woman,Right,
,,,,,,,,,,,,,,,,,574,18,Woman,Right,0,22,0.4,1,180,-,180,1.1244003999991037,['y'],0.45544299999983195,1.496,594.6335606000002,,,,,574,18,Woman,Right,
,,,,,,,,,,,,,,,,,574,18,Woman,Right,0,66,0.15,1,180,-,0,0.6251894999995784,['y'],0.40037459999985003,1.496,598.1336440000005,,,,,574,18,Woman,Right,
,,,,,,,,,,,,,,,,,574,18,Woman,Right,0,76,0.15,1,0,-,180,0.5832127999992736,['y'],0.3754564000000755,1.496,601.5669764000004,,,,,574,18,Woman,Right,
,,,,,,,,,,,,,,,,,574,18,Woman,Right,0,63,0.15,2,180,0,0,0.5565735999998651,['y'],0.38582990000031714,1.496,604.9835850999998,,,,,574,18,Woman,Right,
,,,,,,,,,,,,,,,,,574,18,Woman,Right,0,67,0.15,2,180,0,180,0.4105896000000939,['y'],0.6816308999996181,1.496,608.6342941000003,,,,,574,18,Woman,Right,
,,,,,,,,,,,,,,,,,574,18,Woman,Right,0,77,0.15,2,0,180,180,0.35186049999992974,['y'],0.38623850000021775,1.496,611.8672526,,,,,574,18,Woman,Right,
,,,,,,,,,,,,,,,,,574,18,Woman,Right,0,21,0.4,2,0,180,180,0.5025564999996277,['y'],0.43486529999972845,1.496,615.4170691999998,,,,,574,18,Woman,Right,
,,,,,,,,,,,,,,,,,574,18,Woman,Right,0,39,0.4,2,180,0,0,0.48061500000039814,['n'],0.4911394000000655,1.496,619.0170575000002,,,,,574,18,Woman,Right,
,,,,,,,,,,,,,,,,,574,18,Woman,Right,0,62,0.15,1,180,-,0,0.38712870000017574,['n'],0.4435076999998273,1.496,622.4345928000002,,,,,574,18,Woman,Right,
,,,,,,,,,,,,,,,,,574,18,Woman,Right,0,8,0.4,1,0,-,0,0.34998410000025615,['n'],0.41210509999928036,1.496,625.7504200000003,,,,,574,18,Woman,Right,
,,,,,,,,,,,,,,,,,574,18,Woman,Right,0,12,0.4,1,0,-,0,0.4605652000000191,['n'],1.0285717000006116,1.496,629.9504635000003,,,,,574,18,Woman,Right,
,,,,,,,,,,,,,,,,,574,18,Woman,Right,0,69,0.15,2,0,180,0,0.5432620999999926,['y'],0.6931619999995746,1.496,633.7004740000002,,,,,574,18,Woman,Right,
,,,,,,,,,,,,,,,,,574,18,Woman,Right,0,44,0.15,1,0,-,180,0.41991130000042176,['y'],0.36530259999926784,1.51,636.9506037000001,,,,,574,18,Woman,Right,
,,,,,,,,,,,,,,,,,574,18,Woman,Right,0,70,0.15,1,180,-,180,0.3264912999993612,['y'],0.31798650000018824,1.51,639.9504340000003,,,,,574,18,Woman,Right,
,,,,,,,,,,,,,,,,,574,18,Woman,Right,0,9,0.4,2,0,180,180,0.4220445999999356,['y'],0.3982744000004459,1.51,643.1504130000003,,,,,574,18,Woman,Right,
,,,,,,,,,,,,,,,,,574,18,Woman,Right,0,74,0.15,1,180,-,180,0.4296440000007351,['n'],0.8865977000004932,1.51,647.2840008000003,,,,,574,18,Woman,Right,
,,,,,,,,,,,,,,,,,574,18,Woman,Right,0,19,0.4,2,180,0,0,0.4143641000000571,['n'],0.9669917000001078,1.51,651.100751,,,,,574,18,Woman,Right,
,,,,,,,,,,,,,,,,,574,18,Woman,Right,0,52,0.15,1,0,-,180,0.7145244000003004,['y'],0.23193069999979343,1.51,654.3840833000004,,,,,574,18,Woman,Right,
,,,,,,,,,,,,,,,,,574,18,Woman,Right,0,43,0.4,2,180,0,0,0.46105420000003505,['y'],0.4239724999997634,1.51,657.8336963000002,,,,,574,18,Woman,Right,
,,,,,,,,,,,,,,,,,574,18,Woman,Right,0,35,0.4,2,180,0,0,0.43355630000041856,['y'],0.7335632999993322,1.51,661.5171674000003,,,,,574,18,Woman,Right,
,,,,,,,,,,,,,,,,,574,18,Woman,Right,0,71,0.15,2,180,0,180,0.6371903999997812,['y'],0.3609857999999804,1.51,666.5339164999996,,,,,574,18,Woman,Right,
,,,,,,,,,,,,,,,,,574,18,Woman,Right,0,37,0.4,2,0,180,180,0.47572630000013305,['n'],0.5295684000002439,1.51,670.8006314000004,,,,,574,18,Woman,Right,
,,,,,,,,,,,,,,,,,574,18,Woman,Right,0,60,0.15,1,0,-,180,0.26907110000047396,['y'],0.5383338000001459,1.51,674.3840477000003,,,,,574,18,Woman,Right,
,,,,,,,,,,,,,,,,,574,18,Woman,Right,0,58,0.15,1,180,-,0,1.178910700000415,['y'],0.49043190000065806,1.51,678.5004672000005,,,,,574,18,Woman,Right,
,,,,,,,,,,,,,,,,,574,18,Woman,Right,0,49,0.15,2,0,180,0,3.9198037999994995,['y'],1.1552277000000686,1.518,686.6171959000003,,,,,574,18,Woman,Right,
,,,,,,,,,,,,,,,,,574,18,Woman,Right,0,38,0.4,1,180,-,0,0.5144315000006827,['y'],2.2201359000000593,1.522,691.9505781999997,,,,,574,18,Woman,Right,
,,,,,,,,,,,,,,,,,574,18,Woman,Right,0,23,0.4,2,180,0,0,0.4657615000005535,['y'],0.5242433000003075,1.528,695.6504851,,,,,574,18,Woman,Right,
,,,,,,,,,,,,,,,,,574,18,Woman,Right,0,2,1,1,180,-,180,1.0427037999997992,['y'],0.46095380000042496,1.396,702.2672217999998,,,,,574,18,Woman,Right,
,,,,,,,,,,,,,,,,,574,18,Woman,Right,0,10,0.4,1,180,-,180,0.7634396000003107,['n'],0.5255305999999109,1.47,706.2171863000003,,,,,574,18,Woman,Right,
,,,,,,,,,,,,,,,,,574,18,Woman,Right,0,54,0.15,1,180,-,180,0.8944752999996126,['y'],1.4548045000001366,1.47,711.5341231000002,,,,,574,18,Woman,Right,
,,,,,,,,,,,,,,,,,574,18,Woman,Right,0,45,0.15,2,0,180,0,0.633637699999781,['n'],0.8471175999993648,1.47,715.5004785000001,,,,,574,18,Woman,Right,
,,,,,,,,,,,,,,,,,574,18,Woman,Right,0,78,0.15,1,180,-,0,1.2589766999999483,['y'],0.42358880000028876,1.47,720.1172225999999,,,,,574,18,Woman,Right,
,,,,,,,,,,,,,,,,,574,18,Woman,Right,0,65,0.15,2,0,180,180,0.9940817000006064,['y'],1.3598457999996754,1.518,725.0509763,,,,,574,18,Woman,Right,
,,,,,,,,,,,,,,,,,574,18,Woman,Right,0,13,0.4,2,0,180,180,0.5609015999998519,['y'],1.2328543000003265,1.518,730.0508110999999,,,,,574,18,Woman,Right,
,,,,,,,,,,,,,,,,,574,18,Woman,Right,0,55,0.15,2,180,0,0,1.1589418000003207,['n'],1.0498607999998057,1.518,735.0005993000004,,,,,574,18,Woman,Right,
,,,,,,,,,,,,,,,,,574,18,Woman,Right,0,50,0.15,1,180,-,0,0.5483807000000525,['n'],1.2179196999995838,1.518,739.7840280999999,,,,,574,18,Woman,Right,
,,,,,,,,,,,,,,,,,574,18,Woman,Right,0,14,0.4,1,180,-,180,0.9430952000002435,['n'],1.1866740000004938,1.518,744.4184329999998,,,,,574,18,Woman,Right,
,,,,,,,,,,,,,,,,,574,18,Woman,Right,0,1,1,2,0,180,180,0.5522381000000678,['y'],0.5304548000003706,1.518,748.0506250999997,,,,,574,18,Woman,Right,
,,,,,,,,,,,,,,,,,574,18,Woman,Right,0,46,0.15,1,180,-,0,0.944966299999578,['n'],0.6996439000004102,1.518,752.2173375000002,,,,,574,18,Woman,Right,
,,,,,,,,,,,,,,,,,574,18,Woman,Right,0,24,0.4,1,0,-,180,0.49901450000015757,['y'],1.2281307000002926,1.518,756.4173183000003,,,,,574,18,Woman,Right,
,,,,,,,,,,,,,,,,,574,18,Woman,Right,0,48,0.15,1,0,-,0,0.7163683999997374,['n'],0.5489480999995067,1.518,760.3006520999998,,,,,574,18,Woman,Right,
,,,,,,,,,,,,,,,,,574,18,Woman,Right,0,27,0.4,2,180,0,180,0.3736247999995612,['n'],0.9811395999995511,1.518,764.2507556999999,,,,,574,18,Woman,Right,
,,,,,,,,,,,,,,,,,574,18,Woman,Right,0,15,0.4,2,180,0,0,0.4727618999995684,['y'],2.197900899999695,1.518,769.4173123,,,,,574,18,Woman,Right,
,,,,,,,,,,,,,,,,,574,18,Woman,Right,0,42,0.4,1,180,-,180,0.31675189999987197,['y'],1.506054899999981,1.518,773.7507163999999,,,,,574,18,Woman,Right,
,,,,,,,,,,,,,,,,,574,18,Woman,Right,0,56,0.15,1,0,-,180,0.5101051000001462,['y'],0.31879939999998896,1.518,777.0175852000002,,,,,574,18,Woman,Right,
,,,,,,,,,,,,,,,,,574,18,Woman,Right,0,26,0.4,1,180,-,0,0.4833374999998341,['y'],0.33462390000022424,1.518,780.2507518000002,,,,,574,18,Woman,Right,
,,,,,,,,,,,,,,,,,574,18,Woman,Right,0,59,0.15,2,180,0,180,0.3214699999998629,['y'],0.7514898999997968,1.518,783.7510541000001,,,,,574,18,Woman,Right,
,,,,,,,,,,,,,,,,,574,18,Woman,Right,0,61,0.15,2,0,180,0,0.26233610000053886,['y'],0.8953284999997777,1.516,787.3509512,,,,,574,18,Woman,Right,
,,,,,,,,,,,,,,,,,574,18,Woman,Right,0,32,0.4,1,0,-,0,0.5640123000002859,['y'],0.8084042000000409,1.516,791.1842507000001,,,,,574,18,Woman,Right,
,,,,,,,,,,,,,,,,,574,18,Woman,Right,0,18,0.4,1,180,-,180,0.9495305000000371,['y'],0.38495980000061536,1.516,794.9673935999999,,,,,574,18,Woman,Right,
,,,,,,,,,,,,,,,,,574,18,Woman,Right,0,25,0.4,2,0,180,180,0.49676480000016454,['n'],0.7778835999997682,1.516,799.5673530000004,,,,,574,18,Woman,Right,
,,,,,,,,,,,,,,,,,574,18,Woman,Right,0,79,0.15,2,180,0,180,0.40161519999946904,['y'],0.4100928000007116,1.516,802.6173237000003,,,,,574,18,Woman,Right,
,,,,,,,,,,,,,,,,,574,18,Woman,Right,0,29,0.4,2,0,180,0,1.2809736999997767,['y'],1.01842089999991,1.516,807.9674671000002,,,,,574,18,Woman,Right,
,,,,,,,,,,,,,,,,,574,18,Woman,Right,0,5,1,2,0,180,180,0.5463744999997289,['y'],1.8111813000004986,1.516,814.3341098999999,,,,,574,18,Woman,Right,
,,,,,,,,,,,,,,,,,574,18,Woman,Right,0,20,0.4,1,0,-,0,1.0075039000003017,['n'],0.8359023000002708,1.516,818.5340802000001,,,,,574,18,Woman,Right,
,,,,,,,,,,,,,,,,,574,18,Woman,Right,0,72,0.15,1,0,-,0,0.7956102999996801,['n'],0.8362851999991108,1.516,823.2007444000001,,,,,574,18,Woman,Right,
,,,,,,,,,,,,,,,,,574,18,Woman,Right,0,11,0.4,2,180,0,0,1.4220268999997643,['y'],1.0533464000000095,1.516,828.1510005999999,,,,,574,18,Woman,Right,
,,,,,,,,,,,,,,,,,574,18,Woman,Right,1,59,0.15,2,180,0,180,0.4315764000002673,['y'],0.25612790000013774,1.516,853.5514800999999,62.5,30.0,72.5,,574,18,Woman,Right,
,,,,,,,,,,,,,,,,,574,18,Woman,Right,1,19,0.4,2,180,0,0,0.3435278999995717,['y'],0.8490041000004567,1.502,857.9842338999997,,,,,574,18,Woman,Right,
,,,,,,,,,,,,,,,,,574,18,Woman,Right,1,76,0.15,1,0,-,0,0.3640491000005568,['y'],0.37726239999938116,1.502,861.2677698999996,,,,,574,18,Woman,Right,
,,,,,,,,,,,,,,,,,574,18,Woman,Right,1,20,0.4,1,0,-,180,0.4344237000004796,['y'],0.36918640000021696,1.502,864.5175354000003,,,,,574,18,Woman,Right,
,,,,,,,,,,,,,,,,,574,18,Woman,Right,1,64,0.15,1,0,-,0,0.45500390000051993,['y'],0.39372720000028494,1.502,869.4010348000002,,,,,574,18,Woman,Right,
,,,,,,,,,,,,,,,,,574,18,Woman,Right,1,77,0.15,2,0,180,180,0.5247264999998151,['y'],0.4986966999995275,1.502,873.1175693000005,,,,,574,18,Woman,Right,
,,,,,,,,,,,,,,,,,574,18,Woman,Right,1,54,0.15,1,180,-,180,0.37478310000005877,['y'],0.39490349999960017,1.502,876.3679364999998,,,,,574,18,Woman,Right,
,,,,,,,,,,,,,,,,,574,18,Woman,Right,1,11,0.4,2,180,0,0,0.38867469999968307,['y'],0.6194031000004543,1.502,880.2174666999999,,,,,574,18,Woman,Right,
,,,,,,,,,,,,,,,,,574,18,Woman,Right,1,12,0.4,1,0,-,0,1.0755519000003915,['y'],0.7800035999998727,1.502,884.6344534999998,,,,,574,18,Woman,Right,
,,,,,,,,,,,,,,,,,574,18,Woman,Right,1,3,1,2,180,0,0,0.4612873000005493,['y'],0.42843269999957556,1.504,888.0342572,,,,,574,18,Woman,Right,
,,,,,,,,,,,,,,,,,574,18,Woman,Right,1,75,0.15,2,180,0,0,0.41654730000027484,['y'],0.3291054000001168,1.504,891.5012262999999,,,,,574,18,Woman,Right,
,,,,,,,,,,,,,,,,,574,18,Woman,Right,1,7,1,2,180,0,0,0.4852455000000191,['y'],0.5254111999993256,1.504,895.4342342,,,,,574,18,Woman,Right,
,,,,,,,,,,,,,,,,,574,18,Woman,Right,1,66,0.15,1,180,-,180,0.32934560000012425,['y'],0.46201320000000123,1.504,898.7509946999999,,,,,574,18,Woman,Right,
,,,,,,,,,,,,,,,,,574,18,Woman,Right,1,53,0.15,2,0,180,180,0.43328639999981533,['y'],0.3074421000001166,1.504,901.8676261,,,,,574,18,Woman,Right,
,,,,,,,,,,,,,,,,,574,18,Woman,Right,1,15,0.4,2,180,0,0,0.4866535000001022,['y'],0.3426318000001629,1.504,905.2675685000004,,,,,574,18,Woman,Right,
,,,,,,,,,,,,,,,,,574,18,Woman,Right,1,73,0.15,2,0,180,0,0.47398940000039147,['y'],0.46301669999957085,1.504,908.5844917000004,,,,,574,18,Woman,Right,
,,,,,,,,,,,,,,,,,574,18,Woman,Right,1,25,0.4,2,0,180,180,0.8128442000006544,['y'],0.38342610000017885,1.504,912.1342710999998,,,,,574,18,Woman,Right,
,,,,,,,,,,,,,,,,,574,18,Woman,Right,1,37,0.4,2,0,180,0,0.43172320000030595,['y'],0.8799243000003116,1.504,915.8678643000003,,,,,574,18,Woman,Right,
,,,,,,,,,,,,,,,,,574,18,Woman,Right,1,62,0.15,1,180,-,0,0.5853441999997813,['y'],0.28846550000071147,1.504,919.0843928000004,,,,,574,18,Woman,Right,
,,,,,,,,,,,,,,,,,574,18,Woman,Right,1,32,0.4,1,0,-,0,0.4498705999994854,['y'],0.33681519999936427,1.504,922.1509200999999,,,,,574,18,Woman,Right,
,,,,,,,,,,,,,,,,,574,18,Woman,Right,1,67,0.15,2,180,0,0,0.4219566000001578,['y'],0.777097700000013,1.504,926.2846317000003,,,,,574,18,Woman,Right,
,,,,,,,,,,,,,,,,,574,18,Woman,Right,1,14,0.4,1,180,-,180,0.3638801999995849,['y'],0.2815887999995539,1.504,929.2175934999996,,,,,574,18,Woman,Right,
,,,,,,,,,,,,,,,,,574,18,Woman,Right,1,29,0.4,2,0,180,0,0.3559866999994483,['y'],0.36201339999934135,1.504,932.2341844000002,,,,,574,18,Woman,Right,
,,,,,,,,,,,,,,,,,574,18,Woman,Right,1,46,0.15,1,180,-,0,0.6690972999995211,['y'],0.29842439999993076,1.504,935.4010009000003,,,,,574,18,Woman,Right,
,,,,,,,,,,,,,,,,,574,18,Woman,Right,1,18,0.4,1,180,-,180,1.183359399999972,['y'],0.2746951999997691,1.504,939.2012470999998,,,,,574,18,Woman,Right,
,,,,,,,,,,,,,,,,,574,18,Woman,Right,1,17,0.4,2,0,180,180,0.4293352999993658,['y'],0.30745109999952547,1.504,942.9011736000002,,,,,574,18,Woman,Right,
,,,,,,,,,,,,,,,,,574,18,Woman,Right,1,39,0.4,2,180,0,0,0.769248399999924,['n'],0.6357485000007728,1.504,946.6843811999997,,,,,574,18,Woman,Right,
,,,,,,,,,,,,,,,,,574,18,Woman,Right,1,10,0.4,1,180,-,0,0.38818150000042806,['n'],0.6523573000004035,1.504,949.9677439999996,,,,,574,18,Woman,Right,
,,,,,,,,,,,,,,,,,574,18,Woman,Right,1,68,0.15,1,0,-,0,0.4668071999994936,['n'],0.40976770000088436,1.504,953.2346533999998,,,,,574,18,Woman,Right,
,,,,,,,,,,,,,,,,,574,18,Woman,Right,1,63,0.15,2,180,0,180,0.36193049999928917,['n'],0.40496489999986807,1.504,956.3512244000003,,,,,574,18,Woman,Right,
,,,,,,,,,,,,,,,,,574,18,Woman,Right,1,34,0.4,1,180,-,180,0.3360578000001624,['n'],0.44562969999969937,1.504,959.4844415999996,,,,,574,18,Woman,Right,
,,,,,,,,,,,,,,,,,574,18,Woman,Right,1,74,0.15,1,180,-,180,0.48332699999991746,['n'],0.52524910000011,1.504,962.8844417,,,,,574,18,Woman,Right,
,,,,,,,,,,,,,,,,,574,18,Woman,Right,1,13,0.4,2,0,180,180,0.6193328999997902,['n'],0.3505481000001964,1.504,966.2344086000003,,,,,574,18,Woman,Right,
,,,,,,,,,,,,,,,,,574,18,Woman,Right,1,57,0.15,2,0,180,180,0.6466998999994757,['n'],0.29483990000062477,1.504,971.5676735999996,,,,,574,18,Woman,Right,
,,,,,,,,,,,,,,,,,574,18,Woman,Right,1,2,1,1,180,-,180,0.5187334000002011,['n'],0.5346464000003834,1.514,976.2011114999996,,,,,574,18,Woman,Right,
,,,,,,,,,,,,,,,,,574,18,Woman,Right,1,51,0.15,2,180,0,180,0.5277380000006815,['n'],0.943776600000092,1.478,980.4511719000002,,,,,574,18,Woman,Right,
,,,,,,,,,,,,,,,,,574,18,Woman,Right,1,33,0.4,2,0,180,0,2.1062111000001096,['n'],0.36020279999956983,1.772,985.8011112000004,,,,,574,18,Woman,Right,
,,,,,,,,,,,,,,,,,574,18,Woman,Right,1,24,0.4,1,0,-,180,0.9835607000004529,['n'],0.7288619999999355,1.736,990.7010694,,,,,574,18,Woman,Right,
,,,,,,,,,,,,,,,,,574,18,Woman,Right,1,26,0.4,1,180,-,180,1.0452314999993177,['y'],0.38558390000071086,1.736,994.7522152000001,,,,,574,18,Woman,Right,
,,,,,,,,,,,,,,,,,574,18,Woman,Right,1,8,0.4,1,0,-,0,0.3828442999993058,['y'],0.29806340000050113,1.736,997.7189380999998,,,,,574,18,Woman,Right,
,,,,,,,,,,,,,,,,,574,18,Woman,Right,1,0,1,1,0,-,0,0.6501704000002064,['y'],0.40235070000017004,1.736,1001.0678524000004,,,,,574,18,Woman,Right,
,,,,,,,,,,,,,,,,,574,18,Woman,Right,1,69,0.15,2,0,180,0,0.4600221999999121,['y'],0.2908188000001246,1.736,1004.0511992000002,,,,,574,18,Woman,Right,
,,,,,,,,,,,,,,,,,574,18,Woman,Right,1,47,0.15,2,180,0,0,0.33993500000087806,['y'],0.3237747000002855,1.736,1006.9679882999999,,,,,574,18,Woman,Right,
,,,,,,,,,,,,,,,,,574,18,Woman,Right,1,71,0.15,2,180,0,0,0.12510670000028767,['y'],0.388141600000381,1.736,1009.7849262999998,,,,,574,18,Woman,Right,
,,,,,,,,,,,,,,,,,574,18,Woman,Right,1,79,0.15,2,180,0,0,0.4834003000005396,['y'],0.32337730000017473,1.736,1012.9345719000003,,,,,574,18,Woman,Right,
,,,,,,,,,,,,,,,,,574,18,Woman,Right,1,30,0.4,1,180,-,180,0.5498717000000397,['y'],0.3246703000004345,1.736,1016.0845906000004,,,,,574,18,Woman,Right,
,,,,,,,,,,,,,,,,,574,18,Woman,Right,1,35,0.4,2,180,0,0,0.6098956999994698,['y'],0.40484830000059446,1.736,1019.4011388999998,,,,,574,18,Woman,Right,
,,,,,,,,,,,,,,,,,574,18,Woman,Right,1,56,0.15,1,0,-,180,0.6835596999999325,['y'],0.27179960000012215,1.736,1023.1512371999997,,,,,574,18,Woman,Right,
,,,,,,,,,,,,,,,,,574,18,Woman,Right,1,36,0.4,1,0,-,180,0.391726099999687,['y'],0.7498230000001058,1.736,1026.5346719999998,,,,,574,18,Woman,Right,
,,,,,,,,,,,,,,,,,574,18,Woman,Right,1,78,0.15,1,180,-,0,0.40508279999994556,['y'],0.43005040000025474,1.736,1030.5178415,,,,,574,18,Woman,Right,
,,,,,,,,,,,,,,,,,574,18,Woman,Right,1,49,0.15,2,0,180,180,0.5423283999998603,['y'],0.6067285000008269,1.736,1034.4511647999998,,,,,574,18,Woman,Right,
,,,,,,,,,,,,,,,,,574,18,Woman,Right,1,4,1,1,0,-,0,0.33303560000058496,['y'],0.2871852999996918,1.736,1038.7178487,,,,,574,18,Woman,Right,
,,,,,,,,,,,,,,,,,574,18,Woman,Right,1,23,0.4,2,180,0,180,0.9192763999999443,['y'],0.2636654999996608,1.736,1043.3844436,,,,,574,18,Woman,Right,
,,,,,,,,,,,,,,,,,574,18,Woman,Right,1,58,0.15,1,180,-,0,0.705107699999644,['n'],0.49641929999961576,1.736,1047.0345662999998,,,,,574,18,Woman,Right,
,,,,,,,,,,,,,,,,,574,18,Woman,Right,1,5,1,2,0,180,180,0.7096463999996558,['y'],0.5687122999997882,1.736,1050.6181253000004,,,,,574,18,Woman,Right,
,,,,,,,,,,,,,,,,,574,18,Woman,Right,1,41,0.4,2,0,180,180,2.159823399999368,['y'],0.48931850000008126,1.588,1056.9847734000004,,,,,574,18,Woman,Right,
,,,,,,,,,,,,,,,,,574,18,Woman,Right,1,40,0.4,1,0,-,180,1.2050582000001668,['y'],0.36995200000001205,1.6099999999999999,1060.8178699999999,,,,,574,18,Woman,Right,
,,,,,,,,,,,,,,,,,574,18,Woman,Right,1,48,0.15,1,0,-,0,0.31797109999934037,['y'],0.3063677000000098,1.5939999999999999,1063.5848982999996,,,,,574,18,Woman,Right,
,,,,,,,,,,,,,,,,,574,18,Woman,Right,1,45,0.15,2,0,180,180,0.40488920000007056,['y'],0.41034010000021226,1.634,1066.6345563000004,,,,,574,18,Woman,Right,
,,,,,,,,,,,,,,,,,574,18,Woman,Right,1,44,0.15,1,0,-,0,0.25176310000006197,['y'],0.2751354000001811,1.634,1069.3014338000003,,,,,574,18,Woman,Right,
,,,,,,,,,,,,,,,,,574,18,Woman,Right,1,22,0.4,1,180,-,180,0.4000761000006605,['y'],0.23667490000025282,1.634,1072.1014403999998,,,,,574,18,Woman,Right,
,,,,,,,,,,,,,,,,,574,18,Woman,Right,1,50,0.15,1,180,-,180,0.32423949999974866,['y'],0.23515150000002905,1.634,1074.8012609999996,,,,,574,18,Woman,Right,
,,,,,,,,,,,,,,,,,574,18,Woman,Right,1,55,0.15,2,180,0,0,0.18574379999972734,['y'],0.39587290000054054,1.634,1077.5179948000005,,,,,574,18,Woman,Right,
,,,,,,,,,,,,,,,,,574,18,Woman,Right,1,70,0.15,1,180,-,0,0.2824542999996993,['y'],0.21284360000026936,1.634,1080.1015648000002,,,,,574,18,Woman,Right,
,,,,,,,,,,,,,,,,,574,18,Woman,Right,1,6,1,1,180,-,180,0.7667626000002201,['y'],0.29047280000031606,1.634,1083.3348230000001,,,,,574,18,Woman,Right,
,,,,,,,,,,,,,,,,,574,18,Woman,Right,1,21,0.4,2,0,180,180,0.7391961000002993,['y'],0.26092119999975694,1.634,1087.0681260000001,,,,,574,18,Woman,Right,
,,,,,,,,,,,,,,,,,574,18,Woman,Right,1,16,0.4,1,0,-,180,0.5803805000005013,['n'],0.2774749000000156,1.634,1090.2012603000003,,,,,574,18,Woman,Right,
,,,,,,,,,,,,,,,,,574,18,Woman,Right,1,31,0.4,2,180,0,0,0.46985850000055507,['n'],0.33427519999986544,1.634,1093.2013463000003,,,,,574,18,Woman,Right,
,,,,,,,,,,,,,,,,,574,18,Woman,Right,1,1,1,2,0,180,180,0.39782800000011775,['n'],0.3343133000007583,1.634,1096.4012125999998,,,,,574,18,Woman,Right,
,,,,,,,,,,,,,,,,,574,18,Woman,Right,1,61,0.15,2,0,180,180,0.49647660000027827,['y'],0.29495649999989837,1.634,1100.3345534999999,,,,,574,18,Woman,Right,
,,,,,,,,,,,,,,,,,574,18,Woman,Right,1,38,0.4,1,180,-,180,0.29915320000054635,['y'],0.3195818000003783,1.634,1103.1681503,,,,,574,18,Woman,Right,
,,,,,,,,,,,,,,,,,574,18,Woman,Right,1,27,0.4,2,180,0,180,0.5682262999998784,['y'],0.2719131000003472,1.634,1106.2511750000003,,,,,574,18,Woman,Right,
,,,,,,,,,,,,,,,,,574,18,Woman,Right,1,72,0.15,1,0,-,0,0.38976850000017293,['y'],0.2558292999992773,1.634,1108.9680335000003,,,,,574,18,Woman,Right,
,,,,,,,,,,,,,,,,,574,18,Woman,Right,1,65,0.15,2,0,180,180,0.7205463999998756,['y'],0.2562369999996008,1.634,1112.1179392000004,,,,,574,18,Woman,Right,
,,,,,,,,,,,,,,,,,574,18,Woman,Right,1,9,0.4,2,0,180,0,0.532851799999662,['y'],0.2647022000001016,1.634,1114.9689392999999,,,,,574,18,Woman,Right,
,,,,,,,,,,,,,,,,,574,18,Woman,Right,1,52,0.15,1,0,-,0,0.40901899999971647,['y'],0.25701310000022204,1.634,1117.7182860000003,,,,,574,18,Woman,Right,
,,,,,,,,,,,,,,,,,574,18,Woman,Right,1,60,0.15,1,0,-,0,0.3318046999993385,['n'],0.30536339999980555,1.634,1120.6512280999996,,,,,574,18,Woman,Right,
,,,,,,,,,,,,,,,,,574,18,Woman,Right,1,28,0.4,1,0,-,0,0.14041809999980615,['y'],0.7138629000000947,1.634,1123.8012248000005,,,,,574,18,Woman,Right,
,,,,,,,,,,,,,,,,,574,18,Woman,Right,1,42,0.4,1,180,-,180,1.7204199000007065,['n'],0.3465251999996326,1.634,1129.0180073000001,,,,,574,18,Woman,Right,
,,,,,,,,,,,,,,,,,574,18,Woman,Right,1,43,0.4,2,180,0,0,0.3665749000001597,['y'],0.47652839999955177,1.634,1132.3181929000002,,,,,574,18,Woman,Right,
,,,,,,,,,,,,,,,,,574,18,Woman,Right,2,48,0.15,1,0,-,0,0.43345380000027944,['y'],0.2677064999998038,1.6179999999999999,1143.0680081,71.25,25.0,80.0,,574,18,Woman,Right,
,,,,,,,,,,,,,,,,,574,18,Woman,Right,2,35,0.4,2,180,0,0,0.8294800999992731,['y'],0.3166515000002619,1.6179999999999999,1146.3513842000002,,,,,574,18,Woman,Right,
,,,,,,,,,,,,,,,,,574,18,Woman,Right,2,17,0.4,2,0,180,180,0.6248266000002332,['y'],0.2449252999995224,1.6179999999999999,1149.5682530000004,,,,,574,18,Woman,Right,
,,,,,,,,,,,,,,,,,574,18,Woman,Right,2,1,1,2,0,180,180,0.39486070000020845,['y'],0.26182190000054106,1.6179999999999999,1152.2515354999996,,,,,574,18,Woman,Right,
,,,,,,,,,,,,,,,,,574,18,Woman,Right,2,65,0.15,2,0,180,180,0.3030250000001615,['y'],0.23770049999984622,1.6179999999999999,1154.8680433999998,,,,,574,18,Woman,Right,
,,,,,,,,,,,,,,,,,574,18,Woman,Right,2,5,1,2,0,180,180,0.3728822000002765,['y'],0.24618740000005346,1.6179999999999999,1157.6847938,,,,,574,18,Woman,Right,
,,,,,,,,,,,,,,,,,574,18,Woman,Right,2,78,0.15,1,180,-,0,1.934910399999353,['y'],0.3424889999996594,1.6179999999999999,1162.0012938,,,,,574,18,Woman,Right,
,,,,,,,,,,,,,,,,,574,18,Woman,Right,2,39,0.4,2,180,0,0,0.28087670000059006,['y'],0.22286040000017238,1.6179999999999999,1164.5516798999997,,,,,574,18,Woman,Right,
,,,,,,,,,,,,,,,,,574,18,Woman,Right,2,25,0.4,2,0,180,180,0.5883166000003257,['y'],0.15141100000073493,1.6179999999999999,1167.3179594000003,,,,,574,18,Woman,Right,
,,,,,,,,,,,,,,,,,574,18,Woman,Right,2,9,0.4,2,0,180,180,0.3502459999999701,['y'],0.2236046999996688,1.6179999999999999,1169.8680479000004,,,,,574,18,Woman,Right,
,,,,,,,,,,,,,,,,,574,18,Woman,Right,2,76,0.15,1,0,-,0,1.258375999999771,['n'],0.5199547000001985,1.6179999999999999,1174.7848212999997,,,,,574,18,Woman,Right,
,,,,,,,,,,,,,,,,,574,18,Woman,Right,2,24,0.4,1,0,-,0,0.6009555000000546,['n'],0.5124966999992466,1.6179999999999999,1178.3847532,,,,,574,18,Woman,Right,
,,,,,,,,,,,,,,,,,574,18,Woman,Right,2,12,0.4,1,0,-,0,0.11012090000076569,['n'],0.2811847000011767,1.6179999999999999,1180.9848737999991,,,,,574,18,Woman,Right,
,,,,,,,,,,,,,,,,,574,18,Woman,Right,2,43,0.4,2,180,0,0,0.2555181999996421,['n'],0.2814187000003585,1.6179999999999999,1183.6681698000002,,,,,574,18,Woman,Right,
,,,,,,,,,,,,,,,,,574,18,Woman,Right,2,18,0.4,1,180,-,180,0.34351109999988694,['n'],0.20938920000116923,1.6179999999999999,1187.0348058000009,,,,,574,18,Woman,Right,
,,,,,,,,,,,,,,,,,574,18,Woman,Right,2,30,0.4,1,180,-,0,0.4162814999999682,['n'],0.24248719999923196,1.6179999999999999,1189.8684034999997,,,,,574,18,Woman,Right,
,,,,,,,,,,,,,,,,,574,18,Woman,Right,2,79,0.15,2,180,0,0,0.29991080000036163,['y'],0.19315310000092722,1.6179999999999999,1192.5348359000009,,,,,574,18,Woman,Right,
,,,,,,,,,,,,,,,,,574,18,Woman,Right,2,77,0.15,2,0,180,0,0.13222210000094492,['n'],0.2108749999988504,1.6179999999999999,1194.8848552999998,,,,,574,18,Woman,Right,
,,,,,,,,,,,,,,,,,574,18,Woman,Right,2,28,0.4,1,0,-,0,0.26081669999985024,['y'],0.18727989999933925,1.6179999999999999,1197.4516537000009,,,,,574,18,Woman,Right,
,,,,,,,,,,,,,,,,,574,18,Woman,Right,2,10,0.4,1,180,-,180,0.3668247000005067,['y'],0.2111776000001555,1.6179999999999999,1200.1014416000007,,,,,574,18,Woman,Right,
,,,,,,,,,,,,,,,,,574,18,Woman,Right,2,75,0.15,2,180,0,180,0.5335535000012896,['n'],0.36116559999936726,1.6179999999999999,1203.9181603999996,,,,,574,18,Woman,Right,
,,,,,,,,,,,,,,,,,574,18,Woman,Right,2,51,0.15,2,180,0,0,0.3242229000006773,['n'],0.31643930000063847,1.6179999999999999,1207.1850175999998,,,,,574,18,Woman,Right,
,,,,,,,,,,,,,,,,,574,18,Woman,Right,2,22,0.4,1,180,-,180,0.5988944000000629,['y'],0.22924760000023525,1.6179999999999999,1210.1520917999997,,,,,574,18,Woman,Right,
,,,,,,,,,,,,,,,,,574,18,Woman,Right,2,60,0.15,1,0,-,0,0.13353129999995872,['y'],0.20478259999981674,1.6179999999999999,1212.4854375000004,,,,,574,18,Woman,Right,
,,,,,,,,,,,,,,,,,574,18,Woman,Right,2,52,0.15,1,0,-,0,0.10480350000034377,['y'],0.22932910000054108,1.6179999999999999,1214.7515713000003,,,,,574,18,Woman,Right,
,,,,,,,,,,,,,,,,,574,18,Woman,Right,2,70,0.15,1,180,-,180,0.1575405999992654,['y'],0.1812539000002289,1.6179999999999999,1217.1514180999993,,,,,574,18,Woman,Right,
,,,,,,,,,,,,,,,,,574,18,Woman,Right,2,69,0.15,2,0,180,0,0.31155669999861857,['y'],0.19790840000132448,1.6179999999999999,1217.1514180999993,,,,,574,18,Woman,Right,
,,,,,,,,,,,,,,,,,574,18,Woman,Right,2,64,0.15,1,0,-,0,0.2624138999999559,['n'],0.19768699999985984,1.6179999999999999,1222.7014671999996,,,,,574,18,Woman,Right,
,,,,,,,,,,,,,,,,,574,18,Woman,Right,2,44,0.15,1,0,-,0,1.4393980000004376,['y'],0.2945318000001862,1.6179999999999999,1226.8850620999992,,,,,574,18,Woman,Right,
,,,,,,,,,,,,,,,,,574,18,Woman,Right,2,74,0.15,1,180,-,180,0.47950420000051963,['y'],0.15891260000171314,1.6179999999999999,1229.6349748000002,,,,,574,18,Woman,Right,
,,,,,,,,,,,,,,,,,574,18,Woman,Right,2,29,0.4,2,0,180,0,0.10599029999866616,['y'],0.2472078999999212,1.6179999999999999,1232.0184390000004,,,,,574,18,Woman,Right,
,,,,,,,,,,,,,,,,,574,18,Woman,Right,2,45,0.15,2,0,180,180,0.5127750000010565,['y'],0.32779950000076497,1.6179999999999999,1236.401412100001,,,,,574,18,Woman,Right,
,,,,,,,,,,,,,,,,,574,18,Woman,Right,2,8,0.4,1,0,-,0,0.08661260000008042,['y'],0.6801063000002614,1.6179999999999999,1239.6186293,,,,,574,18,Woman,Right,
,,,,,,,,,,,,,,,,,574,18,Woman,Right,2,23,0.4,2,180,0,0,0.4541391000002477,['y'],0.19262270000035642,1.6179999999999999,1242.4015123,,,,,574,18,Woman,Right,
,,,,,,,,,,,,,,,,,574,18,Woman,Right,2,57,0.15,2,0,180,180,0.2980634000014106,['n'],0.19286770000144315,1.6179999999999999,1245.1517524,,,,,574,18,Woman,Right,
,,,,,,,,,,,,,,,,,574,18,Woman,Right,2,55,0.15,2,180,0,180,0.3886832999996841,['n'],0.18526539999948,1.6179999999999999,1248.2515656999994,,,,,574,18,Woman,Right,
,,,,,,,,,,,,,,,,,574,18,Woman,Right,2,40,0.4,1,0,-,180,0.3499485000011191,['y'],0.44120619999921473,1.6179999999999999,1251.268302900001,,,,,574,18,Woman,Right,
,,,,,,,,,,,,,,,,,574,18,Woman,Right,2,33,0.4,2,0,180,180,0.47679579999930866,['y'],0.14604959999996936,1.6179999999999999,1254.3015182000008,,,,,574,18,Woman,Right,
,,,,,,,,,,,,,,,,,574,18,Woman,Right,2,2,1,1,180,-,180,1.056865900000048,['y'],0.3227502000008826,1.6179999999999999,1257.9184078000008,,,,,574,18,Woman,Right,
,,,,,,,,,,,,,,,,,574,18,Woman,Right,2,11,0.4,2,180,0,0,0.45885959999941406,['y'],0.29910320000089996,1.6179999999999999,1260.9514869999994,,,,,574,18,Woman,Right,
,,,,,,,,,,,,,,,,,574,18,Woman,Right,2,21,0.4,2,0,180,0,0.6333241000011185,['y'],0.2839557999996032,1.6179999999999999,1264.0683104000009,,,,,574,18,Woman,Right,
,,,,,,,,,,,,,,,,,574,18,Woman,Right,2,56,0.15,1,0,-,180,0.5081491000000824,['y'],0.15572360000078334,1.6179999999999999,1266.8349802000002,,,,,574,18,Woman,Right,
,,,,,,,,,,,,,,,,,574,18,Woman,Right,2,49,0.15,2,0,180,180,0.6022064999997383,['y'],0.2359026999984053,1.6179999999999999,1269.8182484,,,,,574,18,Woman,Right,
,,,,,,,,,,,,,,,,,574,18,Woman,Right,2,54,0.15,1,180,-,0,0.22080819999973755,['n'],0.2041079999999056,1.6179999999999999,1272.5186917,,,,,574,18,Woman,Right,
,,,,,,,,,,,,,,,,,574,18,Woman,Right,2,68,0.15,1,0,-,0,0.28215350000027684,['n'],0.23642069999914384,1.6179999999999999,1275.3685954000002,,,,,574,18,Woman,Right,
,,,,,,,,,,,,,,,,,574,18,Woman,Right,2,15,0.4,2,180,0,0,0.36636250000083237,['n'],0.2125593000000663,1.6179999999999999,1278.1019325000007,,,,,574,18,Woman,Right,
,,,,,,,,,,,,,,,,,574,18,Woman,Right,2,63,0.15,2,180,0,0,0.43526849999943806,['n'],0.18135919999986072,1.6179999999999999,1280.8516212000004,,,,,574,18,Woman,Right,
,,,,,,,,,,,,,,,,,574,18,Woman,Right,2,62,0.15,1,180,-,180,0.3267814000009821,['n'],0.2536063000006834,1.6179999999999999,1283.8186066000007,,,,,574,18,Woman,Right,
,,,,,,,,,,,,,,,,,574,18,Woman,Right,2,58,0.15,1,180,-,180,0.21741049999945972,['n'],0.2224372000000585,1.6179999999999999,1286.3349253999995,,,,,574,18,Woman,Right,
,,,,,,,,,,,,,,,,,574,18,Woman,Right,2,14,0.4,1,180,-,180,0.5721369999992021,['n'],0.23076860000037414,1.6179999999999999,1289.2516423000006,,,,,574,18,Woman,Right,
,,,,,,,,,,,,,,,,,574,18,Woman,Right,2,26,0.4,1,180,-,180,0.3968706999985443,['n'],0.12719810000089637,1.6179999999999999,1291.9849210999992,,,,,574,18,Woman,Right,
,,,,,,,,,,,,,,,,,574,18,Woman,Right,2,0,1,1,0,-,0,0.3599855000011303,['n'],0.20719419999841193,1.6179999999999999,1294.6352173999994,,,,,574,18,Woman,Right,
,,,,,,,,,,,,,,,,,574,18,Woman,Right,2,73,0.15,2,0,180,0,0.6227360000011686,['n'],0.20752530000027036,1.6179999999999999,1297.5517307,,,,,574,18,Woman,Right,
,,,,,,,,,,,,,,,,,574,18,Woman,Right,2,16,0.4,1,0,-,180,0.3773378000005323,['n'],0.1520487999987381,1.6179999999999999,1300.2191555,,,,,574,18,Woman,Right,
,,,,,,,,,,,,,,,,,574,18,Woman,Right,2,20,0.4,1,0,-,0,0.13616710000133025,['n'],0.15196280000054685,1.6179999999999999,1302.6016709999994,,,,,574,18,Woman,Right,
,,,,,,,,,,,,,,,,,574,18,Woman,Right,2,36,0.4,1,0,-,180,0.21677379999891855,['n'],0.2082745999996405,1.6179999999999999,1305.2182555999998,,,,,574,18,Woman,Right,
,,,,,,,,,,,,,,,,,574,18,Woman,Right,2,32,0.4,1,0,-,180,0.39683490000061283,['n'],0.16055739999865182,1.6179999999999999,1308.0183879000006,,,,,574,18,Woman,Right,
,,,,,,,,,,,,,,,,,574,18,Woman,Right,2,67,0.15,2,180,0,180,0.07886510000025737,['n'],0.2968978999997489,1.6179999999999999,1310.4683338999994,,,,,574,18,Woman,Right,
,,,,,,,,,,,,,,,,,574,18,Woman,Right,2,61,0.15,2,0,180,180,0.28510459999961313,['n'],0.10523749999993015,1.6179999999999999,1313.0018924000005,,,,,574,18,Woman,Right,
,,,,,,,,,,,,,,,,,574,18,Woman,Right,2,50,0.15,1,180,-,180,0.4404342000016186,['n'],0.17762990000119316,1.6179999999999999,1315.6352336999998,,,,,574,18,Woman,Right,
,,,,,,,,,,,,,,,,,574,18,Woman,Right,2,53,0.15,2,0,180,0,0.39010359999883804,['n'],0.16206039999997301,1.6179999999999999,1318.3017136999997,,,,,574,18,Woman,Right,
,,,,,,,,,,,,,,,,,574,18,Woman,Right,2,41,0.4,2,0,180,180,0.6127673999999388,['y'],0.1784633000006579,1.6179999999999999,1321.1519321999995,,,,,574,18,Woman,Right,
,,,,,,,,,,,,,,,,,574,18,Woman,Right,2,38,0.4,1,180,-,180,0.5331784000009065,['n'],0.23733879999963392,1.6179999999999999,1324.0849883,,,,,574,18,Woman,Right,
,,,,,,,,,,,,,,,,,574,18,Woman,Right,2,6,1,1,180,-,180,0.4279707000005146,['n'],0.27503969999997935,1.6179999999999999,1326.9184020999992,,,,,574,18,Woman,Right,
,,,,,,,,,,,,,,,,,574,18,Woman,Right,2,3,1,2,180,0,180,0.8985279999997147,['y'],0.25941790000069886,1.6179999999999999,1331.2349881,,,,,574,18,Woman,Right,
,,,,,,,,,,,,,,,,,574,18,Woman,Right,2,4,1,1,0,-,0,0.3993372000004456,['y'],0.24432379999961995,1.6179999999999999,1333.8852156000003,,,,,574,18,Woman,Right,
,,,,,,,,,,,,,,,,,574,18,Woman,Right,2,13,0.4,2,0,180,180,0.3006991000002017,['y'],0.12417269999968994,1.6179999999999999,1336.3690543000002,,,,,574,18,Woman,Right,
,,,,,,,,,,,,,,,,,574,18,Woman,Right,2,27,0.4,2,180,0,0,0.4019571000008,['y'],0.26102569999966363,1.6179999999999999,1339.0184089999993,,,,,574,18,Woman,Right,
,,,,,,,,,,,,,,,,,574,18,Woman,Right,2,72,0.15,1,0,-,180,0.3105577999995148,['y'],0.25320079999983136,1.6179999999999999,1341.6193604999999,,,,,574,18,Woman,Right,
,,,,,,,,,,,,,,,,,574,18,Woman,Right,2,34,0.4,1,180,-,0,0.3946503000006487,['y'],0.18115910000051372,1.6179999999999999,1344.36841,,,,,574,18,Woman,Right,
,,,,,,,,,,,,,,,,,574,18,Woman,Right,2,7,1,2,180,0,0,0.44994210000004387,['y'],0.2535762000006798,1.6179999999999999,1347.0684190999991,,,,,574,18,Woman,Right,
,,,,,,,,,,,,,,,,,574,18,Woman,Right,2,42,0.4,1,180,-,180,0.3963074000002962,['y'],0.2694612000013876,1.6179999999999999,1349.7851282000001,,,,,574,18,Woman,Right,
,,,,,,,,,,,,,,,,,574,18,Woman,Right,2,37,0.4,2,0,180,180,0.7367037999993045,['y'],0.1900815999997576,1.6179999999999999,1352.7352975000003,,,,,574,18,Woman,Right,
,,,,,,,,,,,,,,,,,574,18,Woman,Right,2,59,0.15,2,180,0,0,0.48062469999968016,['n'],1.7907221000004938,1.6179999999999999,1357.6017302999999,,,,,574,18,Woman,Right,
,,,,,,,,,,,,,,,,,574,18,Woman,Right,2,19,0.4,2,180,0,0,0.7558630999992602,['y'],0.17588379999870085,1.6139999999999999,1360.6352149000004,,,,,574,18,Woman,Right,
,,,,,,,,,,,,,,,,,574,18,Woman,Right,2,46,0.15,1,180,-,0,0.21544700000049488,['y'],0.15154530000108934,1.6139999999999999,1363.0352391000006,,,,,574,18,Woman,Right,
,,,,,,,,,,,,,,,,,574,18,Woman,Right,2,47,0.15,2,180,0,0,0.26592969999910565,['y'],0.1197993999994651,1.6139999999999999,1363.0352391000006,,,,,574,18,Woman,Right,
,,,,,,,,,,,,,,,,,574,18,Woman,Right,2,31,0.4,2,180,0,0,0.3033566999984032,['y'],0.16039249999994354,1.6139999999999999,1367.7352720000008,,,,,574,18,Woman,Right,
,,,,,,,,,,,,,,,,,574,18,Woman,Right,2,71,0.15,2,180,0,0,0.1902246000008745,['y'],0.13592419999986305,1.6139999999999999,1370.0351387,,,,,574,18,Woman,Right,
,,,,,,,,,,,,,,,,,574,18,Woman,Right,2,66,0.15,1,180,-,0,1.4948821999987558,['y'],0.14553040000100737,1.6139999999999999,1370.0351387,,,,,574,18,Woman,Right,
,,,,,,,,,,,,,,,,,574,18,Woman,Right,3,19,0.4,2,180,0,0,0.409188700001323,['n'],1.5151214999987133,1.566,1391.0350635999994,72.5,50.0,67.5,,574,18,Woman,Right,
,,,,,,,,,,,,,,,,,574,18,Woman,Right,3,52,0.15,1,0,-,0,0.4898267000007763,['n'],0.4596044999998412,1.562,1393.9852746999995,,,,,574,18,Woman,Right,
,,,,,,,,,,,,,,,,,574,18,Woman,Right,3,57,0.15,2,0,180,180,0.5299053999988246,['n'],0.4915973999995913,1.562,1397.0685158000006,,,,,574,18,Woman,Right,
,,,,,,,,,,,,,,,,,574,18,Woman,Right,3,47,0.15,2,180,0,180,0.016934300001594238,['n'],0.13045550000060757,1.562,1399.3852386000008,,,,,574,18,Woman,Right,
,,,,,,,,,,,,,,,,,574,18,Woman,Right,3,48,0.15,1,0,-,0,0.5972655999994458,['n'],0.19631229999868083,1.558,1402.5518416000004,,,,,574,18,Woman,Right,
,,,,,,,,,,,,,,,,,574,18,Woman,Right,3,17,0.4,2,0,180,180,0.5198483000003762,['n'],0.19660520000070392,1.558,1405.4020783999995,,,,,574,18,Woman,Right,
,,,,,,,,,,,,,,,,,574,18,Woman,Right,3,25,0.4,2,0,180,180,0.575837300000785,['n'],0.2611008000003494,1.558,1408.3852785999998,,,,,574,18,Woman,Right,
,,,,,,,,,,,,,,,,,574,18,Woman,Right,3,32,0.4,1,0,-,0,0.8227034999999887,['n'],0.20536860000174784,1.558,1411.4519131999996,,,,,574,18,Woman,Right,
,,,,,,,,,,,,,,,,,574,18,Woman,Right,3,61,0.15,2,0,180,0,0.6113827999997739,['y'],0.2137561999988975,1.558,1416.0684919000005,,,,,574,18,Woman,Right,
,,,,,,,,,,,,,,,,,574,18,Woman,Right,3,42,0.4,1,180,-,0,0.5404005000000325,['y'],0.2064814999994269,1.558,1418.8697722999996,,,,,574,18,Woman,Right,
,,,,,,,,,,,,,,,,,574,18,Woman,Right,3,6,1,1,180,-,180,0.6205234999997629,['y'],0.1748741000010341,1.558,1421.7685756,,,,,574,18,Woman,Right,
,,,,,,,,,,,,,,,,,574,18,Woman,Right,3,72,0.15,1,0,-,180,0.30711580000024696,['y'],0.14305029999923136,1.558,1424.2352296,,,,,574,18,Woman,Right,
,,,,,,,,,,,,,,,,,574,18,Woman,Right,3,70,0.15,1,180,-,180,0.10728890000063984,['y'],0.23930169999948703,1.558,1426.6861627000008,,,,,574,18,Woman,Right,
,,,,,,,,,,,,,,,,,574,18,Woman,Right,3,12,0.4,1,0,-,180,0.4610962999995536,['y'],0.18406479999976,1.558,1429.3519482000002,,,,,574,18,Woman,Right,
,,,,,,,,,,,,,,,,,574,18,Woman,Right,3,55,0.15,2,180,0,0,0.23317440000028,['y'],0.15721909999956551,1.558,1431.8851884999995,,,,,574,18,Woman,Right,
,,,,,,,,,,,,,,,,,574,18,Woman,Right,3,64,0.15,1,0,-,0,0.29525250000006054,['y'],0.10429950000070676,1.558,1431.8851884999995,,,,,574,18,Woman,Right,
,,,,,,,,,,,,,,,,,574,18,Woman,Right,3,63,0.15,2,180,0,0,0.2998268999999709,['y'],0.2404843999993318,1.554,1436.7352548000008,,,,,574,18,Woman,Right,
,,,,,,,,,,,,,,,,,574,18,Woman,Right,3,4,1,1,0,-,0,0.7391647000004014,['n'],0.30514100000073086,1.554,1440.1187607000002,,,,,574,18,Woman,Right,
,,,,,,,,,,,,,,,,,574,18,Woman,Right,3,26,0.4,1,180,-,0,0.5002077000008285,['y'],0.1786104000002524,1.554,1442.7687405999995,,,,,574,18,Woman,Right,
,,,,,,,,,,,,,,,,,574,18,Woman,Right,3,51,0.15,2,180,0,0,0.4452705999992759,['y'],0.3936912000008306,1.554,1445.8352712999995,,,,,574,18,Woman,Right,
,,,,,,,,,,,,,,,,,574,18,Woman,Right,3,33,0.4,2,0,180,180,0.5713959000004252,['n'],0.16204280000056315,1.554,1448.7185982,,,,,574,18,Woman,Right,
,,,,,,,,,,,,,,,,,574,18,Woman,Right,3,59,0.15,2,180,0,0,0.5392011000003549,['n'],0.4025858999993943,1.554,1451.4685889999992,,,,,574,18,Woman,Right,
,,,,,,,,,,,,,,,,,574,18,Woman,Right,3,8,0.4,1,0,-,0,0.2528265000000829,['n'],0.2186120000005758,1.554,1454.3854235999997,,,,,574,18,Woman,Right,
,,,,,,,,,,,,,,,,,574,18,Woman,Right,3,78,0.15,1,180,-,0,0.5099293000002945,['n'],0.26650030000018887,1.554,1457.3186030000006,,,,,574,18,Woman,Right,
,,,,,,,,,,,,,,,,,574,18,Woman,Right,3,66,0.15,1,180,-,0,0.37152229999992414,['n'],0.20318270000097982,1.554,1459.9351976000007,,,,,574,18,Woman,Right,
,,,,,,,,,,,,,,,,,574,18,Woman,Right,3,58,0.15,1,180,-,0,0.23370059999979276,['n'],0.18011999999907857,1.554,1462.4529143999998,,,,,574,18,Woman,Right,
,,,,,,,,,,,,,,,,,574,18,Woman,Right,3,67,0.15,2,180,0,0,0.40644699999938894,['n'],0.228466100001242,1.554,1465.1186865000009,,,,,574,18,Woman,Right,
,,,,,,,,,,,,,,,,,574,18,Woman,Right,3,14,0.4,1,180,-,0,0.016818800000692136,['y'],0.13409300000057556,1.554,1467.35228,,,,,574,18,Woman,Right,
,,,,,,,,,,,,,,,,,574,18,Woman,Right,3,3,1,2,180,0,0,0.8357348000008642,['y'],0.19709250000050815,1.554,1470.3687977,,,,,574,18,Woman,Right,
,,,,,,,,,,,,,,,,,574,18,Woman,Right,3,1,1,2,0,180,180,0.6818836999991618,['y'],0.2770895000012388,1.554,1473.3519475999992,,,,,574,18,Woman,Right,
,,,,,,,,,,,,,,,,,574,18,Woman,Right,3,27,0.4,2,180,0,0,0.5057416999989073,['y'],0.15786340000158816,1.554,1473.3519475999992,,,,,574,18,Woman,Right,
,,,,,,,,,,,,,,,,,574,18,Woman,Right,3,0,1,1,0,-,0,0.7236366999986785,['n'],0.21338639999885345,1.554,1478.9688343999997,,,,,574,18,Woman,Right,
,,,,,,,,,,,,,,,,,574,18,Woman,Right,3,40,0.4,1,0,-,180,0.5131000000001222,['n'],0.15036570000120264,1.554,1481.7020700000003,,,,,574,18,Woman,Right,
,,,,,,,,,,,,,,,,,574,18,Woman,Right,3,45,0.15,2,0,180,0,0.8525532000003295,['n'],0.17460329999994428,1.554,1484.7188046,,,,,574,18,Woman,Right,
,,,,,,,,,,,,,,,,,574,18,Woman,Right,3,21,0.4,2,0,180,180,0.4271643000010954,['n'],0.1513593999989098,1.554,1484.7188046,,,,,574,18,Woman,Right,
,,,,,,,,,,,,,,,,,574,18,Woman,Right,3,18,0.4,1,180,-,0,0.3551035000000411,['n'],0.207324900000458,1.554,1490.3686208999998,,,,,574,18,Woman,Right,
,,,,,,,,,,,,,,,,,574,18,Woman,Right,3,41,0.4,2,0,180,180,0.6246449999998731,['y'],0.15964050000002317,1.554,1493.1853689000009,,,,,574,18,Woman,Right,
,,,,,,,,,,,,,,,,,574,18,Woman,Right,3,10,0.4,1,180,-,0,0.35866229999919597,['n'],0.4156890000012936,1.554,1496.0352759000007,,,,,574,18,Woman,Right,
,,,,,,,,,,,,,,,,,574,18,Woman,Right,3,31,0.4,2,180,0,0,0.3590894999997545,['y'],0.24837079999997513,1.554,1498.9523268999992,,,,,574,18,Woman,Right,
,,,,,,,,,,,,,,,,,574,18,Woman,Right,3,2,1,1,180,-,180,0.8261766000014177,['y'],0.14424830000098154,1.554,1502.2186379000004,,,,,574,18,Woman,Right,
,,,,,,,,,,,,,,,,,574,18,Woman,Right,3,71,0.15,2,180,0,0,0.5297286000004533,['n'],0.2653576000011526,1.554,1504.9353418,,,,,574,18,Woman,Right,
,,,,,,,,,,,,,,,,,574,18,Woman,Right,3,75,0.15,2,180,0,0,0.1397011000008206,['n'],0.21744459999899846,1.554,1507.4020603,,,,,574,18,Woman,Right,
,,,,,,,,,,,,,,,,,574,18,Woman,Right,3,49,0.15,2,0,180,0,0.36514249999891035,['n'],0.1455965000004653,1.554,1510.0194820000006,,,,,574,18,Woman,Right,
,,,,,,,,,,,,,,,,,574,18,Woman,Right,3,20,0.4,1,0,-,0,0.7356258999989223,['n'],0.5141925000007177,1.554,1513.4689023,,,,,574,18,Woman,Right,
,,,,,,,,,,,,,,,,,574,18,Woman,Right,3,30,0.4,1,180,-,180,0.5557838000004267,['n'],0.2504410999990796,1.554,1516.9852791000003,,,,,574,18,Woman,Right,
,,,,,,,,,,,,,,,,,574,18,Woman,Right,3,73,0.15,2,0,180,0,0.5624108000010892,['n'],0.17923089999931108,1.554,1519.6688084000007,,,,,574,18,Woman,Right,
,,,,,,,,,,,,,,,,,574,18,Woman,Right,3,35,0.4,2,180,0,0,0.3730999999988853,['n'],0.1314595999992889,1.548,1522.2188990000004,,,,,574,18,Woman,Right,
,,,,,,,,,,,,,,,,,574,18,Woman,Right,3,37,0.4,2,0,180,180,0.41823289999956614,['n'],0.16309200000068813,1.542,1524.7531848000008,,,,,574,18,Woman,Right,
,,,,,,,,,,,,,,,,,574,18,Woman,Right,3,15,0.4,2,180,0,0,0.28163189999941096,['n'],0.1881704000006721,1.542,1527.2020708999999,,,,,574,18,Woman,Right,
,,,,,,,,,,,,,,,,,574,18,Woman,Right,3,23,0.4,2,180,0,180,0.39175280000017665,['y'],0.3561580999994476,1.542,1529.9688292,,,,,574,18,Woman,Right,
,,,,,,,,,,,,,,,,,574,18,Woman,Right,3,76,0.15,1,0,-,180,0.6342898000002606,['n'],0.24457170000096085,1.542,1533.0523031999992,,,,,574,18,Woman,Right,
,,,,,,,,,,,,,,,,,574,18,Woman,Right,3,46,0.15,1,180,-,180,0.3638083000005281,['n'],0.19659820000015316,1.538,1535.7520030000005,,,,,574,18,Woman,Right,
,,,,,,,,,,,,,,,,,574,18,Woman,Right,3,62,0.15,1,180,-,180,0.3777437999997346,['n'],0.18921039999986533,1.538,1538.3521441000003,,,,,574,18,Woman,Right,
,,,,,,,,,,,,,,,,,574,18,Woman,Right,3,68,0.15,1,0,-,180,0.4069944000002579,['n'],0.15787149999960093,1.538,1541.0023076999996,,,,,574,18,Woman,Right,
,,,,,,,,,,,,,,,,,574,18,Woman,Right,3,54,0.15,1,180,-,0,1.2690186999989237,['y'],0.16596199999912642,1.538,1544.4856253000007,,,,,574,18,Woman,Right,
,,,,,,,,,,,,,,,,,574,18,Woman,Right,3,34,0.4,1,180,-,180,0.48950519999925746,['n'],0.4379184000008536,1.544,1547.5853754000009,,,,,574,18,Woman,Right,
,,,,,,,,,,,,,,,,,574,18,Woman,Right,3,79,0.15,2,180,0,180,0.16301920000114478,['n'],0.23073950000070909,1.544,1549.8687060000002,,,,,574,18,Woman,Right,
,,,,,,,,,,,,,,,,,574,18,Woman,Right,3,69,0.15,2,0,180,180,0.1633955999986938,['n'],0.214678800000911,1.55,1552.3187857000003,,,,,574,18,Woman,Right,
,,,,,,,,,,,,,,,,,574,18,Woman,Right,3,53,0.15,2,0,180,0,0.3391200999994908,['n'],0.08716669999921578,1.55,1554.9854014000002,,,,,574,18,Woman,Right,
,,,,,,,,,,,,,,,,,574,18,Woman,Right,3,13,0.4,2,0,180,180,0.3703789000010147,['n'],0.1600361000000703,1.55,1557.6854037000003,,,,,574,18,Woman,Right,
,,,,,,,,,,,,,,,,,574,18,Woman,Right,3,43,0.4,2,180,0,0,0.4751765000000887,['n'],0.18409229999997478,1.55,1560.3689138,,,,,574,18,Woman,Right,
,,,,,,,,,,,,,,,,,574,18,Woman,Right,3,39,0.4,2,180,0,0,0.46660960000008345,['y'],0.48474220000025525,1.55,1563.468887,,,,,574,18,Woman,Right,
,,,,,,,,,,,,,,,,,574,18,Woman,Right,3,65,0.15,2,0,180,0,0.3744189000008191,['y'],0.15308589999949618,1.55,1566.0023243999995,,,,,574,18,Woman,Right,
,,,,,,,,,,,,,,,,,574,18,Woman,Right,3,60,0.15,1,0,-,180,0.5181585999998788,['n'],0.24914239999998244,1.55,1568.8854428000004,,,,,574,18,Woman,Right,
,,,,,,,,,,,,,,,,,574,18,Woman,Right,3,56,0.15,1,0,-,180,0.546164499999577,['n'],0.16140420000010636,1.55,1571.6187478000002,,,,,574,18,Woman,Right,
,,,,,,,,,,,,,,,,,574,18,Woman,Right,3,5,1,2,0,180,180,0.6710081999990507,['y'],0.2017734000000928,1.55,1574.4858190000004,,,,,574,18,Woman,Right,
,,,,,,,,,,,,,,,,,574,18,Woman,Right,3,16,0.4,1,0,-,0,0.9418052000000898,['y'],0.1541348000009748,1.55,1577.5524261,,,,,574,18,Woman,Right,
,,,,,,,,,,,,,,,,,574,18,Woman,Right,3,29,0.4,2,0,180,0,1.514289099999587,['y'],0.11450909999985015,1.55,1581.202362000001,,,,,574,18,Woman,Right,
,,,,,,,,,,,,,,,,,574,18,Woman,Right,3,9,0.4,2,0,180,180,0.8183939000009559,['n'],3.2916631999996753,1.55,1587.5354780999996,,,,,574,18,Woman,Right,
,,,,,,,,,,,,,,,,,574,18,Woman,Right,3,11,0.4,2,180,0,0,0.46211179999954766,['y'],0.7157717000009143,1.55,1590.9521630999998,,,,,574,18,Woman,Right,
,,,,,,,,,,,,,,,,,574,18,Woman,Right,3,24,0.4,1,0,-,180,1.146965199999613,['y'],0.2203282999998919,1.55,1594.3687665000007,,,,,574,18,Woman,Right,
,,,,,,,,,,,,,,,,,574,18,Woman,Right,3,38,0.4,1,180,-,0,0.8846295999992435,['y'],0.12446389999968233,1.518,1597.8187432000004,,,,,574,18,Woman,Right,
,,,,,,,,,,,,,,,,,574,18,Woman,Right,3,44,0.15,1,0,-,180,0.3842564999995375,['y'],0.12431970000034198,1.524,1601.1690721999994,,,,,574,18,Woman,Right,
,,,,,,,,,,,,,,,,,574,18,Woman,Right,3,22,0.4,1,180,-,180,1.0298332999991544,['n'],0.18963190000067698,1.524,1604.6189095,,,,,574,18,Woman,Right,
,,,,,,,,,,,,,,,,,574,18,Woman,Right,3,36,0.4,1,0,-,0,0.24807200000032026,['y'],0.19829260000005888,1.524,1607.1355396000008,,,,,574,18,Woman,Right,
,,,,,,,,,,,,,,,,,574,18,Woman,Right,3,74,0.15,1,180,-,180,0.32016269999985525,['n'],0.166061300000365,1.524,1607.1355396000008,,,,,574,18,Woman,Right,
,,,,,,,,,,,,,,,,,574,18,Woman,Right,3,7,1,2,180,0,0,0.7765285999994376,['y'],0.20612999999866588,1.524,1612.5854133000003,,,,,574,18,Woman,Right,
,,,,,,,,,,,,,,,,,574,18,Woman,Right,3,28,0.4,1,0,-,180,0.6707733999992342,['n'],0.35091060000013385,1.524,1616.0855136,,,,,574,18,Woman,Right,
,,,,,,,,,,,,,,,,,574,18,Woman,Right,3,77,0.15,2,0,180,0,0.678826499999559,['y'],0.3673306999990018,1.524,1616.0855136,,,,,574,18,Woman,Right,
,,,,,,,,,,,,,,,,,574,18,Woman,Right,3,50,0.15,1,180,-,180,0.2975060000007943,['y'],0.16792130000067118,1.524,1621.9190938000002,,,,,574,18,Woman,Right,
,,,,,,,,,,,,,,,,,574,18,Woman,Right,4,26,0.4,1,180,-,0,0.8675733999989461,['y'],0.17785529999855498,1.478,1641.3522175000007,61.25,60.0,42.5,,574,18,Woman,Right,
,,,,,,,,,,,,,,,,,574,18,Woman,Right,4,65,0.15,2,0,180,0,0.3231869999999617,['y'],0.21810650000043097,1.476,1644.6522520999997,,,,,574,18,Woman,Right,
,,,,,,,,,,,,,,,,,574,18,Woman,Right,4,31,0.4,2,180,0,0,0.17209290000027977,['y'],0.17107270000087738,1.476,1644.6522520999997,,,,,574,18,Woman,Right,
,,,,,,,,,,,,,,,,,574,18,Woman,Right,4,70,0.15,1,180,-,0,0.17932789999940724,['y'],0.15530500000022585,1.5,1649.0038923999991,,,,,574,18,Woman,Right,
,,,,,,,,,,,,,,,,,574,18,Woman,Right,4,67,0.15,2,180,0,0,0.5065947999992204,['y'],0.28333290000045963,1.476,1651.9525762000003,,,,,574,18,Woman,Right,
,,,,,,,,,,,,,,,,,574,18,Woman,Right,4,66,0.15,1,180,-,180,0.01713699999891105,['y'],0.3197801000005711,1.476,1654.2524506,,,,,574,18,Woman,Right,
,,,,,,,,,,,,,,,,,574,18,Woman,Right,4,6,1,1,180,-,180,0.4181215999997221,['y'],0.18014799999946263,1.476,1656.9523469000005,,,,,574,18,Woman,Right,
,,,,,,,,,,,,,,,,,574,18,Woman,Right,4,8,0.4,1,0,-,0,0.07730820000142558,['y'],0.2039396999989549,1.476,1656.9523469000005,,,,,574,18,Woman,Right,
,,,,,,,,,,,,,,,,,574,18,Woman,Right,4,61,0.15,2,0,180,0,0.1634596000003512,['y'],0.19688549999955285,1.476,1662.0856642000008,,,,,574,18,Woman,Right,
,,,,,,,,,,,,,,,,,574,18,Woman,Right,4,41,0.4,2,0,180,180,0.513113400000293,['y'],0.1329373000007763,1.476,1664.818928400001,,,,,574,18,Woman,Right,
,,,,,,,,,,,,,,,,,574,18,Woman,Right,4,74,0.15,1,180,-,180,0.8028904000002512,['n'],0.7414253999995708,1.476,1668.8689048000006,,,,,574,18,Woman,Right,
,,,,,,,,,,,,,,,,,574,18,Woman,Right,4,78,0.15,1,180,-,0,0.26661849999982223,['n'],0.1399308000000019,1.476,1671.4692605999999,,,,,574,18,Woman,Right,
,,,,,,,,,,,,,,,,,574,18,Woman,Right,4,21,0.4,2,0,180,180,0.3848606999999902,['y'],0.17410539999946195,1.476,1671.4692605999999,,,,,574,18,Woman,Right,
,,,,,,,,,,,,,,,,,574,18,Woman,Right,4,37,0.4,2,0,180,0,0.03072020000035991,['y'],0.25482539999939036,1.5,1675.8714155000007,,,,,574,18,Woman,Right,
,,,,,,,,,,,,,,,,,574,18,Woman,Right,4,11,0.4,2,180,0,0,0.016681600000083563,['y'],0.11828409999907308,1.476,1678.1856030999998,,,,,574,18,Woman,Right,
,,,,,,,,,,,,,,,,,574,18,Woman,Right,4,18,0.4,1,180,-,0,0.6447217999993882,['n'],0.32701470000029076,1.476,1681.3689796000008,,,,,574,18,Woman,Right,
,,,,,,,,,,,,,,,,,574,18,Woman,Right,4,0,1,1,0,-,0,0.4834326999989571,['n'],0.22079649999977846,1.476,1684.1190128000007,,,,,574,18,Woman,Right,
,,,,,,,,,,,,,,,,,574,18,Woman,Right,4,25,0.4,2,0,180,0,0.01699480000024778,['n'],0.1316317999990133,1.476,1686.3192138999993,,,,,574,18,Woman,Right,
,,,,,,,,,,,,,,,,,574,18,Woman,Right,4,33,0.4,2,0,180,180,0.5273359000002529,['n'],0.19200650000129826,1.476,1689.8356531,,,,,574,18,Woman,Right,
,,,,,,,,,,,,,,,,,574,18,Woman,Right,4,63,0.15,2,180,0,180,0.3340964000017266,['n'],0.18449150000014924,1.476,1693.2690319000003,,,,,574,18,Woman,Right,
,,,,,,,,,,,,,,,,,574,18,Woman,Right,4,40,0.4,1,0,-,0,2.4345496999994793,['n'],0.17653810000047088,1.478,1697.9689692999991,,,,,574,18,Woman,Right,
,,,,,,,,,,,,,,,,,574,18,Woman,Right,4,9,0.4,2,0,180,180,0.42826619999868853,['n'],0.17781060000015714,1.478,1701.3191992000002,,,,,574,18,Woman,Right,
,,,,,,,,,,,,,,,,,574,18,Woman,Right,4,1,1,2,0,180,180,0.7461041000005935,['y'],0.20199680000041553,1.478,1704.4857371999997,,,,,574,18,Woman,Right,
,,,,,,,,,,,,,,,,,574,18,Woman,Right,4,79,0.15,2,180,0,0,1.1332794999998441,['n'],0.16230980000000272,1.478,1708.5526120000004,,,,,574,18,Woman,Right,
,,,,,,,,,,,,,,,,,574,18,Woman,Right,4,20,0.4,1,0,-,0,0.3152551000002859,['n'],0.1790925999994215,1.478,1711.0356492,,,,,574,18,Woman,Right,
,,,,,,,,,,,,,,,,,574,18,Woman,Right,4,49,0.15,2,0,180,0,0.17730259999916598,['n'],0.21908819999953266,1.478,1713.4024132000004,,,,,574,18,Woman,Right,
,,,,,,,,,,,,,,,,,574,18,Woman,Right,4,28,0.4,1,0,-,0,0.5146746000009443,['n'],0.13938599999892176,1.478,1713.4024132000004,,,,,574,18,Woman,Right,
,,,,,,,,,,,,,,,,,574,18,Woman,Right,4,27,0.4,2,180,0,0,0.36031759999968926,['n'],0.3158022000006895,1.492,1718.9862007000002,,,,,574,18,Woman,Right,
,,,,,,,,,,,,,,,,,574,18,Woman,Right,4,43,0.4,2,180,0,0,0.6907717000012781,['n'],0.2280296000008093,1.492,1721.8690725000006,,,,,574,18,Woman,Right,
,,,,,,,,,,,,,,,,,574,18,Woman,Right,4,2,1,1,180,-,180,0.30936279999878025,['n'],0.8765308999991248,1.492,1721.8690725000006,,,,,574,18,Woman,Right,
,,,,,,,,,,,,,,,,,574,18,Woman,Right,4,17,0.4,2,0,180,0,0.18667959999947925,['n'],0.33282209999924817,1.5,1727.2054651000008,,,,,574,18,Woman,Right,
,,,,,,,,,,,,,,,,,574,18,Woman,Right,4,69,0.15,2,0,180,0,0.5887290999999095,['n'],0.1650891999997839,1.5,1729.7899408999992,,,,,574,18,Woman,Right,
,,,,,,,,,,,,,,,,,574,18,Woman,Right,4,3,1,2,180,0,0,1.2461667000006855,['y'],0.1892014000004565,1.49,1733.2861774000003,,,,,574,18,Woman,Right,
,,,,,,,,,,,,,,,,,574,18,Woman,Right,4,36,0.4,1,0,-,0,0.34474299999965297,['y'],0.19782689999919967,1.49,1733.2861774000003,,,,,574,18,Woman,Right,
,,,,,,,,,,,,,,,,,574,18,Woman,Right,4,29,0.4,2,0,180,0,0.31939950000014505,['y'],0.1419980000009673,1.5,1737.8308079999997,,,,,574,18,Woman,Right,
,,,,,,,,,,,,,,,,,574,18,Woman,Right,4,13,0.4,2,0,180,180,0.6912003999987064,['y'],0.726560299999619,1.49,1741.9357346000006,,,,,574,18,Woman,Right,
,,,,,,,,,,,,,,,,,574,18,Woman,Right,4,32,0.4,1,0,-,0,0.1336871000003157,['y'],0.22192050000012387,1.49,1744.2693131000005,,,,,574,18,Woman,Right,
,,,,,,,,,,,,,,,,,574,18,Woman,Right,4,10,0.4,1,180,-,0,0.10469590000138851,['y'],0.16741319999891857,1.49,1744.2693131000005,,,,,574,18,Woman,Right,
,,,,,,,,,,,,,,,,,574,18,Woman,Right,4,71,0.15,2,180,0,0,0.23267139999916253,['y'],0.15134539999962726,1.5,1748.5200109999996,,,,,574,18,Woman,Right,
,,,,,,,,,,,,,,,,,574,18,Woman,Right,4,62,0.15,1,180,-,0,0.3892710000000079,['y'],0.2720348000002559,1.49,1751.3525039000006,,,,,574,18,Woman,Right,
,,,,,,,,,,,,,,,,,574,18,Woman,Right,4,34,0.4,1,180,-,180,0.6006269000008615,['y'],0.856245899998612,1.49,1755.9357943999994,,,,,574,18,Woman,Right,
,,,,,,,,,,,,,,,,,574,18,Woman,Right,4,42,0.4,1,180,-,0,0.3621627000011358,['y'],0.17642239999986487,1.484,1759.1357801000004,,,,,574,18,Woman,Right,
,,,,,,,,,,,,,,,,,574,18,Woman,Right,4,15,0.4,2,180,0,0,0.4927568000002793,['y'],0.22514570000021195,1.484,1762.5693500000007,,,,,574,18,Woman,Right,
,,,,,,,,,,,,,,,,,574,18,Woman,Right,4,64,0.15,1,0,-,0,0.45863939999981085,['y'],0.1373886000001221,1.484,1762.5693500000007,,,,,574,18,Woman,Right,
,,,,,,,,,,,,,,,,,574,18,Woman,Right,4,12,0.4,1,0,-,0,0.07310310000138998,['y'],0.2817786999985401,1.484,1767.1524667999993,,,,,574,18,Woman,Right,
,,,,,,,,,,,,,,,,,574,18,Woman,Right,4,30,0.4,1,180,-,180,0.7573165999983758,['y'],2.3224375000008877,1.484,1772.720069,,,,,574,18,Woman,Right,
,,,,,,,,,,,,,,,,,574,18,Woman,Right,4,24,0.4,1,0,-,0,0.3846997000000556,['y'],0.2988697000000684,1.484,1776.0691185000005,,,,,574,18,Woman,Right,
,,,,,,,,,,,,,,,,,574,18,Woman,Right,4,56,0.15,1,0,-,0,0.7065961000007519,['y'],0.6113074000004417,1.484,1779.7526270000008,,,,,574,18,Woman,Right,
,,,,,,,,,,,,,,,,,574,18,Woman,Right,4,16,0.4,1,0,-,0,3.9910763000007137,['y'],0.13161120000040682,1.488,1786.4027128000007,,,,,574,18,Woman,Right,
,,,,,,,,,,,,,,,,,574,18,Woman,Right,4,72,0.15,1,0,-,0,0.29591550000077405,['y'],0.17236750000120082,1.488,1789.502587,,,,,574,18,Woman,Right,
,,,,,,,,,,,,,,,,,574,18,Woman,Right,4,22,0.4,1,180,-,0,0.2999610999995639,['y'],0.2958969999999681,1.488,1792.1693246999994,,,,,574,18,Woman,Right,
,,,,,,,,,,,,,,,,,574,18,Woman,Right,4,51,0.15,2,180,0,0,0.3326329999999871,['y'],0.10929650000070978,1.488,1794.7857486999992,,,,,574,18,Woman,Right,
,,,,,,,,,,,,,,,,,574,18,Woman,Right,4,19,0.4,2,180,0,0,0.297896000000037,['y'],0.16561450000153854,1.488,1797.2536960999996,,,,,574,18,Woman,Right,
,,,,,,,,,,,,,,,,,574,18,Woman,Right,4,75,0.15,2,180,0,0,0.18323210000016843,['y'],0.1735921999988932,1.488,1797.2536960999996,,,,,574,18,Woman,Right,
,,,,,,,,,,,,,,,,,574,18,Woman,Right,4,76,0.15,1,0,-,0,0.5012872999996034,['y'],0.16588669999873673,1.488,1802.7357727000008,,,,,574,18,Woman,Right,
,,,,,,,,,,,,,,,,,574,18,Woman,Right,4,52,0.15,1,0,-,0,0.31659550000040326,['y'],0.29190639999978885,1.488,1805.4692731999994,,,,,574,18,Woman,Right,
,,,,,,,,,,,,,,,,,574,18,Woman,Right,4,77,0.15,2,0,180,0,0.16253110000070592,['y'],0.2306828000000678,1.488,1808.0031864999992,,,,,574,18,Woman,Right,
,,,,,,,,,,,,,,,,,574,18,Woman,Right,4,57,0.15,2,0,180,0,0.08184520000031625,['y'],0.2792137999986153,1.488,1808.0031864999992,,,,,574,18,Woman,Right,
,,,,,,,,,,,,,,,,,574,18,Woman,Right,4,50,0.15,1,180,-,0,0.18661419999989448,['y'],0.16739550000056624,1.5,1812.2400754,,,,,574,18,Woman,Right,
,,,,,,,,,,,,,,,,,574,18,Woman,Right,4,60,0.15,1,0,-,0,0.3138615999996546,['y'],0.18352869999944232,1.488,1815.4367859999993,,,,,574,18,Woman,Right,
,,,,,,,,,,,,,,,,,574,18,Woman,Right,4,55,0.15,2,180,0,0,0.05046610000135843,['y'],0.5444258999996237,1.488,1818.2025316000008,,,,,574,18,Woman,Right,
,,,,,,,,,,,,,,,,,574,18,Woman,Right,4,58,0.15,1,180,-,0,0.35087139999996,['y'],0.1759903000001941,1.488,1818.2025316000008,,,,,574,18,Woman,Right,
,,,,,,,,,,,,,,,,,574,18,Woman,Right,4,68,0.15,1,0,-,0,0.2198744000015722,['y'],0.14473279999947408,1.564,1823.2358763999991,,,,,574,18,Woman,Right,
,,,,,,,,,,,,,,,,,574,18,Woman,Right,4,59,0.15,2,180,0,0,0.4711261000011291,['y'],0.1449202999992849,1.564,1826.3193426999997,,,,,574,18,Woman,Right,
,,,,,,,,,,,,,,,,,574,18,Woman,Right,4,23,0.4,2,180,0,180,0.3396962999995594,['y'],0.11332640000000538,1.564,1829.3192420000005,,,,,574,18,Woman,Right,
,,,,,,,,,,,,,,,,,574,18,Woman,Right,4,39,0.4,2,180,0,0,0.30166800000006333,['y'],1.7779606000003696,1.542,1834.1859300999995,,,,,574,18,Woman,Right,
,,,,,,,,,,,,,,,,,574,18,Woman,Right,4,48,0.15,1,0,-,180,0.4835488999997324,['y'],0.5737666000004538,1.54,1837.6527914000008,,,,,574,18,Woman,Right,
,,,,,,,,,,,,,,,,,574,18,Woman,Right,4,5,1,2,0,180,180,0.4885959000002913,['y'],0.19470770000043558,1.54,1840.5527293000005,,,,,574,18,Woman,Right,
,,,,,,,,,,,,,,,,,574,18,Woman,Right,4,14,0.4,1,180,-,0,0.1778418000012607,['y'],0.16307580000102462,1.54,1843.0026745000005,,,,,574,18,Woman,Right,
,,,,,,,,,,,,,,,,,574,18,Woman,Right,4,45,0.15,2,0,180,0,0.29111139999986335,['y'],0.15613070000108564,1.54,1843.0026745000005,,,,,574,18,Woman,Right,
,,,,,,,,,,,,,,,,,574,18,Woman,Right,4,46,0.15,1,180,-,0,0.35318240000015066,['y'],0.13989460000084364,1.534,1848.1360462999992,,,,,574,18,Woman,Right,
,,,,,,,,,,,,,,,,,574,18,Woman,Right,4,7,1,2,180,0,0,0.36667560000023514,['y'],0.24496580000050017,1.534,1851.5360040999994,,,,,574,18,Woman,Right,
,,,,,,,,,,,,,,,,,574,18,Woman,Right,4,53,0.15,2,0,180,0,0.3304759999991802,['y'],0.1327555999996548,1.534,1851.5360040999994,,,,,574,18,Woman,Right,
,,,,,,,,,,,,,,,,,574,18,Woman,Right,4,54,0.15,1,180,-,180,0.30778339999960735,['y'],0.28470689999994647,1.514,1857.2693449999997,,,,,574,18,Woman,Right,
,,,,,,,,,,,,,,,,,574,18,Woman,Right,4,44,0.15,1,0,-,0,0.1521018000003096,['y'],0.197184799999377,1.484,1860.2363249,,,,,574,18,Woman,Right,
,,,,,,,,,,,,,,,,,574,18,Woman,Right,4,38,0.4,1,180,-,180,0.2374113000005309,['y'],0.20563210000000254,1.488,1863.6026379000004,,,,,574,18,Woman,Right,
,,,,,,,,,,,,,,,,,574,18,Woman,Right,4,35,0.4,2,180,0,0,0.5521685000003345,['n'],0.14146249999976135,1.522,1866.5194932000004,,,,,574,18,Woman,Right,
,,,,,,,,,,,,,,,,,574,18,Woman,Right,4,4,1,1,0,-,0,0.3720995999992738,['n'],0.15000439999857917,1.53,1869.0859100999996,,,,,574,18,Woman,Right,
,,,,,,,,,,,,,,,,,574,18,Woman,Right,4,47,0.15,2,180,0,0,0.051119600000674836,['n'],0.25505489999886777,1.538,1872.0028257999993,,,,,574,18,Woman,Right,
,,,,,,,,,,,,,,,,,574,18,Woman,Right,4,73,0.15,2,0,180,180,0.6937792000007903,['n'],0.2471430000005057,1.538,1875.0026289000007,,,,,574,18,Woman,Right,
,,,,,,,,,,,,,,,,,574,18,Woman,Right,5,60,0.15,1,0,-,0,0.5311999999994441,['n'],1.0295209999985673,1.528,1926.5528712000005,66.25,22.5,67.5,,574,18,Woman,Right,
,,,,,,,,,,,,,,,,,574,18,Woman,Right,5,56,0.15,1,0,-,0,0.5310659000006126,['n'],0.6781870000013441,1.528,1930.0861249,,,,,574,18,Woman,Right,
,,,,,,,,,,,,,,,,,574,18,Woman,Right,5,22,0.4,1,180,-,180,0.561347000000751,['y'],0.398201699999845,1.528,1933.5365346999997,,,,,574,18,Woman,Right,
,,,,,,,,,,,,,,,,,574,18,Woman,Right,5,2,1,1,180,-,180,0.45298039999943285,['n'],0.6142620999999053,1.528,1937.5693141000002,,,,,574,18,Woman,Right,
,,,,,,,,,,,,,,,,,574,18,Woman,Right,5,40,0.4,1,0,-,0,0.3210684999994555,['n'],0.9277299000004859,1.528,1941.2534084000008,,,,,574,18,Woman,Right,
,,,,,,,,,,,,,,,,,574,18,Woman,Right,5,25,0.4,2,0,180,180,0.6189599999997881,['y'],1.2719375000015134,1.528,1945.4032032999994,,,,,574,18,Woman,Right,
,,,,,,,,,,,,,,,,,574,18,Woman,Right,5,13,0.4,2,0,180,180,0.4951158999992913,['y'],0.41643130000011297,1.528,1948.7861242999998,,,,,574,18,Woman,Right,
,,,,,,,,,,,,,,,,,574,18,Woman,Right,5,61,0.15,2,0,180,0,1.2115309000000707,['n'],0.688412999999855,1.528,1953.0361645999992,,,,,574,18,Woman,Right,
,,,,,,,,,,,,,,,,,574,18,Woman,Right,5,63,0.15,2,180,0,0,0.47642369999994116,['n'],0.6251630000006116,1.528,1956.3861265000005,,,,,574,18,Woman,Right,
,,,,,,,,,,,,,,,,,574,18,Woman,Right,5,73,0.15,2,0,180,0,0.6182981000001746,['n'],0.9457302999999229,1.528,1960.3364155999998,,,,,574,18,Woman,Right,
,,,,,,,,,,,,,,,,,574,18,Woman,Right,5,1,1,2,0,180,180,0.4985945999997057,['y'],0.3378973999988375,1.528,1963.6527703000002,,,,,574,18,Woman,Right,
,,,,,,,,,,,,,,,,,574,18,Woman,Right,5,7,1,2,180,0,0,0.4096422000002349,['y'],0.45852500000000873,1.528,1966.8363044000007,,,,,574,18,Woman,Right,
,,,,,,,,,,,,,,,,,574,18,Woman,Right,5,44,0.15,1,0,-,180,1.4166241000002628,['n'],0.9340935000000172,1.528,1971.5529883999998,,,,,574,18,Woman,Right,
,,,,,,,,,,,,,,,,,574,18,Woman,Right,5,76,0.15,1,0,-,180,0.7589642000002641,['n'],0.3397109999987151,1.528,1974.9029555000006,,,,,574,18,Woman,Right,
,,,,,,,,,,,,,,,,,574,18,Woman,Right,5,33,0.4,2,0,180,180,0.49373000000014144,['n'],0.8278336000003037,1.528,1978.5860832999997,,,,,574,18,Woman,Right,
,,,,,,,,,,,,,,,,,574,18,Woman,Right,5,78,0.15,1,180,-,180,0.3323820000005071,['n'],0.3722481000004336,1.528,1981.5530936999994,,,,,574,18,Woman,Right,
,,,,,,,,,,,,,,,,,574,18,Woman,Right,5,49,0.15,2,0,180,180,1.133370499999728,['y'],0.35572750000028464,1.528,1985.3528283000005,,,,,574,18,Woman,Right,
,,,,,,,,,,,,,,,,,574,18,Woman,Right,5,75,0.15,2,180,0,0,0.9049785999995947,['n'],0.29314829999930225,1.528,1988.6028861999994,,,,,574,18,Woman,Right,
,,,,,,,,,,,,,,,,,574,18,Woman,Right,5,24,0.4,1,0,-,0,0.46354559999963385,['n'],0.3578085999997711,1.528,1991.5696909000008,,,,,574,18,Woman,Right,
,,,,,,,,,,,,,,,,,574,18,Woman,Right,5,47,0.15,2,180,0,0,3.1255208000002312,['n'],0.7103807999992569,1.528,1997.7530070999992,,,,,574,18,Woman,Right,
,,,,,,,,,,,,,,,,,574,18,Woman,Right,5,70,0.15,1,180,-,180,1.1535792000013316,['n'],0.5667044999991049,1.528,2001.6698380000007,,,,,574,18,Woman,Right,
,,,,,,,,,,,,,,,,,574,18,Woman,Right,5,45,0.15,2,0,180,180,0.553506499998548,['n'],0.28718839999964985,1.528,2004.7201446999998,,,,,574,18,Woman,Right,
,,,,,,,,,,,,,,,,,574,18,Woman,Right,5,46,0.15,1,180,-,180,1.6823618999987957,['n'],0.3115660999992542,1.528,2008.8695431000006,,,,,574,18,Woman,Right,
,,,,,,,,,,,,,,,,,574,18,Woman,Right,5,57,0.15,2,0,180,180,0.26764650000041,['n'],0.2959747000004427,1.528,2011.7195602000002,,,,,574,18,Woman,Right,
,,,,,,,,,,,,,,,,,574,18,Woman,Right,5,68,0.15,1,0,-,0,0.9930511999991722,['n'],0.39253069999904255,1.528,2015.3530416000003,,,,,574,18,Woman,Right,
,,,,,,,,,,,,,,,,,574,18,Woman,Right,5,55,0.15,2,180,0,0,0.14227290000053472,['n'],0.33697489999940444,1.528,2017.9367155999998,,,,,574,18,Woman,Right,
,,,,,,,,,,,,,,,,,574,18,Woman,Right,5,71,0.15,2,180,0,0,0.4477600000009261,['n'],0.2410059000012552,1.528,2020.6861674000002,,,,,574,18,Woman,Right,
,,,,,,,,,,,,,,,,,574,18,Woman,Right,5,65,0.15,2,0,180,0,0.7383766999992076,['n'],0.23378890000094543,1.528,2023.7363942999991,,,,,574,18,Woman,Right,
,,,,,,,,,,,,,,,,,574,18,Woman,Right,5,19,0.4,2,180,0,0,1.3683184999990772,['y'],1.3541038000003027,1.528,2028.7529010999997,,,,,574,18,Woman,Right,
,,,,,,,,,,,,,,,,,574,18,Woman,Right,5,52,0.15,1,0,-,0,0.45007369999984803,['n'],0.3387187999996968,1.528,2031.7029773000004,,,,,574,18,Woman,Right,
,,,,,,,,,,,,,,,,,574,18,Woman,Right,5,0,1,1,0,-,0,0.636999399999695,['n'],0.9069275000001653,1.528,2035.3694958000005,,,,,574,18,Woman,Right,
,,,,,,,,,,,,,,,,,574,18,Woman,Right,5,30,0.4,1,180,-,180,0.6783700000014505,['y'],0.355267000000822,1.528,2038.8529657999998,,,,,574,18,Woman,Right,
,,,,,,,,,,,,,,,,,574,18,Woman,Right,5,72,0.15,1,0,-,0,0.8855552000004536,['n'],0.8518230999998195,1.528,2042.7195464000006,,,,,574,18,Woman,Right,
,,,,,,,,,,,,,,,,,574,18,Woman,Right,5,31,0.4,2,180,0,0,0.4171805999994831,['y'],0.5980567999995401,1.524,2046.1696822000004,,,,,574,18,Woman,Right,
,,,,,,,,,,,,,,,,,574,18,Woman,Right,5,12,0.4,1,0,-,0,0.4862100999998802,['n'],0.596859699999186,1.524,2049.6196804,,,,,574,18,Woman,Right,
,,,,,,,,,,,,,,,,,574,18,Woman,Right,5,3,1,2,180,0,0,0.6742476999988867,['y'],0.5731168000002071,1.524,2053.4542355999993,,,,,574,18,Woman,Right,
,,,,,,,,,,,,,,,,,574,18,Woman,Right,5,8,0.4,1,0,-,0,0.6742710999988049,['n'],1.0856771999988268,1.52,2057.4695972,,,,,574,18,Woman,Right,
,,,,,,,,,,,,,,,,,574,18,Woman,Right,5,34,0.4,1,180,-,180,0.6941762000005838,['n'],1.1022466000013083,1.52,2061.6364007,,,,,574,18,Woman,Right,
,,,,,,,,,,,,,,,,,574,18,Woman,Right,5,26,0.4,1,180,-,180,0.4984578000003239,['n'],0.6225402000000031,1.52,2065.0865423000005,,,,,574,18,Woman,Right,
,,,,,,,,,,,,,,,,,574,18,Woman,Right,5,69,0.15,2,0,180,180,0.3122251000004326,['n'],0.2709517999992386,1.52,2067.9199698,,,,,574,18,Woman,Right,
,,,,,,,,,,,,,,,,,574,18,Woman,Right,5,20,0.4,1,0,-,0,1.6248400999993464,['n'],0.3598409999995056,1.52,2072.1032016,,,,,574,18,Woman,Right,
,,,,,,,,,,,,,,,,,574,18,Woman,Right,5,11,0.4,2,180,0,0,1.0901699000005465,['n'],0.2482225000003382,1.52,2075.4363397999996,,,,,574,18,Woman,Right,
,,,,,,,,,,,,,,,,,574,18,Woman,Right,5,15,0.4,2,180,0,0,0.7082881999995152,['y'],0.3522825999989436,1.52,2078.6863557000006,,,,,574,18,Woman,Right,
,,,,,,,,,,,,,,,,,574,18,Woman,Right,5,43,0.4,2,180,0,0,0.5221671999988757,['y'],0.20854089999920689,1.52,2081.470645300001,,,,,574,18,Woman,Right,
,,,,,,,,,,,,,,,,,574,18,Woman,Right,5,77,0.15,2,0,180,0,0.6749784000003274,['n'],0.28888759999972535,1.52,2084.4707234999996,,,,,574,18,Woman,Right,
,,,,,,,,,,,,,,,,,574,18,Woman,Right,5,29,0.4,2,0,180,180,1.5396492999989277,['y'],0.32971530000031635,1.52,2088.4197603000002,,,,,574,18,Woman,Right,
,,,,,,,,,,,,,,,,,574,18,Woman,Right,5,10,0.4,1,180,-,180,1.1165691999995033,['n'],0.740870100000393,1.52,2092.4196567999998,,,,,574,18,Woman,Right,
,,,,,,,,,,,,,,,,,574,18,Woman,Right,5,50,0.15,1,180,-,0,1.888220700000602,['y'],0.2589351999995415,1.524,2096.6864350999995,,,,,574,18,Woman,Right,
,,,,,,,,,,,,,,,,,574,18,Woman,Right,5,17,0.4,2,0,180,180,0.9176874999993743,['y'],0.3466838000003918,1.46,2099.9706087000004,,,,,574,18,Woman,Right,
,,,,,,,,,,,,,,,,,574,18,Woman,Right,5,39,0.4,2,180,0,0,0.7205764999998792,['n'],1.0599308000000747,1.48,2103.8197751,,,,,574,18,Woman,Right,
,,,,,,,,,,,,,,,,,574,18,Woman,Right,5,36,0.4,1,0,-,0,0.41813419999925827,['n'],0.4115280999994866,1.486,2106.8363954000006,,,,,574,18,Woman,Right,
,,,,,,,,,,,,,,,,,574,18,Woman,Right,5,62,0.15,1,180,-,0,0.11930719999872963,['n'],0.25206840000100783,1.486,2109.2196918,,,,,574,18,Woman,Right,
,,,,,,,,,,,,,,,,,574,18,Woman,Right,5,79,0.15,2,180,0,0,0.34547180000117805,['n'],0.3404214000001957,1.486,2112.1196902,,,,,574,18,Woman,Right,
,,,,,,,,,,,,,,,,,574,18,Woman,Right,5,35,0.4,2,180,0,0,0.3248220000004949,['n'],0.276682300000175,1.486,2114.853133400001,,,,,574,18,Woman,Right,
,,,,,,,,,,,,,,,,,574,18,Woman,Right,5,16,0.4,1,0,-,0,0.22989980000056676,['n'],0.1892177999998239,1.486,2117.3696155999996,,,,,574,18,Woman,Right,
,,,,,,,,,,,,,,,,,574,18,Woman,Right,5,32,0.4,1,0,-,0,0.28869160000067495,['n'],0.40546960000028776,1.486,2120.2364215999996,,,,,574,18,Woman,Right,
,,,,,,,,,,,,,,,,,574,18,Woman,Right,5,67,0.15,2,180,0,0,0.3714445000005071,['n'],0.19781409999995958,1.486,2122.8697834999994,,,,,574,18,Woman,Right,
,,,,,,,,,,,,,,,,,574,18,Woman,Right,5,5,1,2,0,180,180,0.7477333000006183,['y'],0.26965320000090287,1.488,2126.003063700001,,,,,574,18,Woman,Right,
,,,,,,,,,,,,,,,,,574,18,Woman,Right,5,41,0.4,2,0,180,180,0.5200826000000234,['y'],0.3666716000007,1.488,2129.0363391,,,,,574,18,Woman,Right,
,,,,,,,,,,,,,,,,,574,18,Woman,Right,5,27,0.4,2,180,0,0,0.7153151000002254,['n'],0.4232579999988957,1.488,2132.3363340000005,,,,,574,18,Woman,Right,
,,,,,,,,,,,,,,,,,574,18,Woman,Right,5,66,0.15,1,180,-,0,1.6281857000012678,['n'],0.8315051999998104,1.488,2136.9864609000006,,,,,574,18,Woman,Right,
,,,,,,,,,,,,,,,,,574,18,Woman,Right,5,58,0.15,1,180,-,0,0.34212530000149854,['n'],6.1526200999996945,1.488,2145.6697522999993,,,,,574,18,Woman,Right,
,,,,,,,,,,,,,,,,,574,18,Woman,Right,5,37,0.4,2,0,180,180,0.6213210000005347,['y'],0.2411087000000407,1.488,2148.7363854999994,,,,,574,18,Woman,Right,
,,,,,,,,,,,,,,,,,574,18,Woman,Right,5,6,1,1,180,-,0,1.2666962000002968,['n'],0.36815699999897333,1.488,2152.553171299999,,,,,574,18,Woman,Right,
,,,,,,,,,,,,,,,,,574,18,Woman,Right,5,42,0.4,1,180,-,180,0.6160485000000335,['y'],0.16170770000098855,1.488,2155.453276699999,,,,,574,18,Woman,Right,
,,,,,,,,,,,,,,,,,574,18,Woman,Right,5,23,0.4,2,180,0,0,0.3032919999986916,['n'],0.5062206999991758,1.488,2158.3530856000007,,,,,574,18,Woman,Right,
,,,,,,,,,,,,,,,,,574,18,Woman,Right,5,4,1,1,0,-,0,2.5728288999998767,['n'],0.3147564999999304,1.488,2163.386491099999,,,,,574,18,Woman,Right,
,,,,,,,,,,,,,,,,,574,18,Woman,Right,5,28,0.4,1,0,-,0,0.2834523999990779,['n'],0.47390529999938735,1.488,2166.386385500001,,,,,574,18,Woman,Right,
,,,,,,,,,,,,,,,,,574,18,Woman,Right,5,21,0.4,2,0,180,180,0.45541860000048473,['y'],0.2754246000004059,1.488,2169.3209677999994,,,,,574,18,Woman,Right,
,,,,,,,,,,,,,,,,,574,18,Woman,Right,5,59,0.15,2,180,0,0,0.548049600000013,['n'],0.23588719999861496,1.488,2172.086467100001,,,,,574,18,Woman,Right,
,,,,,,,,,,,,,,,,,574,18,Woman,Right,5,54,0.15,1,180,-,0,0.32266879999951925,['n'],0.20413100000041595,1.488,2174.670098899999,,,,,574,18,Woman,Right,
,,,,,,,,,,,,,,,,,574,18,Woman,Right,5,51,0.15,2,180,0,0,0.24000729999897885,['n'],0.2047672999997303,1.488,2177.053312000001,,,,,574,18,Woman,Right,
,,,,,,,,,,,,,,,,,574,18,Woman,Right,5,64,0.15,1,0,-,0,0.41466960000070685,['n'],0.276763400001073,1.488,2179.6364292999997,,,,,574,18,Woman,Right,
,,,,,,,,,,,,,,,,,574,18,Woman,Right,5,38,0.4,1,180,-,180,0.17986480000035954,['y'],0.17355140000108804,1.488,2182.0702462,,,,,574,18,Woman,Right,
,,,,,,,,,,,,,,,,,574,18,Woman,Right,5,53,0.15,2,0,180,180,0.4324990000004618,['n'],0.18134860000100161,1.488,2184.5875207,,,,,574,18,Woman,Right,
,,,,,,,,,,,,,,,,,574,18,Woman,Right,5,14,0.4,1,180,-,180,0.5780496000006679,['n'],0.22915130000001227,1.478,2188.0533755999995,,,,,574,18,Woman,Right,
,,,,,,,,,,,,,,,,,574,18,Woman,Right,5,74,0.15,1,180,-,180,0.3033730999995896,['n'],0.221939700000803,1.488,2190.6531895,,,,,574,18,Woman,Right,
,,,,,,,,,,,,,,,,,574,18,Woman,Right,5,48,0.15,1,0,-,180,0.717539699999179,['n'],0.5422842000007222,1.518,2194.0200895999997,,,,,574,18,Woman,Right,
,,,,,,,,,,,,,,,,,574,18,Woman,Right,5,18,0.4,1,180,-,180,1.02473640000062,['y'],0.19095809999998892,1.518,2197.170089800001,,,,,574,18,Woman,Right,
,,,,,,,,,,,,,,,,,574,18,Woman,Right,5,9,0.4,2,0,180,180,1.2072735000001558,['y'],0.3994809999985591,1.518,2201.5532952000003,,,,,574,18,Woman,Right,
,,,,,,,,,,,,,,,,,,,,,,,,,,,,,,,,,83.75,85.0,42.5,1714.1653182999999,,,,,
