p_block,p_section,p_coherence,p_direction1,p_direction2,p_direction_response,p_direction_RT,p_change_response,p_change_RT,p_confidence,p_full_correct,p_without5_correct,p_full_total,p_without5_total,p_full_avg,p_witout5_avg,p_total_time,sub,age,sex,handedness,loop,trial randomization,coherence,condition,direction1,direction2,direction_response,direction_RT,change_response,change_RT,change_confidence,change_confidence_RT,block_direction_avg,block_stable_avg,block_change_avg,total_time,sub,age,sex,handedness,
1,1,1.0,180,-,180,0.3763977999999497,-,-,-,,,,,,,,563,18,Man,Right,,,,,,,,,,,,,,,,,563,18,Man,Right,
1,1,1.0,180,-,180,1.9877389000000676,-,-,-,,,,,,,,563,18,Man,Right,,,,,,,,,,,,,,,,,563,18,Man,Right,
1,1,1.0,180,-,180,0.34257720000005065,-,-,-,,,,,,,,563,18,Man,Right,,,,,,,,,,,,,,,,,563,18,Man,Right,
1,1,1.0,180,-,180,0.339390000000094,-,-,-,,,,,,,,563,18,Man,Right,,,,,,,,,,,,,,,,,563,18,Man,Right,
1,1,1.0,180,-,180,0.3195848999998816,-,-,-,,,,,,,,563,18,Man,Right,,,,,,,,,,,,,,,,,563,18,Man,Right,
1,1,1.0,180,-,180,0.23759240000003956,-,-,-,,,,,,,,563,18,Man,Right,,,,,,,,,,,,,,,,,563,18,Man,Right,
1,1,1.0,180,-,180,0.01673390000019026,-,-,-,,,,,,,,563,18,Man,Right,,,,,,,,,,,,,,,,,563,18,Man,Right,
1,1,1.0,0,-,0,0.071694799999932,-,-,-,,,,,,,,563,18,Man,Right,,,,,,,,,,,,,,,,,563,18,Man,Right,
1,1,1.0,180,-,180,0.039545300000099814,-,-,-,,,,,,,,563,18,Man,Right,,,,,,,,,,,,,,,,,563,18,Man,Right,
1,1,1.0,0,-,0,0.024173899999823334,-,-,-,10,10,10,10,1.0,1.0,,563,18,Man,Right,,,,,,,,,,,,,,,,,563,18,Man,Right,
2,1,0.15,180,-,180,0.8758586999999807,-,-,-,,,,,,,,563,18,Man,Right,,,,,,,,,,,,,,,,,563,18,Man,Right,
2,1,0.4,180,-,180,0.42745480000007774,-,-,-,,,,,,,,563,18,Man,Right,,,,,,,,,,,,,,,,,563,18,Man,Right,
2,1,0.4,0,-,0,0.04460560000006808,-,-,-,,,,,,,,563,18,Man,Right,,,,,,,,,,,,,,,,,563,18,Man,Right,
2,1,0.15,180,-,180,0.22120190000009643,-,-,-,,,,,,,,563,18,Man,Right,,,,,,,,,,,,,,,,,563,18,Man,Right,
2,1,0.15,180,-,180,0.0167653999999402,-,-,-,,,,,,,,563,18,Man,Right,,,,,,,,,,,,,,,,,563,18,Man,Right,
2,1,0.15,180,-,180,0.016739199999847187,-,-,-,,,,,,,,563,18,Man,Right,,,,,,,,,,,,,,,,,563,18,Man,Right,
2,1,0.15,0,-,0,0.016784099999995306,-,-,-,,,,,,,,563,18,Man,Right,,,,,,,,,,,,,,,,,563,18,Man,Right,
2,1,0.15,0,-,180,0.016681500000004235,-,-,-,,,,,,,,563,18,Man,Right,,,,,,,,,,,,,,,,,563,18,Man,Right,
2,1,0.15,180,-,180,0.016713800000161427,-,-,-,,,,,,,,563,18,Man,Right,,,,,,,,,,,,,,,,,563,18,Man,Right,
2,1,0.4,0,-,0,0.6532764999999472,-,-,-,9,3,10,3,0.9,1.0,,563,18,Man,Right,,,,,,,,,,,,,,,,,563,18,Man,Right,
3,2,1.0,180,0,0,3.467180800000051,['y'],2.6581573000000844,1.748,,,,,,,,563,18,Man,Right,,,,,,,,,,,,,,,,,563,18,Man,Right,
3,2,1.0,180,0,0,1.4177749000000404,['y'],3.738457599999947,2.0,,,,,,,,563,18,Man,Right,,,,,,,,,,,,,,,,,563,18,Man,Right,
3,2,1.0,180,0,0,1.0559057999998913,['y'],0.3109042999999474,2.0,,,,,,,,563,18,Man,Right,,,,,,,,,,,,,,,,,563,18,Man,Right,
3,2,1.0,0,180,180,0.6184519000000819,['y'],1.2275887999999213,2.0,,,,,,,,563,18,Man,Right,,,,,,,,,,,,,,,,,563,18,Man,Right,
3,2,1.0,0,180,180,0.5417291999999634,['y'],0.36157780000007733,2.0,,,,,,,,563,18,Man,Right,,,,,,,,,,,,,,,,,563,18,Man,Right,
3,2,1.0,0,180,180,0.6857840999998643,['y'],0.27635989999998856,2.0,,,,,,,,563,18,Man,Right,,,,,,,,,,,,,,,,,563,18,Man,Right,
3,2,1.0,0,180,180,0.3654869999998027,['y'],0.2889596999998503,2.0,,,,,,,,563,18,Man,Right,,,,,,,,,,,,,,,,,563,18,Man,Right,
3,2,1.0,180,0,0,0.3800154000000475,['y'],0.06308490000014899,2.0,,,,,,,,563,18,Man,Right,,,,,,,,,,,,,,,,,563,18,Man,Right,
3,2,1.0,0,180,180,0.30967149999992216,['y'],0.21152780000011262,2.0,,,,,,,,563,18,Man,Right,,,,,,,,,,,,,,,,,563,18,Man,Right,
3,2,1.0,0,180,180,0.31952289999981076,['y'],0.308668900000157,2.0,10,10,10,10,1.0,1.0,,563,18,Man,Right,,,,,,,,,,,,,,,,,563,18,Man,Right,
4,2,0.15,0,180,0,0.7443828000000394,['n'],1.5483914999999797,1.0,,,,,,,,563,18,Man,Right,,,,,,,,,,,,,,,,,563,18,Man,Right,
4,2,0.4,180,0,0,0.9470885999999155,['y'],0.3192275999999765,2.0,,,,,,,,563,18,Man,Right,,,,,,,,,,,,,,,,,563,18,Man,Right,
4,2,0.4,0,180,180,0.9054463000002215,['y'],0.2628671000002214,1.744,,,,,,,,563,18,Man,Right,,,,,,,,,,,,,,,,,563,18,Man,Right,
4,2,0.4,0,180,180,0.396001200000228,['y'],0.30933679999998276,1.87,,,,,,,,563,18,Man,Right,,,,,,,,,,,,,,,,,563,18,Man,Right,
4,2,0.4,0,180,180,0.3219574999998258,['y'],0.2391960999998446,2.0,,,,,,,,563,18,Man,Right,,,,,,,,,,,,,,,,,563,18,Man,Right,
4,2,0.4,180,0,0,0.8366123000000698,['y'],0.292134299999816,2.0,,,,,,,,563,18,Man,Right,,,,,,,,,,,,,,,,,563,18,Man,Right,
4,2,0.15,0,180,180,1.0376694000001407,['n'],0.6133676999997988,1.51,,,,,,,,563,18,Man,Right,,,,,,,,,,,,,,,,,563,18,Man,Right,
4,2,0.4,0,180,180,0.3556303000000298,['y'],0.2467386999996961,2.0,,,,,,,,563,18,Man,Right,,,,,,,,,,,,,,,,,563,18,Man,Right,
4,2,0.4,180,0,0,0.35333849999960876,['y'],0.2606581999998525,2.0,,,,,,,,563,18,Man,Right,,,,,,,,,,,,,,,,,563,18,Man,Right,
4,2,0.15,180,0,180,1.1784990000001017,['n'],0.22028099999988626,1.19,8,7,10,7,0.8,1.0,,563,18,Man,Right,,,,,,,,,,,,,,,,,563,18,Man,Right,
5,3,0.4,180,-,180,0.8474753999998939,['n'],0.4547529999999824,1.842,,,,,,,,563,18,Man,Right,,,,,,,,,,,,,,,,,563,18,Man,Right,
5,3,0.15,180,-,180,0.7714645999999448,['n'],0.2135140999998839,1.75,,,,,,,,563,18,Man,Right,,,,,,,,,,,,,,,,,563,18,Man,Right,
5,3,0.15,180,-,0,0.40966700000035416,['y'],0.16338059999998222,1.488,,,,,,,,563,18,Man,Right,,,,,,,,,,,,,,,,,563,18,Man,Right,
5,3,1.0,0,180,180,0.3483683000004021,['y'],0.21547330000021248,1.97,,,,,,,,563,18,Man,Right,,,,,,,,,,,,,,,,,563,18,Man,Right,
5,3,0.15,0,180,180,0.2797066999996787,['y'],0.23027860000001965,1.84,,,,,,,,563,18,Man,Right,,,,,,,,,,,,,,,,,563,18,Man,Right,
5,3,1.0,0,-,0,0.5697097000002032,['n'],0.12384889999975712,2.0,,,,,,,,563,18,Man,Right,,,,,,,,,,,,,,,,,563,18,Man,Right,
5,3,0.15,0,180,180,0.5013082999998915,['y'],0.20240609999973458,1.83,,,,,,,,563,18,Man,Right,,,,,,,,,,,,,,,,,563,18,Man,Right,
5,3,0.4,0,180,180,0.2372485000000779,['y'],0.2370492000000013,2.0,,,,,,,,563,18,Man,Right,,,,,,,,,,,,,,,,,563,18,Man,Right,
5,3,0.4,180,-,0,0.3214846999999281,['n'],0.2776936999998725,1.524,,,,,,,,563,18,Man,Right,,,,,,,,,,,,,,,,,563,18,Man,Right,
5,3,0.15,0,180,180,0.560877000000346,['y'],0.2529397999996945,1.642,8,4,10,5,0.8,0.8,,563,18,Man,Right,,,,,,,,,,,,,,,,,563,18,Man,Right,
,,,,,,,,,,,,,,,,3.999999989900971e-06,563,18,Man,Right,,,,,,,,,,,,,,,,,563,18,Man,Right,
,,,,,,,,,,,,,,,,,563,18,Man,Right,0,52,0.15,1,0,-,180,2.738566600000013,['y'],2.10287180000023,1.554,253.66556850000006,,,,,563,18,Man,Right,
,,,,,,,,,,,,,,,,,563,18,Man,Right,0,33,0.4,2,0,180,180,0.572097599999779,['y'],1.230941199999961,1.77,258.63218240000015,,,,,563,18,Man,Right,
,,,,,,,,,,,,,,,,,563,18,Man,Right,0,59,0.15,2,180,0,0,2.340537399999903,['n'],0.695129800000359,1.528,264.4823314999999,,,,,563,18,Man,Right,
,,,,,,,,,,,,,,,,,563,18,Man,Right,0,20,0.4,1,0,-,0,0.6541194999999789,['y'],0.5906832000000577,1.804,268.4657788999998,,,,,563,18,Man,Right,
,,,,,,,,,,,,,,,,,563,18,Man,Right,0,45,0.15,2,0,180,180,0.47052549999989424,['y'],0.9268741999999293,1.82,272.81632690000015,,,,,563,18,Man,Right,
,,,,,,,,,,,,,,,,,563,18,Man,Right,0,28,0.4,1,0,-,0,0.7242154999999002,['n'],1.0148184000004221,1.8559999999999999,277.8320867000002,,,,,563,18,Man,Right,
,,,,,,,,,,,,,,,,,563,18,Man,Right,0,73,0.15,2,0,180,0,1.2154615999997986,['y'],0.43860510000013164,1.804,282.2489896000002,,,,,563,18,Man,Right,
,,,,,,,,,,,,,,,,,563,18,Man,Right,0,2,1,1,180,-,180,0.855605000000196,['n'],0.5346911999999975,2.0,286.0653935999999,,,,,563,18,Man,Right,
,,,,,,,,,,,,,,,,,563,18,Man,Right,0,54,0.15,1,180,-,180,1.6121470999996745,['n'],0.6391954999999143,1.724,291.6489415000001,,,,,563,18,Man,Right,
,,,,,,,,,,,,,,,,,563,18,Man,Right,0,43,0.4,2,180,0,0,0.5671017999998185,['y'],0.4072425999997904,2.0,295.0654236999999,,,,,563,18,Man,Right,
,,,,,,,,,,,,,,,,,563,18,Man,Right,0,31,0.4,2,180,0,0,0.38930270000037126,['y'],0.6067612000001645,2.0,298.38209229999984,,,,,563,18,Man,Right,
,,,,,,,,,,,,,,,,,563,18,Man,Right,0,15,0.4,2,180,0,0,0.4324600000004466,['y'],0.5266145999999026,2.0,301.8987047999999,,,,,563,18,Man,Right,
,,,,,,,,,,,,,,,,,563,18,Man,Right,0,34,0.4,1,180,-,180,0.7106469999998808,['n'],0.8389318999998068,1.9060000000000001,305.8988625000002,,,,,563,18,Man,Right,
,,,,,,,,,,,,,,,,,563,18,Man,Right,0,70,0.15,1,180,-,180,1.2512637999998333,['n'],1.2947089999997843,1.762,312.9485880000002,,,,,563,18,Man,Right,
,,,,,,,,,,,,,,,,,563,18,Man,Right,0,41,0.4,2,0,180,180,0.5168025000002672,['y'],0.49480110000013156,1.784,316.6652291999999,,,,,563,18,Man,Right,
,,,,,,,,,,,,,,,,,563,18,Man,Right,0,67,0.15,2,180,0,0,0.4702889000000141,['y'],1.7428882999997768,1.746,321.89884040000015,,,,,563,18,Man,Right,
,,,,,,,,,,,,,,,,,563,18,Man,Right,0,4,1,1,0,-,0,0.5403981999997995,['n'],0.5586755999997877,2.0,325.3651595000001,,,,,563,18,Man,Right,
,,,,,,,,,,,,,,,,,563,18,Man,Right,0,25,0.4,2,0,180,180,0.47421699999995326,['y'],0.5342160000000149,1.808,329.0153583000001,,,,,563,18,Man,Right,
,,,,,,,,,,,,,,,,,563,18,Man,Right,0,16,0.4,1,0,-,0,1.694849499999691,['n'],0.8788742000001548,1.298,334.3984556999999,,,,,563,18,Man,Right,
,,,,,,,,,,,,,,,,,563,18,Man,Right,0,56,0.15,1,0,-,0,1.6546069000000898,['n'],0.3588583999999173,1.0,339.7320098,,,,,563,18,Man,Right,
,,,,,,,,,,,,,,,,,563,18,Man,Right,0,13,0.4,2,0,180,180,0.41765639999994164,['y'],0.7189662000000681,1.686,343.3484191000002,,,,,563,18,Man,Right,
,,,,,,,,,,,,,,,,,563,18,Man,Right,0,5,1,2,0,180,180,0.7395967000002202,['y'],0.7110616999998456,1.8860000000000001,347.798397,,,,,563,18,Man,Right,
,,,,,,,,,,,,,,,,,563,18,Man,Right,0,23,0.4,2,180,0,0,0.6409504000002926,['y'],0.47123429999965083,1.866,351.8817472999999,,,,,563,18,Man,Right,
,,,,,,,,,,,,,,,,,563,18,Man,Right,0,53,0.15,2,0,180,180,0.527393999999731,['y'],0.5345100999998067,1.798,355.4486350000002,,,,,563,18,Man,Right,
,,,,,,,,,,,,,,,,,563,18,Man,Right,0,27,0.4,2,180,0,0,0.36750530000017534,['y'],0.6149427000000287,1.774,358.86522349999996,,,,,563,18,Man,Right,
,,,,,,,,,,,,,,,,,563,18,Man,Right,0,36,0.4,1,0,-,180,0.9660705999999664,['y'],0.5505889999999454,1.3599999999999999,363.2984535999999,,,,,563,18,Man,Right,
,,,,,,,,,,,,,,,,,563,18,Man,Right,0,19,0.4,2,180,0,0,0.34243130000004385,['y'],0.6788645999999972,1.78,366.64861550000023,,,,,563,18,Man,Right,
,,,,,,,,,,,,,,,,,563,18,Man,Right,0,8,0.4,1,0,-,180,1.0443975000002865,['y'],0.7751106000000618,1.25,372.13198839999995,,,,,563,18,Man,Right,
,,,,,,,,,,,,,,,,,563,18,Man,Right,0,61,0.15,2,0,180,180,2.9684637000000293,['y'],0.5989555000001019,1.052,378.13167520000025,,,,,563,18,Man,Right,
,,,,,,,,,,,,,,,,,563,18,Man,Right,0,24,0.4,1,0,-,0,0.9623941999998351,['y'],0.6869647999997142,1.31,382.94838470000013,,,,,563,18,Man,Right,
,,,,,,,,,,,,,,,,,563,18,Man,Right,0,7,1,2,180,0,0,0.47377589999996417,['y'],0.3115434000001187,2.0,386.08158360000016,,,,,563,18,Man,Right,
,,,,,,,,,,,,,,,,,563,18,Man,Right,0,26,0.4,1,180,-,180,1.7255190999999286,['n'],0.31082130000004327,1.0,390.5981012000002,,,,,563,18,Man,Right,
,,,,,,,,,,,,,,,,,563,18,Man,Right,0,50,0.15,1,180,-,180,1.1020572000002176,['n'],0.48682449999978417,1.0,394.51490890000014,,,,,563,18,Man,Right,
,,,,,,,,,,,,,,,,,563,18,Man,Right,0,51,0.15,2,180,0,180,2.2566529999999148,['n'],0.7028344000000288,1.0,399.9815045999999,,,,,563,18,Man,Right,
,,,,,,,,,,,,,,,,,563,18,Man,Right,0,40,0.4,1,0,-,180,1.368786900000032,['y'],0.4869432999998935,1.494,404.73143600000003,,,,,563,18,Man,Right,
,,,,,,,,,,,,,,,,,563,18,Man,Right,0,79,0.15,2,180,0,0,0.45054739999977755,['y'],0.4073440000001938,1.486,408.0983071999999,,,,,563,18,Man,Right,
,,,,,,,,,,,,,,,,,563,18,Man,Right,0,55,0.15,2,180,0,180,2.0151599999999235,['n'],0.17431119999992006,1.0,412.66510849999986,,,,,563,18,Man,Right,
,,,,,,,,,,,,,,,,,563,18,Man,Right,0,69,0.15,2,0,180,180,0.5336748999998235,['y'],0.3829348999997819,1.504,416.4481873,,,,,563,18,Man,Right,
,,,,,,,,,,,,,,,,,563,18,Man,Right,0,32,0.4,1,0,-,0,1.0558673999998973,['n'],0.6308927999998559,1.522,421.4647203999998,,,,,563,18,Man,Right,
,,,,,,,,,,,,,,,,,563,18,Man,Right,0,64,0.15,1,0,-,0,0.9974551000000247,['n'],0.31053750000000946,1.27,425.73133099999995,,,,,563,18,Man,Right,
,,,,,,,,,,,,,,,,,563,18,Man,Right,0,76,0.15,1,0,-,180,1.212593299999753,['y'],0.36684969999987516,1.434,430.11470529999997,,,,,563,18,Man,Right,
,,,,,,,,,,,,,,,,,563,18,Man,Right,0,1,1,2,0,180,180,0.42894429999978456,['y'],0.7824484000002485,2.0,433.7145851999999,,,,,563,18,Man,Right,
,,,,,,,,,,,,,,,,,563,18,Man,Right,0,42,0.4,1,180,-,180,0.644434899999851,['n'],0.646928200000275,2.0,437.54816200000005,,,,,563,18,Man,Right,
,,,,,,,,,,,,,,,,,563,18,Man,Right,0,66,0.15,1,180,-,180,0.7106797999999799,['y'],0.6070975000002363,1.452,441.84810659999994,,,,,563,18,Man,Right,
,,,,,,,,,,,,,,,,,563,18,Man,Right,0,21,0.4,2,0,180,180,0.5036731000000145,['y'],0.22343030000001818,2.0,444.74836140000025,,,,,563,18,Man,Right,
,,,,,,,,,,,,,,,,,563,18,Man,Right,0,58,0.15,1,180,-,180,0.8437203999997109,['y'],0.5104184000001624,1.246,449.13120489999983,,,,,563,18,Man,Right,
,,,,,,,,,,,,,,,,,563,18,Man,Right,0,0,1,1,0,-,0,0.5406826999997065,['n'],0.4946132000000034,2.0,452.46472730000005,,,,,563,18,Man,Right,
,,,,,,,,,,,,,,,,,563,18,Man,Right,0,14,0.4,1,180,-,180,0.9418955000001006,['n'],0.27842110000028697,2.0,456.09787110000025,,,,,563,18,Man,Right,
,,,,,,,,,,,,,,,,,563,18,Man,Right,0,75,0.15,2,180,0,0,0.6303634999999304,['n'],0.42264380000005985,1.476,459.59786810000014,,,,,563,18,Man,Right,
,,,,,,,,,,,,,,,,,563,18,Man,Right,0,37,0.4,2,0,180,180,1.0658448000003773,['y'],0.23084220000009736,1.924,466.498028,,,,,563,18,Man,Right,
,,,,,,,,,,,,,,,,,563,18,Man,Right,0,30,0.4,1,180,-,180,0.763003800000206,['n'],0.41495979999990595,1.728,470.2813378999999,,,,,563,18,Man,Right,
,,,,,,,,,,,,,,,,,563,18,Man,Right,0,72,0.15,1,0,-,0,0.6576555999999982,['n'],0.3587454000003163,1.244,474.0644849999999,,,,,563,18,Man,Right,
,,,,,,,,,,,,,,,,,563,18,Man,Right,0,63,0.15,2,180,0,180,0.8651473999998416,['y'],0.8065938999998252,1.048,478.3144720999999,,,,,563,18,Man,Right,
,,,,,,,,,,,,,,,,,563,18,Man,Right,0,74,0.15,1,180,-,180,1.1669727999997122,['y'],0.9199100000000726,1.0,483.19763710000007,,,,,563,18,Man,Right,
,,,,,,,,,,,,,,,,,563,18,Man,Right,0,46,0.15,1,180,-,180,1.2705375999998978,['n'],0.3190727999999581,1.054,488.16436299999987,,,,,563,18,Man,Right,
,,,,,,,,,,,,,,,,,563,18,Man,Right,0,12,0.4,1,0,-,0,0.842896600000131,['n'],0.3588046999998369,1.238,491.9476917000002,,,,,563,18,Man,Right,
,,,,,,,,,,,,,,,,,563,18,Man,Right,0,47,0.15,2,180,0,180,0.49031460000014704,['n'],0.2630761000000348,1.0,495.2311926000002,,,,,563,18,Man,Right,
,,,,,,,,,,,,,,,,,563,18,Man,Right,0,29,0.4,2,0,180,180,0.6641802000003736,['y'],0.28742570000031264,2.0,498.4145284000001,,,,,563,18,Man,Right,
,,,,,,,,,,,,,,,,,563,18,Man,Right,0,39,0.4,2,180,0,0,0.5998715999999149,['y'],0.3830216000001201,2.0,501.6146226000001,,,,,563,18,Man,Right,
,,,,,,,,,,,,,,,,,563,18,Man,Right,0,18,0.4,1,180,-,180,0.5212111000000732,['n'],0.3099443999999494,2.0,504.69774529999995,,,,,563,18,Man,Right,
,,,,,,,,,,,,,,,,,563,18,Man,Right,0,60,0.15,1,0,-,180,1.045778600000176,['y'],0.4152573000001212,1.2,508.81457739999996,,,,,563,18,Man,Right,
,,,,,,,,,,,,,,,,,563,18,Man,Right,0,71,0.15,2,180,0,180,0.8491878999998335,['n'],0.27067010000018854,1.214,512.8146950999999,,,,,563,18,Man,Right,
,,,,,,,,,,,,,,,,,563,18,Man,Right,0,62,0.15,1,180,-,180,0.6002781999995932,['n'],0.3276875999999902,1.234,516.3143441000002,,,,,563,18,Man,Right,
,,,,,,,,,,,,,,,,,563,18,Man,Right,0,17,0.4,2,0,180,180,0.4829193000000487,['y'],1.1590595999996367,1.804,520.9978556000001,,,,,563,18,Man,Right,
,,,,,,,,,,,,,,,,,563,18,Man,Right,0,6,1,1,180,-,180,0.4117319000001771,['n'],0.23856179999984306,2.0,523.8477834999999,,,,,563,18,Man,Right,
,,,,,,,,,,,,,,,,,563,18,Man,Right,0,49,0.15,2,0,180,180,1.4221499999998741,['n'],0.5829883000001246,1.196,528.464395,,,,,563,18,Man,Right,
,,,,,,,,,,,,,,,,,563,18,Man,Right,0,9,0.4,2,0,180,180,0.534293599999728,['y'],0.6390221000001475,2.0,531.9808785999999,,,,,563,18,Man,Right,
,,,,,,,,,,,,,,,,,563,18,Man,Right,0,65,0.15,2,0,180,180,0.5457853000002615,['y'],0.6948698000001059,2.0,535.3807921000002,,,,,563,18,Man,Right,
,,,,,,,,,,,,,,,,,563,18,Man,Right,0,35,0.4,2,180,0,0,1.6479537999998684,['y'],0.8150699000002533,2.0,540.9142652999999,,,,,563,18,Man,Right,
,,,,,,,,,,,,,,,,,563,18,Man,Right,0,78,0.15,1,180,-,180,0.7495779999999286,['n'],0.3585696000000098,1.758,544.6978588000002,,,,,563,18,Man,Right,
,,,,,,,,,,,,,,,,,563,18,Man,Right,0,22,0.4,1,180,-,180,0.5199045000003935,['n'],1.4873051999998097,1.964,550.1809533999999,,,,,563,18,Man,Right,
,,,,,,,,,,,,,,,,,563,18,Man,Right,0,38,0.4,1,180,-,180,0.7462006000000656,['n'],0.28681840000035663,1.8820000000000001,553.6976340000001,,,,,563,18,Man,Right,
,,,,,,,,,,,,,,,,,563,18,Man,Right,0,48,0.15,1,0,-,0,0.9997409000002335,['n'],0.782927500000369,1.58,558.9306984999998,,,,,563,18,Man,Right,
,,,,,,,,,,,,,,,,,563,18,Man,Right,0,68,0.15,1,0,-,0,1.4601298000002316,['n'],0.8386871999996401,1.048,563.9806942999999,,,,,563,18,Man,Right,
,,,,,,,,,,,,,,,,,563,18,Man,Right,0,57,0.15,2,0,180,180,0.6250826000000416,['y'],0.9428696999998465,1.508,569.3306444,,,,,563,18,Man,Right,
,,,,,,,,,,,,,,,,,563,18,Man,Right,0,10,0.4,1,180,-,180,1.0780705000001944,['n'],0.3106683000000885,1.686,574.0472421,,,,,563,18,Man,Right,
,,,,,,,,,,,,,,,,,563,18,Man,Right,0,77,0.15,2,0,180,180,1.1290161000001717,['y'],1.2464764000001196,1.724,579.0805831000002,,,,,563,18,Man,Right,
,,,,,,,,,,,,,,,,,563,18,Man,Right,0,3,1,2,180,0,0,0.5284267000001819,['y'],0.46303260000013324,2.0,582.6139766000001,,,,,563,18,Man,Right,
,,,,,,,,,,,,,,,,,563,18,Man,Right,0,44,0.15,1,0,-,180,0.5538981999998214,['y'],0.39124649999985195,1.782,586.1472850999999,,,,,563,18,Man,Right,
,,,,,,,,,,,,,,,,,563,18,Man,Right,0,11,0.4,2,180,0,0,0.4050898000000416,['y'],0.35854079999990063,1.812,589.4147679000002,,,,,563,18,Man,Right,
,,,,,,,,,,,,,,,,,563,18,Man,Right,1,27,0.4,2,180,0,0,0.6940133000002788,['y'],0.3592790999996396,1.922,606.9640473999998,83.75,70.0,82.5,,563,18,Man,Right,
,,,,,,,,,,,,,,,,,563,18,Man,Right,1,78,0.15,1,180,-,0,0.6688610000001063,['y'],0.4626401000000442,1.6600000000000001,611.1637658,,,,,563,18,Man,Right,
,,,,,,,,,,,,,,,,,563,18,Man,Right,1,32,0.4,1,0,-,0,0.784679899999901,['n'],0.24725339999986318,1.616,614.7141292000001,,,,,563,18,Man,Right,
,,,,,,,,,,,,,,,,,563,18,Man,Right,1,40,0.4,1,0,-,0,0.7823984000001474,['n'],0.5508122000001094,1.5899999999999999,619.0970098000003,,,,,563,18,Man,Right,
,,,,,,,,,,,,,,,,,563,18,Man,Right,1,73,0.15,2,0,180,180,2.8957297000001745,['y'],0.21454129999983707,1.314,625.2136608999999,,,,,563,18,Man,Right,
,,,,,,,,,,,,,,,,,563,18,Man,Right,1,75,0.15,2,180,0,0,0.5222380000000157,['y'],0.7030703999998877,1.722,632.1636779,,,,,563,18,Man,Right,
,,,,,,,,,,,,,,,,,563,18,Man,Right,1,77,0.15,2,0,180,180,0.9327201999999488,['y'],0.5033904000001712,1.724,637.0472292,,,,,563,18,Man,Right,
,,,,,,,,,,,,,,,,,563,18,Man,Right,1,31,0.4,2,180,0,0,0.48421570000027714,['y'],0.2547309999999925,1.65,641.0803353000001,,,,,563,18,Man,Right,
,,,,,,,,,,,,,,,,,563,18,Man,Right,1,55,0.15,2,180,0,0,0.7238562000002275,['y'],0.5347306999997272,1.8559999999999999,644.7635476999999,,,,,563,18,Man,Right,
,,,,,,,,,,,,,,,,,563,18,Man,Right,1,13,0.4,2,0,180,180,0.47582009999996444,['y'],0.4146232999996755,2.0,647.8470327,,,,,563,18,Man,Right,
,,,,,,,,,,,,,,,,,563,18,Man,Right,1,41,0.4,2,0,180,180,0.3338918999997986,['y'],0.2629947999998876,2.0,650.8135376999999,,,,,563,18,Man,Right,
,,,,,,,,,,,,,,,,,563,18,Man,Right,1,22,0.4,1,180,-,180,0.5788195999998607,['n'],0.670741899999939,2.0,654.3135780000002,,,,,563,18,Man,Right,
,,,,,,,,,,,,,,,,,563,18,Man,Right,1,23,0.4,2,180,0,0,0.589465200000177,['y'],0.2789465000000746,2.0,657.6970594,,,,,563,18,Man,Right,
,,,,,,,,,,,,,,,,,563,18,Man,Right,1,35,0.4,2,180,0,0,0.4559586999998828,['y'],0.3343866000000162,2.0,661.1468994000002,,,,,563,18,Man,Right,
,,,,,,,,,,,,,,,,,563,18,Man,Right,1,7,1,2,180,0,0,0.46274300000004587,['y'],0.30288400000017646,2.0,664.2801511000002,,,,,563,18,Man,Right,
,,,,,,,,,,,,,,,,,563,18,Man,Right,1,48,0.15,1,0,-,0,1.0282818000000589,['n'],0.4629909000000225,1.654,670.3303436000001,,,,,563,18,Man,Right,
,,,,,,,,,,,,,,,,,563,18,Man,Right,1,62,0.15,1,180,-,0,0.550387000000228,['n'],0.25515969999969457,1.6360000000000001,673.6467954999998,,,,,563,18,Man,Right,
,,,,,,,,,,,,,,,,,563,18,Man,Right,1,20,0.4,1,0,-,0,0.322330299999976,['n'],0.191200199999912,1.798,676.9976135000002,,,,,563,18,Man,Right,
,,,,,,,,,,,,,,,,,563,18,Man,Right,1,16,0.4,1,0,-,0,0.41174640000008367,['n'],0.13523720000011963,1.806,679.9643553999999,,,,,563,18,Man,Right,
,,,,,,,,,,,,,,,,,563,18,Man,Right,1,47,0.15,2,180,0,0,0.49965940000038245,['y'],0.6630000999998629,1.712,683.6133101,,,,,563,18,Man,Right,
,,,,,,,,,,,,,,,,,563,18,Man,Right,1,51,0.15,2,180,0,0,1.8433076000001165,['y'],0.2306069999999636,1.274,688.1801955999999,,,,,563,18,Man,Right,
,,,,,,,,,,,,,,,,,563,18,Man,Right,1,4,1,1,0,-,0,0.3554838000000018,['n'],0.6148402999997415,2.0,691.5632415,,,,,563,18,Man,Right,
,,,,,,,,,,,,,,,,,563,18,Man,Right,1,69,0.15,2,0,180,180,1.3151465000000826,['n'],0.166928800000278,1.194,695.8132879,,,,,563,18,Man,Right,
,,,,,,,,,,,,,,,,,563,18,Man,Right,1,9,0.4,2,0,180,180,0.4805575999998837,['y'],0.4868962999998985,2.0,699.0301365,,,,,563,18,Man,Right,
,,,,,,,,,,,,,,,,,563,18,Man,Right,1,1,1,2,0,180,180,1.3600718000002416,['y'],0.15833380000003672,2.0,702.9801533999998,,,,,563,18,Man,Right,
,,,,,,,,,,,,,,,,,563,18,Man,Right,1,53,0.15,2,0,180,180,1.1791619999999057,['n'],0.3507652000002963,1.754,707.9967188999999,,,,,563,18,Man,Right,
,,,,,,,,,,,,,,,,,563,18,Man,Right,1,3,1,2,180,0,0,0.29910419999987425,['y'],0.24698910000006435,2.0,710.8633398000002,,,,,563,18,Man,Right,
,,,,,,,,,,,,,,,,,563,18,Man,Right,1,43,0.4,2,180,0,0,0.3330323000000135,['y'],0.26296370000000024,1.932,713.879891,,,,,563,18,Man,Right,
,,,,,,,,,,,,,,,,,563,18,Man,Right,1,74,0.15,1,180,-,0,1.3119805999999699,['y'],0.5351295999998911,1.248,718.9142492000001,,,,,563,18,Man,Right,
,,,,,,,,,,,,,,,,,563,18,Man,Right,1,8,0.4,1,0,-,0,0.6145590000000993,['n'],0.8630859999998393,2.0,722.8632461000002,,,,,563,18,Man,Right,
,,,,,,,,,,,,,,,,,563,18,Man,Right,1,34,0.4,1,180,-,180,0.5031889000001684,['n'],0.3112596000000849,2.0,725.9481658999998,,,,,563,18,Man,Right,
,,,,,,,,,,,,,,,,,563,18,Man,Right,1,50,0.15,1,180,-,180,1.802780299999995,['y'],0.2388981000003696,1.0,730.2798511000001,,,,,563,18,Man,Right,
,,,,,,,,,,,,,,,,,563,18,Man,Right,1,12,0.4,1,0,-,180,3.551429599999665,['y'],0.19068000000015672,1.0,736.1965077999998,,,,,563,18,Man,Right,
,,,,,,,,,,,,,,,,,563,18,Man,Right,1,44,0.15,1,0,-,180,0.7634964000003492,['y'],0.3905485000000226,1.0,739.4965213,,,,,563,18,Man,Right,
,,,,,,,,,,,,,,,,,563,18,Man,Right,1,37,0.4,2,0,180,180,0.627923699999883,['y'],0.5032301999999618,1.6179999999999999,743.0130036999999,,,,,563,18,Man,Right,
,,,,,,,,,,,,,,,,,563,18,Man,Right,1,0,1,1,0,-,0,0.3628315000000839,['n'],0.1588369999999486,2.0,745.8964907999998,,,,,563,18,Man,Right,
,,,,,,,,,,,,,,,,,563,18,Man,Right,1,70,0.15,1,180,-,180,1.193014200000107,['y'],0.2227932000000692,1.0,749.6131341999999,,,,,563,18,Man,Right,
,,,,,,,,,,,,,,,,,563,18,Man,Right,1,18,0.4,1,180,-,180,1.1601908000002368,['n'],0.2785910000002332,1.5819999999999999,753.6963826000001,,,,,563,18,Man,Right,
,,,,,,,,,,,,,,,,,563,18,Man,Right,1,49,0.15,2,0,180,180,0.7253378999998858,['y'],0.27890320000005886,1.16,757.6799636000001,,,,,563,18,Man,Right,
,,,,,,,,,,,,,,,,,563,18,Man,Right,1,64,0.15,1,0,-,0,1.0480416999998852,['n'],0.19832910000013726,1.208,761.7129648999999,,,,,563,18,Man,Right,
,,,,,,,,,,,,,,,,,563,18,Man,Right,1,46,0.15,1,180,-,180,0.5903002000000015,['n'],0.23176330000023881,1.0939999999999999,764.7964565000002,,,,,563,18,Man,Right,
,,,,,,,,,,,,,,,,,563,18,Man,Right,1,17,0.4,2,0,180,180,0.5863813000000846,['y'],0.26264450000007855,1.62,768.0798540999999,,,,,563,18,Man,Right,
,,,,,,,,,,,,,,,,,563,18,Man,Right,1,52,0.15,1,0,-,0,0.6394949000000452,['n'],0.12626189999991766,1.3559999999999999,771.8964007,,,,,563,18,Man,Right,
,,,,,,,,,,,,,,,,,563,18,Man,Right,1,25,0.4,2,0,180,180,0.6473455000000286,['y'],0.1988240999999107,1.726,775.1297227,,,,,563,18,Man,Right,
,,,,,,,,,,,,,,,,,563,18,Man,Right,1,29,0.4,2,0,180,180,0.5256168000000798,['y'],0.14291600000024118,1.7,778.6629232999999,,,,,563,18,Man,Right,
,,,,,,,,,,,,,,,,,563,18,Man,Right,1,72,0.15,1,0,-,0,0.8249160999998821,['y'],0.2548572000000604,1.346,782.5462240000002,,,,,563,18,Man,Right,
,,,,,,,,,,,,,,,,,563,18,Man,Right,1,42,0.4,1,180,-,180,0.9748669000000518,['n'],0.1748674000000392,1.4020000000000001,786.7628165000001,,,,,563,18,Man,Right,
,,,,,,,,,,,,,,,,,563,18,Man,Right,1,54,0.15,1,180,-,0,0.8392107999998188,['n'],0.23131389999980456,1.04,790.3129571,,,,,563,18,Man,Right,
,,,,,,,,,,,,,,,,,563,18,Man,Right,1,5,1,2,0,180,180,0.5014712999995936,['y'],1.1750495000001138,2.0,794.4796735,,,,,563,18,Man,Right,
,,,,,,,,,,,,,,,,,563,18,Man,Right,1,33,0.4,2,0,180,180,0.4389950999998291,['y'],0.4073931999996603,2.0,799.179768,,,,,563,18,Man,Right,
,,,,,,,,,,,,,,,,,563,18,Man,Right,1,65,0.15,2,0,180,180,0.9531098000002203,['n'],0.3031611999999768,1.532,803.9797323000003,,,,,563,18,Man,Right,
,,,,,,,,,,,,,,,,,563,18,Man,Right,1,10,0.4,1,180,-,180,0.5228909000002204,['n'],1.3030498000002808,1.828,811.5460702,,,,,563,18,Man,Right,
,,,,,,,,,,,,,,,,,563,18,Man,Right,1,56,0.15,1,0,-,0,0.8301854000001185,['n'],0.14326900000014575,1.6400000000000001,815.7126628999999,,,,,563,18,Man,Right,
,,,,,,,,,,,,,,,,,563,18,Man,Right,1,24,0.4,1,0,-,0,0.27035950000026787,['n'],0.35879620000014256,1.72,819.2794073,,,,,563,18,Man,Right,
,,,,,,,,,,,,,,,,,563,18,Man,Right,1,39,0.4,2,180,0,0,0.5917025000003377,['y'],0.3271946999998363,1.954,823.0631331,,,,,563,18,Man,Right,
,,,,,,,,,,,,,,,,,563,18,Man,Right,1,60,0.15,1,0,-,180,0.6574752999999873,['y'],0.23852069999975356,1.206,826.6626968999999,,,,,563,18,Man,Right,
,,,,,,,,,,,,,,,,,563,18,Man,Right,1,66,0.15,1,180,-,0,0.7124455000002854,['n'],0.3833472999999685,1.0,833.5625418,,,,,563,18,Man,Right,
,,,,,,,,,,,,,,,,,563,18,Man,Right,1,57,0.15,2,0,180,180,0.6852472000000489,['y'],0.24707730000000083,1.5939999999999999,836.9961331999998,,,,,563,18,Man,Right,
,,,,,,,,,,,,,,,,,563,18,Man,Right,1,19,0.4,2,180,0,0,0.5566909999997733,['y'],0.23089770000024146,1.726,840.1128116999998,,,,,563,18,Man,Right,
,,,,,,,,,,,,,,,,,563,18,Man,Right,1,68,0.15,1,0,-,0,0.8936287999999877,['y'],0.16690999999991618,1.548,843.6125464000002,,,,,563,18,Man,Right,
,,,,,,,,,,,,,,,,,563,18,Man,Right,1,2,1,1,180,-,180,0.6270949999998265,['n'],0.215032500000234,2.0,846.8292363999999,,,,,563,18,Man,Right,
,,,,,,,,,,,,,,,,,563,18,Man,Right,1,36,0.4,1,0,-,0,0.5065212999998039,['n'],0.1430937999998605,2.0,849.7959829000001,,,,,563,18,Man,Right,
,,,,,,,,,,,,,,,,,563,18,Man,Right,1,61,0.15,2,0,180,180,0.538065899999765,['y'],1.7587306000000353,2.0,854.3458129999999,,,,,563,18,Man,Right,
,,,,,,,,,,,,,,,,,563,18,Man,Right,1,28,0.4,1,0,-,0,0.494004600000153,['n'],0.16658559999996214,1.9,857.7791318,,,,,563,18,Man,Right,
,,,,,,,,,,,,,,,,,563,18,Man,Right,1,26,0.4,1,180,-,180,0.5026081999999406,['y'],0.17494080000005852,1.0,861.5625461999998,,,,,563,18,Man,Right,
,,,,,,,,,,,,,,,,,563,18,Man,Right,1,67,0.15,2,180,0,0,1.942464299999756,['y'],0.6231440000001385,2.0,867.4298450000001,,,,,563,18,Man,Right,
,,,,,,,,,,,,,,,,,563,18,Man,Right,1,38,0.4,1,180,-,180,0.6663785000000644,['n'],0.7986457000001792,1.84,871.7630368,,,,,563,18,Man,Right,
,,,,,,,,,,,,,,,,,563,18,Man,Right,1,59,0.15,2,180,0,0,1.228643099999772,['n'],0.2787727999998424,1.616,875.8292695,,,,,563,18,Man,Right,
,,,,,,,,,,,,,,,,,563,18,Man,Right,1,21,0.4,2,0,180,180,0.7645999999999731,['y'],0.26152940000019953,1.77,879.6624255000002,,,,,563,18,Man,Right,
,,,,,,,,,,,,,,,,,563,18,Man,Right,1,58,0.15,1,180,-,0,0.47139870000000883,['y'],0.6388034999999945,1.782,883.7459527000001,,,,,563,18,Man,Right,
,,,,,,,,,,,,,,,,,563,18,Man,Right,1,45,0.15,2,0,180,180,1.6469458000001396,['n'],0.24655799999982264,1.0,887.9792751999998,,,,,563,18,Man,Right,
,,,,,,,,,,,,,,,,,563,18,Man,Right,1,79,0.15,2,180,0,180,0.8607326000001194,['y'],0.35127490000013495,1.572,891.5458964,,,,,563,18,Man,Right,
,,,,,,,,,,,,,,,,,563,18,Man,Right,1,6,1,1,180,-,180,0.5916317999999592,['n'],0.5266802999999527,2.0,894.8790282,,,,,563,18,Man,Right,
,,,,,,,,,,,,,,,,,563,18,Man,Right,1,30,0.4,1,180,-,180,0.6728610000000117,['n'],0.18312070000001768,2.0,897.9456699000002,,,,,563,18,Man,Right,
,,,,,,,,,,,,,,,,,563,18,Man,Right,1,15,0.4,2,180,0,0,0.7410147000000507,['y'],0.5026247000000694,2.0,901.6288666999999,,,,,563,18,Man,Right,
,,,,,,,,,,,,,,,,,563,18,Man,Right,1,63,0.15,2,180,0,0,0.559799699999985,['n'],0.16698070000029475,1.68,904.7958850999999,,,,,563,18,Man,Right,
,,,,,,,,,,,,,,,,,563,18,Man,Right,1,11,0.4,2,180,0,0,0.5967639000000418,['y'],0.24679199999991397,2.0,907.8456820000001,,,,,563,18,Man,Right,
,,,,,,,,,,,,,,,,,563,18,Man,Right,1,71,0.15,2,180,0,0,0.48187830000006215,['y'],0.18276590000004944,2.0,910.6298341000002,,,,,563,18,Man,Right,
,,,,,,,,,,,,,,,,,563,18,Man,Right,1,14,0.4,1,180,-,180,0.5183544999999867,['n'],0.1987011999999595,2.0,913.7621703999998,,,,,563,18,Man,Right,
,,,,,,,,,,,,,,,,,563,18,Man,Right,1,76,0.15,1,0,-,0,0.4282155999999304,['n'],0.27075669999976526,2.0,916.8957736000002,,,,,563,18,Man,Right,
,,,,,,,,,,,,,,,,,563,18,Man,Right,2,40,0.4,1,0,-,0,0.7282783999999083,['n'],0.8797214000001077,2.0,916.8957736000002,87.5,72.5,85.0,,563,18,Man,Right,
,,,,,,,,,,,,,,,,,563,18,Man,Right,2,10,0.4,1,180,-,180,0.34841180000012173,['n'],0.15071939999961614,2.0,942.545505,,,,,563,18,Man,Right,
,,,,,,,,,,,,,,,,,563,18,Man,Right,2,53,0.15,2,0,180,0,0.35931920000030004,['n'],0.14256579999982932,2.0,945.2287387000001,,,,,563,18,Man,Right,
,,,,,,,,,,,,,,,,,563,18,Man,Right,2,8,0.4,1,0,-,0,0.2438721999997142,['n'],0.11069010000028356,2.0,947.7459367000001,,,,,563,18,Man,Right,
,,,,,,,,,,,,,,,,,563,18,Man,Right,2,57,0.15,2,0,180,180,0.5742897000000085,['n'],0.2382511999999224,1.784,951.3787296999999,,,,,563,18,Man,Right,
,,,,,,,,,,,,,,,,,563,18,Man,Right,2,13,0.4,2,0,180,180,0.5029469000000972,['y'],0.1906677000001764,1.84,954.3955446999998,,,,,563,18,Man,Right,
,,,,,,,,,,,,,,,,,563,18,Man,Right,2,77,0.15,2,0,180,180,0.7101674000000457,['y'],0.2628546999999344,1.776,958.0119927999999,,,,,563,18,Man,Right,
,,,,,,,,,,,,,,,,,563,18,Man,Right,2,61,0.15,2,0,180,180,0.548543399999744,['y'],0.22247310000011566,1.762,961.3288431000001,,,,,563,18,Man,Right,
,,,,,,,,,,,,,,,,,563,18,Man,Right,2,72,0.15,1,0,-,0,0.6171419000002061,['n'],0.22220829999969283,1.502,965.1288460000001,,,,,563,18,Man,Right,
,,,,,,,,,,,,,,,,,563,18,Man,Right,2,15,0.4,2,180,0,0,0.37708740000016405,['y'],0.3180144000002656,2.0,968.0454417999999,,,,,563,18,Man,Right,
,,,,,,,,,,,,,,,,,563,18,Man,Right,2,41,0.4,2,0,180,180,0.4909028000001854,['y'],0.22285420000025624,2.0,971.0285773999999,,,,,563,18,Man,Right,
,,,,,,,,,,,,,,,,,563,18,Man,Right,2,64,0.15,1,0,-,0,0.6658593000001929,['n'],0.20669579999957932,1.65,974.2791443000001,,,,,563,18,Man,Right,
,,,,,,,,,,,,,,,,,563,18,Man,Right,2,32,0.4,1,0,-,0,0.650378400000136,['n'],0.1192268999998305,2.0,977.2955615000001,,,,,563,18,Man,Right,
,,,,,,,,,,,,,,,,,563,18,Man,Right,2,33,0.4,2,0,180,180,0.4400861999997687,['y'],0.2065439000002698,1.8639999999999999,980.7952071,,,,,563,18,Man,Right,
,,,,,,,,,,,,,,,,,563,18,Man,Right,2,70,0.15,1,180,-,180,0.5667650999998841,['n'],0.18241889999990235,1.764,983.9951689999998,,,,,563,18,Man,Right,
,,,,,,,,,,,,,,,,,563,18,Man,Right,2,6,1,1,180,-,0,0.8456529000000046,['n'],0.15938390000019353,2.0,987.1956015000001,,,,,563,18,Man,Right,
,,,,,,,,,,,,,,,,,563,18,Man,Right,2,27,0.4,2,180,0,0,2.0258632000000034,['y'],0.22279400000024907,2.0,991.9285261,,,,,563,18,Man,Right,
,,,,,,,,,,,,,,,,,563,18,Man,Right,2,28,0.4,1,0,-,0,0.3990129999997407,['y'],0.23894960000006904,1.0,995.5453699,,,,,563,18,Man,Right,
,,,,,,,,,,,,,,,,,563,18,Man,Right,2,19,0.4,2,180,0,0,0.5816939000001184,['y'],0.30237860000033834,2.0,998.8618442000002,,,,,563,18,Man,Right,
,,,,,,,,,,,,,,,,,563,18,Man,Right,2,50,0.15,1,180,-,180,0.9290528999999879,['n'],0.8791306999996777,2.0,1002.9453690999999,,,,,563,18,Man,Right,
,,,,,,,,,,,,,,,,,563,18,Man,Right,2,37,0.4,2,0,180,180,0.2712778000000071,['y'],0.7588158000003205,2.0,1007.6617931000001,,,,,563,18,Man,Right,
,,,,,,,,,,,,,,,,,563,18,Man,Right,2,23,0.4,2,180,0,0,0.2741135999999642,['y'],0.41463679999969827,2.0,1010.8450151000002,,,,,563,18,Man,Right,
,,,,,,,,,,,,,,,,,563,18,Man,Right,2,76,0.15,1,0,-,180,0.7058529000000817,['n'],1.1510878999997658,1.8639999999999999,1015.6118271999999,,,,,563,18,Man,Right,
,,,,,,,,,,,,,,,,,563,18,Man,Right,2,29,0.4,2,0,180,180,0.5004517000002124,['y'],0.4392818000001171,1.916,1019.1616829999998,,,,,563,18,Man,Right,
,,,,,,,,,,,,,,,,,563,18,Man,Right,2,69,0.15,2,0,180,180,0.3439752999997836,['y'],0.20652229999996052,1.8980000000000001,1021.9617039999998,,,,,563,18,Man,Right,
,,,,,,,,,,,,,,,,,563,18,Man,Right,2,35,0.4,2,180,0,0,0.3117479000002277,['y'],0.1824811999999838,1.876,1024.8450625,,,,,563,18,Man,Right,
,,,,,,,,,,,,,,,,,563,18,Man,Right,2,14,0.4,1,180,-,0,0.3071751000002223,['y'],0.15089080000007016,1.8439999999999999,1027.5616063000002,,,,,563,18,Man,Right,
,,,,,,,,,,,,,,,,,563,18,Man,Right,2,54,0.15,1,180,-,180,0.6470995999998195,['n'],0.43093210000006366,1.8439999999999999,1031.1116416999998,,,,,563,18,Man,Right,
,,,,,,,,,,,,,,,,,563,18,Man,Right,2,25,0.4,2,0,180,180,0.3121971999999005,['y'],0.17503420000002734,1.916,1035.0616402,,,,,563,18,Man,Right,
,,,,,,,,,,,,,,,,,563,18,Man,Right,2,2,1,1,180,-,180,0.337955200000124,['n'],0.5589405000000625,2.0,1038.811573,,,,,563,18,Man,Right,
,,,,,,,,,,,,,,,,,563,18,Man,Right,2,79,0.15,2,180,0,0,0.36466539999992165,['n'],0.15923579999980575,2.0,1041.5118309999998,,,,,563,18,Man,Right,
,,,,,,,,,,,,,,,,,563,18,Man,Right,2,18,0.4,1,180,-,180,0.2719185999999354,['n'],0.15892829999984315,2.0,1045.0124729,,,,,563,18,Man,Right,
,,,,,,,,,,,,,,,,,563,18,Man,Right,2,51,0.15,2,180,0,180,0.46185730000024705,['n'],0.1345907999998417,2.0,1047.8950353,,,,,563,18,Man,Right,
,,,,,,,,,,,,,,,,,563,18,Man,Right,2,43,0.4,2,180,0,0,0.43357319999995525,['y'],0.5351379999997334,2.0,1051.1451357,,,,,563,18,Man,Right,
,,,,,,,,,,,,,,,,,563,18,Man,Right,2,34,0.4,1,180,-,180,0.39735650000011447,['n'],0.1669067999996514,1.784,1054.1457409999998,,,,,563,18,Man,Right,
,,,,,,,,,,,,,,,,,563,18,Man,Right,2,11,0.4,2,180,0,0,0.6706263000000945,['y'],0.16694439999992028,2.0,1057.2457011000001,,,,,563,18,Man,Right,
,,,,,,,,,,,,,,,,,563,18,Man,Right,2,45,0.15,2,0,180,180,1.074384800000189,['n'],0.1425705999999991,1.714,1060.9947745,,,,,563,18,Man,Right,
,,,,,,,,,,,,,,,,,563,18,Man,Right,2,60,0.15,1,0,-,0,1.7889807999999903,['n'],0.1185512000001836,1.476,1065.4280941000002,,,,,563,18,Man,Right,
,,,,,,,,,,,,,,,,,563,18,Man,Right,2,63,0.15,2,180,0,180,0.6510601999998471,['n'],0.1346318999999312,1.3679999999999999,1068.5282250999999,,,,,563,18,Man,Right,
,,,,,,,,,,,,,,,,,563,18,Man,Right,2,20,0.4,1,0,-,0,0.5520071000000826,['n'],0.15156039999965287,1.72,1071.4446871,,,,,563,18,Man,Right,
,,,,,,,,,,,,,,,,,563,18,Man,Right,2,9,0.4,2,0,180,180,0.5935767000000851,['y'],0.17466749999994136,1.822,1074.7614526000002,,,,,563,18,Man,Right,
,,,,,,,,,,,,,,,,,563,18,Man,Right,2,62,0.15,1,180,-,0,1.303005199999916,['n'],0.4068872000002557,1.676,1078.9947791999998,,,,,563,18,Man,Right,
,,,,,,,,,,,,,,,,,563,18,Man,Right,2,36,0.4,1,0,-,0,0.3735919000000649,['n'],0.15047929999991538,1.686,1081.8782603,,,,,563,18,Man,Right,
,,,,,,,,,,,,,,,,,563,18,Man,Right,2,16,0.4,1,0,-,0,0.41794249999975364,['n'],0.13455179999982647,1.708,1085.3113764,,,,,563,18,Man,Right,
,,,,,,,,,,,,,,,,,563,18,Man,Right,2,21,0.4,2,0,180,180,1.3284814999997252,['y'],0.2626394999997501,1.72,1089.8445508,,,,,563,18,Man,Right,
,,,,,,,,,,,,,,,,,563,18,Man,Right,2,78,0.15,1,180,-,180,0.7483830999999554,['n'],0.23882659999981115,1.704,1093.6280034000001,,,,,563,18,Man,Right,
,,,,,,,,,,,,,,,,,563,18,Man,Right,2,38,0.4,1,180,-,180,0.41990480000004027,['n'],0.13455479999993258,1.766,1096.7613139,,,,,563,18,Man,Right,
,,,,,,,,,,,,,,,,,563,18,Man,Right,2,67,0.15,2,180,0,0,0.518822900000032,['y'],1.031445800000256,2.0,1101.9779062000002,,,,,563,18,Man,Right,
,,,,,,,,,,,,,,,,,563,18,Man,Right,2,75,0.15,2,180,0,0,0.9991617000000588,['y'],0.7112209000001712,2.0,1105.8116129,,,,,563,18,Man,Right,
,,,,,,,,,,,,,,,,,563,18,Man,Right,2,52,0.15,1,0,-,0,0.6438290999999481,['n'],0.1665224999997008,1.6059999999999999,1108.9280107999998,,,,,563,18,Man,Right,
,,,,,,,,,,,,,,,,,563,18,Man,Right,2,73,0.15,2,0,180,180,0.6781992999999602,['y'],0.3356634000001577,1.206,1113.2280426000002,,,,,563,18,Man,Right,
,,,,,,,,,,,,,,,,,563,18,Man,Right,2,74,0.15,1,180,-,180,0.5240527999999358,['n'],0.11900710000008985,1.814,1116.1612249,,,,,563,18,Man,Right,
,,,,,,,,,,,,,,,,,563,18,Man,Right,2,68,0.15,1,0,-,0,0.43948230000023614,['n'],0.11881200000016179,1.8980000000000001,1118.9781696999999,,,,,563,18,Man,Right,
,,,,,,,,,,,,,,,,,563,18,Man,Right,2,47,0.15,2,180,0,0,0.4920406000001094,['y'],0.5430720999997902,2.0,1122.2114884000002,,,,,563,18,Man,Right,
,,,,,,,,,,,,,,,,,563,18,Man,Right,2,59,0.15,2,180,0,0,0.41131959999984247,['n'],0.1345760999997765,1.756,1124.9113558,,,,,563,18,Man,Right,
,,,,,,,,,,,,,,,,,563,18,Man,Right,2,5,1,2,0,180,180,0.48077050000028976,['y'],0.23868050000010044,2.0,1129.0112149000001,,,,,563,18,Man,Right,
,,,,,,,,,,,,,,,,,563,18,Man,Right,2,31,0.4,2,180,0,0,0.33970729999964533,['y'],0.16714159999992262,2.0,1131.8114670999998,,,,,563,18,Man,Right,
,,,,,,,,,,,,,,,,,563,18,Man,Right,2,7,1,2,180,0,0,0.26939260000017384,['y'],0.4865893999999571,2.0,1134.7611066999998,,,,,563,18,Man,Right,
,,,,,,,,,,,,,,,,,563,18,Man,Right,2,1,1,2,0,180,180,0.3979343000000881,['y'],0.2865507000001344,2.0,1137.5779601,,,,,563,18,Man,Right,
,,,,,,,,,,,,,,,,,563,18,Man,Right,2,42,0.4,1,180,-,0,4.333494500000143,['n'],0.39648480000005293,1.0,1145.1777514999999,,,,,563,18,Man,Right,
,,,,,,,,,,,,,,,,,563,18,Man,Right,2,17,0.4,2,0,180,180,0.39833839999982956,['y'],0.13495629999988523,2.0,1147.8777667,,,,,563,18,Man,Right,
,,,,,,,,,,,,,,,,,563,18,Man,Right,2,26,0.4,1,180,-,180,0.6243897999997898,['n'],0.1267376000000695,2.0,1150.9113078999999,,,,,563,18,Man,Right,
,,,,,,,,,,,,,,,,,563,18,Man,Right,2,12,0.4,1,0,-,0,0.8947579999999107,['n'],0.16566829999965194,2.0,1154.1611059000002,,,,,563,18,Man,Right,
,,,,,,,,,,,,,,,,,563,18,Man,Right,2,66,0.15,1,180,-,180,1.300643399999899,['n'],0.23077669999975114,1.0,1158.7276886999998,,,,,563,18,Man,Right,
,,,,,,,,,,,,,,,,,563,18,Man,Right,2,24,0.4,1,0,-,0,0.23913330000004862,['n'],0.14296060000015132,2.0,1161.3445714,,,,,563,18,Man,Right,
,,,,,,,,,,,,,,,,,563,18,Man,Right,2,49,0.15,2,0,180,180,1.186385699999846,['n'],0.3428700999998,1.0,1165.5112734,,,,,563,18,Man,Right,
,,,,,,,,,,,,,,,,,563,18,Man,Right,2,44,0.15,1,0,-,0,0.5997902999997677,['n'],0.13496710000026724,1.0,1168.4108949000001,,,,,563,18,Man,Right,
,,,,,,,,,,,,,,,,,563,18,Man,Right,2,71,0.15,2,180,0,180,0.2992135999998027,['n'],0.1269438999997874,1.496,1171.1779043000001,,,,,563,18,Man,Right,
,,,,,,,,,,,,,,,,,563,18,Man,Right,2,65,0.15,2,0,180,0,0.5911857000000964,['n'],0.1347512000002098,1.516,1174.0275172000001,,,,,563,18,Man,Right,
,,,,,,,,,,,,,,,,,563,18,Man,Right,2,22,0.4,1,180,-,180,0.4294181000000208,['n'],0.2306725000003098,1.31,1177.1276128,,,,,563,18,Man,Right,
,,,,,,,,,,,,,,,,,563,18,Man,Right,2,4,1,1,0,-,0,0.375912900000003,['n'],0.1348681999998007,1.63,1180.3109677000002,,,,,563,18,Man,Right,
,,,,,,,,,,,,,,,,,563,18,Man,Right,2,55,0.15,2,180,0,0,0.36851190000015777,['n'],0.10283479999998235,1.6099999999999999,1183.0112134,,,,,563,18,Man,Right,
,,,,,,,,,,,,,,,,,563,18,Man,Right,2,30,0.4,1,180,-,180,0.2848146999999699,['n'],0.11887239999987287,1.604,1185.6608225999998,,,,,563,18,Man,Right,
,,,,,,,,,,,,,,,,,563,18,Man,Right,2,0,1,1,0,-,0,0.2747527000001355,['n'],0.1107600000000275,2.0,1188.2110381000002,,,,,563,18,Man,Right,
,,,,,,,,,,,,,,,,,563,18,Man,Right,2,58,0.15,1,180,-,0,0.5586554999999862,['n'],0.11886759999970309,1.5739999999999998,1190.9774691000002,,,,,563,18,Man,Right,
,,,,,,,,,,,,,,,,,563,18,Man,Right,2,3,1,2,180,0,0,0.6299269000001004,['y'],0.1435540999996192,1.8519999999999999,1194.8941000999998,,,,,563,18,Man,Right,
,,,,,,,,,,,,,,,,,563,18,Man,Right,2,48,0.15,1,0,-,0,0.5059323000000404,['n'],0.11012829999981477,1.584,1197.7607756000002,,,,,563,18,Man,Right,
,,,,,,,,,,,,,,,,,563,18,Man,Right,2,46,0.15,1,180,-,180,1.0387722999998914,['n'],0.1349512000001596,1.548,1201.7609275,,,,,563,18,Man,Right,
,,,,,,,,,,,,,,,,,563,18,Man,Right,2,39,0.4,2,180,0,0,0.46664919999966514,['n'],0.21000180000010005,1.1440000000000001,1205.1941188,,,,,563,18,Man,Right,
,,,,,,,,,,,,,,,,,563,18,Man,Right,2,56,0.15,1,0,-,0,0.6733430000003864,['n'],0.11862029999974766,1.488,1210.9107315,,,,,563,18,Man,Right,
,,,,,,,,,,,,,,,,,563,18,Man,Right,3,60,0.15,1,0,-,0,0.366412500000024,['n'],0.1346654000003582,1.692,1234.9113444999998,86.25,95.0,70.0,,563,18,Man,Right,
,,,,,,,,,,,,,,,,,563,18,Man,Right,3,25,0.4,2,0,180,180,0.6495006999998623,['y'],0.19889149999971778,1.792,1238.0272645,,,,,563,18,Man,Right,
,,,,,,,,,,,,,,,,,563,18,Man,Right,3,33,0.4,2,0,180,180,0.30692309999994905,['y'],0.16664570000011736,1.8860000000000001,1240.7941329999999,,,,,563,18,Man,Right,
,,,,,,,,,,,,,,,,,563,18,Man,Right,3,20,0.4,1,0,-,0,0.37372559999994337,['n'],0.10241929999983768,1.782,1243.4771875000001,,,,,563,18,Man,Right,
,,,,,,,,,,,,,,,,,563,18,Man,Right,3,79,0.15,2,180,0,0,0.36002749999988737,['n'],0.14327789999970264,1.0,1246.6108206,,,,,563,18,Man,Right,
,,,,,,,,,,,,,,,,,563,18,Man,Right,3,7,1,2,180,0,0,1.37765010000021,['y'],0.25452949999998964,1.776,1251.3438424,,,,,563,18,Man,Right,
,,,,,,,,,,,,,,,,,563,18,Man,Right,3,23,0.4,2,180,0,0,0.3090356999996402,['y'],0.18270590000020093,1.774,1254.3274967000002,,,,,563,18,Man,Right,
,,,,,,,,,,,,,,,,,563,18,Man,Right,3,39,0.4,2,180,0,0,0.20883599999979197,['y'],0.13499590000037642,1.744,1256.9440911000002,,,,,563,18,Man,Right,
,,,,,,,,,,,,,,,,,563,18,Man,Right,3,1,1,2,0,180,180,0.43311250000033397,['y'],0.23086620000003677,1.766,1260.0114311000002,,,,,563,18,Man,Right,
,,,,,,,,,,,,,,,,,563,18,Man,Right,3,34,0.4,1,180,-,180,0.5984448000003795,['y'],0.12702579999995578,1.0,1263.5107742999999,,,,,563,18,Man,Right,
,,,,,,,,,,,,,,,,,563,18,Man,Right,3,6,1,1,180,-,180,0.2667464999999538,['n'],0.19002389999968727,2.0,1266.1940296000002,,,,,563,18,Man,Right,
,,,,,,,,,,,,,,,,,563,18,Man,Right,3,66,0.15,1,180,-,180,0.41428029999997307,['y'],0.13488100000040504,1.0,1269.3605048,,,,,563,18,Man,Right,
,,,,,,,,,,,,,,,,,563,18,Man,Right,3,21,0.4,2,0,180,180,0.5675940999999511,['y'],0.12708900000006906,1.908,1272.6606649,,,,,563,18,Man,Right,
,,,,,,,,,,,,,,,,,563,18,Man,Right,3,68,0.15,1,0,-,0,0.9132500000000618,['n'],0.23852720000013505,1.88,1277.2437406,,,,,563,18,Man,Right,
,,,,,,,,,,,,,,,,,563,18,Man,Right,3,17,0.4,2,0,180,180,0.540839600000254,['y'],0.14309879999973418,2.0,1280.5938249,,,,,563,18,Man,Right,
,,,,,,,,,,,,,,,,,563,18,Man,Right,3,71,0.15,2,180,0,180,0.7262948000002325,['n'],0.14322869999978138,1.672,1284.0105767999999,,,,,563,18,Man,Right,
,,,,,,,,,,,,,,,,,563,18,Man,Right,3,43,0.4,2,180,0,0,0.5084547999999813,['y'],0.15873050000027433,1.832,1287.2437196,,,,,563,18,Man,Right,
,,,,,,,,,,,,,,,,,563,18,Man,Right,3,40,0.4,1,0,-,0,0.4929059999999481,['n'],0.2148949000002176,1.806,1290.410586,,,,,563,18,Man,Right,
,,,,,,,,,,,,,,,,,563,18,Man,Right,3,74,0.15,1,180,-,180,0.4383319999997184,['n'],0.19075389999989056,1.748,1293.4272363,,,,,563,18,Man,Right,
,,,,,,,,,,,,,,,,,563,18,Man,Right,3,75,0.15,2,180,0,0,0.6056250999999975,['y'],0.11888610000005428,1.918,1297.4105006,,,,,563,18,Man,Right,
,,,,,,,,,,,,,,,,,563,18,Man,Right,3,70,0.15,1,180,-,0,0.5013613999999507,['n'],0.15129750000005515,1.212,1300.5105804,,,,,563,18,Man,Right,
,,,,,,,,,,,,,,,,,563,18,Man,Right,3,32,0.4,1,0,-,0,0.2730538999999226,['n'],0.14316699999972116,1.7,1303.2602399000002,,,,,563,18,Man,Right,
,,,,,,,,,,,,,,,,,563,18,Man,Right,3,59,0.15,2,180,0,0,0.33996490000026824,['n'],0.14269180000019333,1.766,1305.9770125999999,,,,,563,18,Man,Right,
,,,,,,,,,,,,,,,,,563,18,Man,Right,3,0,1,1,0,-,0,0.5035315000000082,['n'],0.12718409999979485,1.734,1308.8778828999998,,,,,563,18,Man,Right,
,,,,,,,,,,,,,,,,,563,18,Man,Right,3,44,0.15,1,0,-,0,1.7077854000003754,['y'],0.1991598999998132,1.624,1312.9937565999999,,,,,563,18,Man,Right,
,,,,,,,,,,,,,,,,,563,18,Man,Right,3,9,0.4,2,0,180,180,0.7433799000000363,['y'],0.1420034000002488,2.0,1316.827127,,,,,563,18,Man,Right,
,,,,,,,,,,,,,,,,,563,18,Man,Right,3,52,0.15,1,0,-,0,0.5818208999999115,['n'],0.1269563000000744,1.724,1319.6767488,,,,,563,18,Man,Right,
,,,,,,,,,,,,,,,,,563,18,Man,Right,3,55,0.15,2,180,0,0,0.4572431999999935,['n'],0.11098289999972621,1.68,1322.5436014000002,,,,,563,18,Man,Right,
,,,,,,,,,,,,,,,,,563,18,Man,Right,3,5,1,2,0,180,180,0.5291290000000117,['y'],0.13528719999976602,2.0,1325.4111778000001,,,,,563,18,Man,Right,
,,,,,,,,,,,,,,,,,563,18,Man,Right,3,46,0.15,1,180,-,0,1.5579462000000603,['n'],0.158004400000209,1.154,1329.8101118,,,,,563,18,Man,Right,
,,,,,,,,,,,,,,,,,563,18,Man,Right,3,8,0.4,1,0,-,0,0.49371179999980086,['n'],0.20709169999963706,2.0,1332.6271545999998,,,,,563,18,Man,Right,
,,,,,,,,,,,,,,,,,563,18,Man,Right,3,51,0.15,2,180,0,0,0.4534092999997483,['n'],0.1346545999999762,1.544,1335.5100688000002,,,,,563,18,Man,Right,
,,,,,,,,,,,,,,,,,563,18,Man,Right,3,54,0.15,1,180,-,0,0.46609730000000127,['n'],0.1349158000002717,1.544,1338.2769376,,,,,563,18,Man,Right,
,,,,,,,,,,,,,,,,,563,18,Man,Right,3,77,0.15,2,0,180,180,0.6759890999996969,['y'],0.18277370000032533,1.708,1341.5766751,,,,,563,18,Man,Right,
,,,,,,,,,,,,,,,,,563,18,Man,Right,3,47,0.15,2,180,0,0,0.8794848999996248,['n'],0.15058890000000247,1.298,1345.6433144000002,,,,,563,18,Man,Right,
,,,,,,,,,,,,,,,,,563,18,Man,Right,3,16,0.4,1,0,-,0,0.2032864000002519,['n'],0.13506110000025728,1.27,1348.3602133,,,,,563,18,Man,Right,
,,,,,,,,,,,,,,,,,563,18,Man,Right,3,35,0.4,2,180,0,0,0.6047926000001098,['y'],0.3750065999997787,1.982,1351.7602947,,,,,563,18,Man,Right,
,,,,,,,,,,,,,,,,,563,18,Man,Right,3,45,0.15,2,0,180,180,0.535812199999782,['y'],0.12778019999996104,1.544,1354.6939689,,,,,563,18,Man,Right,
,,,,,,,,,,,,,,,,,563,18,Man,Right,3,31,0.4,2,180,0,0,0.9309677999999622,['y'],0.3499553999999989,1.764,1358.3276855,,,,,563,18,Man,Right,
,,,,,,,,,,,,,,,,,563,18,Man,Right,3,4,1,1,0,-,0,0.4407320999998774,['n'],0.15926170000011552,2.0,1361.8766485,,,,,563,18,Man,Right,
,,,,,,,,,,,,,,,,,563,18,Man,Right,3,67,0.15,2,180,0,180,1.1395895999999084,['n'],0.350470100000166,1.6640000000000001,1365.6599329,,,,,563,18,Man,Right,
,,,,,,,,,,,,,,,,,563,18,Man,Right,3,61,0.15,2,0,180,180,0.6780668999999762,['n'],0.1273255999999492,1.744,1369.2101258000002,,,,,563,18,Man,Right,
,,,,,,,,,,,,,,,,,563,18,Man,Right,3,69,0.15,2,0,180,180,0.5486329999998816,['n'],0.1349572000003718,1.6600000000000001,1372.243192,,,,,563,18,Man,Right,
,,,,,,,,,,,,,,,,,563,18,Man,Right,3,53,0.15,2,0,180,0,0.6206234000001132,['n'],0.3667470999998841,1.754,1375.4599225000002,,,,,563,18,Man,Right,
,,,,,,,,,,,,,,,,,563,18,Man,Right,3,19,0.4,2,180,0,180,0.516501000000062,['y'],0.14245789999995395,1.728,1378.2933965000002,,,,,563,18,Man,Right,
,,,,,,,,,,,,,,,,,563,18,Man,Right,3,65,0.15,2,0,180,180,1.7764004999999088,['y'],0.1747295000000122,1.74,1382.5602628000001,,,,,563,18,Man,Right,
,,,,,,,,,,,,,,,,,563,18,Man,Right,3,15,0.4,2,180,0,0,0.4389507999999296,['y'],0.6948439999996481,2.0,1385.860013,,,,,563,18,Man,Right,
,,,,,,,,,,,,,,,,,563,18,Man,Right,3,64,0.15,1,0,-,0,1.0193312999999762,['n'],0.12637850000010076,1.5939999999999999,1389.1598781000002,,,,,563,18,Man,Right,
,,,,,,,,,,,,,,,,,563,18,Man,Right,3,14,0.4,1,180,-,180,0.455540800000108,['n'],0.13527109999995446,1.486,1392.2599916,,,,,563,18,Man,Right,
,,,,,,,,,,,,,,,,,563,18,Man,Right,3,28,0.4,1,0,-,0,0.716554200000246,['n'],1.0867361999999048,2.0,1396.3764713,,,,,563,18,Man,Right,
,,,,,,,,,,,,,,,,,563,18,Man,Right,3,2,1,1,180,-,180,0.294871300000068,['n'],0.1586037999995824,2.0,1398.9601727,,,,,563,18,Man,Right,
,,,,,,,,,,,,,,,,,563,18,Man,Right,3,3,1,2,180,0,0,0.42866460000004736,['y'],0.1433764000003066,2.0,1401.7769026,,,,,563,18,Man,Right,
,,,,,,,,,,,,,,,,,563,18,Man,Right,3,72,0.15,1,0,-,0,0.4531024000002617,['n'],0.13435489999983474,1.762,1404.8763426,,,,,563,18,Man,Right,
,,,,,,,,,,,,,,,,,563,18,Man,Right,3,49,0.15,2,0,180,180,1.3935483000000204,['y'],0.12686269999994693,1.6560000000000001,1409.0931689,,,,,563,18,Man,Right,
,,,,,,,,,,,,,,,,,563,18,Man,Right,3,41,0.4,2,0,180,180,0.5389374999999745,['y'],0.1345408000001953,1.704,1412.4597598999999,,,,,563,18,Man,Right,
,,,,,,,,,,,,,,,,,563,18,Man,Right,3,18,0.4,1,180,-,180,0.6018493000001399,['n'],0.3906600000000253,1.83,1416.1598032000002,,,,,563,18,Man,Right,
,,,,,,,,,,,,,,,,,563,18,Man,Right,3,27,0.4,2,180,0,0,0.3838316000001214,['y'],0.4711014999998042,1.78,1420.2435759,,,,,563,18,Man,Right,
,,,,,,,,,,,,,,,,,563,18,Man,Right,3,26,0.4,1,180,-,180,0.3175046999999722,['n'],0.16692819999980202,2.0,1423.0099357,,,,,563,18,Man,Right,
,,,,,,,,,,,,,,,,,563,18,Man,Right,3,76,0.15,1,0,-,0,0.533157399999709,['n'],0.15868920000002618,1.742,1425.9599557000001,,,,,563,18,Man,Right,
,,,,,,,,,,,,,,,,,563,18,Man,Right,3,37,0.4,2,0,180,180,0.4860825999999179,['y'],0.15083880000020145,1.792,1428.8762622,,,,,563,18,Man,Right,
,,,,,,,,,,,,,,,,,563,18,Man,Right,3,56,0.15,1,0,-,0,0.30633739999984755,['n'],0.10296840000000884,1.788,1431.9262640000002,,,,,563,18,Man,Right,
,,,,,,,,,,,,,,,,,563,18,Man,Right,3,38,0.4,1,180,-,180,0.3767168999997921,['n'],0.1913248000000749,2.0,1434.7595809999998,,,,,563,18,Man,Right,
,,,,,,,,,,,,,,,,,563,18,Man,Right,3,42,0.4,1,180,-,180,0.3757791999996698,['n'],0.10331659999974363,1.91,1437.5100791999998,,,,,563,18,Man,Right,
,,,,,,,,,,,,,,,,,563,18,Man,Right,3,24,0.4,1,0,-,0,0.2186001000000033,['n'],0.11056800000005751,1.922,1440.3432843,,,,,563,18,Man,Right,
,,,,,,,,,,,,,,,,,563,18,Man,Right,3,11,0.4,2,180,0,0,1.0156403000000864,['y'],0.12678060000007463,2.0,1443.6928942,,,,,563,18,Man,Right,
,,,,,,,,,,,,,,,,,563,18,Man,Right,3,36,0.4,1,0,-,0,0.5932760000000599,['n'],0.11875089999966804,2.0,1447.3261547000002,,,,,563,18,Man,Right,
,,,,,,,,,,,,,,,,,563,18,Man,Right,3,22,0.4,1,180,-,180,0.9616606999998112,['n'],0.18233250000002954,1.8900000000000001,1450.6265865,,,,,563,18,Man,Right,
,,,,,,,,,,,,,,,,,563,18,Man,Right,3,12,0.4,1,0,-,0,0.4764157999998133,['n'],0.1419810000002144,1.588,1453.5261355000002,,,,,563,18,Man,Right,
,,,,,,,,,,,,,,,,,563,18,Man,Right,3,57,0.15,2,0,180,180,0.750778299999638,['y'],0.28972539999995206,1.158,1456.9596929,,,,,563,18,Man,Right,
,,,,,,,,,,,,,,,,,563,18,Man,Right,3,62,0.15,1,180,-,180,0.5115117000000282,['n'],0.5109117000001788,1.562,1460.4094045000002,,,,,563,18,Man,Right,
,,,,,,,,,,,,,,,,,563,18,Man,Right,3,50,0.15,1,180,-,180,0.3583035000001473,['n'],0.14300039999989167,1.516,1463.1761815,,,,,563,18,Man,Right,
,,,,,,,,,,,,,,,,,563,18,Man,Right,3,10,0.4,1,180,-,180,0.24808010000015202,['n'],0.0945795000002363,1.588,1465.7761635000002,,,,,563,18,Man,Right,
,,,,,,,,,,,,,,,,,563,18,Man,Right,3,63,0.15,2,180,0,0,1.7419184999998834,['y'],0.12669019999975717,1.542,1470.0432623000002,,,,,563,18,Man,Right,
,,,,,,,,,,,,,,,,,563,18,Man,Right,3,48,0.15,1,0,-,0,0.4291616000000431,['n'],0.10288059999993493,1.31,1473.0427411,,,,,563,18,Man,Right,
,,,,,,,,,,,,,,,,,563,18,Man,Right,3,73,0.15,2,0,180,180,0.3716688999998041,['n'],2.287152200000037,1.52,1478.4426909,,,,,563,18,Man,Right,
,,,,,,,,,,,,,,,,,563,18,Man,Right,3,78,0.15,1,180,-,180,0.2858411000001979,['n'],0.15018389999977444,1.52,1478.4426909,,,,,563,18,Man,Right,
,,,,,,,,,,,,,,,,,563,18,Man,Right,3,58,0.15,1,180,-,180,0.5595809000001282,['n'],0.11041049999994357,1.784,1484.7259892000002,,,,,563,18,Man,Right,
,,,,,,,,,,,,,,,,,563,18,Man,Right,3,29,0.4,2,0,180,180,0.7370725000000675,['y'],0.13472580000006928,1.84,1488.4093075,,,,,563,18,Man,Right,
,,,,,,,,,,,,,,,,,563,18,Man,Right,3,30,0.4,1,180,-,180,0.48653109999986555,['n'],0.18219429999999193,1.8900000000000001,1491.2095617999998,,,,,563,18,Man,Right,
,,,,,,,,,,,,,,,,,563,18,Man,Right,3,13,0.4,2,0,180,180,0.7652098000003207,['y'],0.16634819999990214,2.0,1494.6259931,,,,,563,18,Man,Right,
,,,,,,,,,,,,,,,,,563,18,Man,Right,4,29,0.4,2,0,180,180,0.5085392999999385,['y'],0.1504453000002286,1.732,1506.9099803,91.25,92.5,72.5,,563,18,Man,Right,
,,,,,,,,,,,,,,,,,563,18,Man,Right,4,4,1,1,0,-,0,0.20933930000001055,['n'],0.1112500999997792,2.0,1509.4262291999999,,,,,563,18,Man,Right,
,,,,,,,,,,,,,,,,,563,18,Man,Right,4,12,0.4,1,0,-,0,1.3575214999996206,['n'],0.20654659999991054,2.0,1513.1935025000002,,,,,563,18,Man,Right,
,,,,,,,,,,,,,,,,,563,18,Man,Right,4,0,1,1,0,-,0,0.2691727000001265,['n'],0.13447919999998703,2.0,1515.8925021999999,,,,,563,18,Man,Right,
,,,,,,,,,,,,,,,,,563,18,Man,Right,4,78,0.15,1,180,-,180,0.2807600999999522,['n'],0.11900659999992058,1.532,1519.0260426,,,,,563,18,Man,Right,
,,,,,,,,,,,,,,,,,563,18,Man,Right,4,53,0.15,2,0,180,0,0.22267190000002302,['n'],0.14294889999973748,1.626,1521.5257717999998,,,,,563,18,Man,Right,
,,,,,,,,,,,,,,,,,563,18,Man,Right,4,28,0.4,1,0,-,0,0.4409075000003213,['n'],0.13477309999962017,1.726,1524.3591124,,,,,563,18,Man,Right,
,,,,,,,,,,,,,,,,,563,18,Man,Right,4,33,0.4,2,0,180,180,0.32119779999993625,['y'],0.20648820000042178,1.672,1527.4592692,,,,,563,18,Man,Right,
,,,,,,,,,,,,,,,,,563,18,Man,Right,4,32,0.4,1,0,-,0,0.21206819999997606,['n'],0.11116459999993822,1.742,1530.0924538,,,,,563,18,Man,Right,
,,,,,,,,,,,,,,,,,563,18,Man,Right,4,73,0.15,2,0,180,180,0.7475758999999016,['y'],0.2221377000000757,1.702,1533.6423902000001,,,,,563,18,Man,Right,
,,,,,,,,,,,,,,,,,563,18,Man,Right,4,51,0.15,2,180,0,0,0.4987605999999687,['y'],0.19945000000006985,1.764,1536.7424268999998,,,,,563,18,Man,Right,
,,,,,,,,,,,,,,,,,563,18,Man,Right,4,63,0.15,2,180,0,0,0.5771970999999212,['n'],1.2387856999998803,1.766,1541.1092449000002,,,,,563,18,Man,Right,
,,,,,,,,,,,,,,,,,563,18,Man,Right,4,35,0.4,2,180,0,0,0.5620871999999508,['y'],0.15083830000003218,1.814,1544.5256674000002,,,,,563,18,Man,Right,
,,,,,,,,,,,,,,,,,563,18,Man,Right,4,13,0.4,2,0,180,180,0.4186847000000853,['y'],0.15826509999988048,1.708,1547.8922945,,,,,563,18,Man,Right,
,,,,,,,,,,,,,,,,,563,18,Man,Right,4,2,1,1,180,-,180,0.41144420000000537,['n'],0.14323979999971925,1.714,1552.7257251,,,,,563,18,Man,Right,
,,,,,,,,,,,,,,,,,563,18,Man,Right,4,61,0.15,2,0,180,0,1.4640650000001187,['n'],0.10296659999994517,1.362,1556.6259129999999,,,,,563,18,Man,Right,
,,,,,,,,,,,,,,,,,563,18,Man,Right,4,55,0.15,2,180,0,180,0.40594400000009045,['n'],0.11935369999991963,1.49,1559.4590272,,,,,563,18,Man,Right,
,,,,,,,,,,,,,,,,,563,18,Man,Right,4,14,0.4,1,180,-,180,0.3162798999996994,['n'],0.11959600000000137,1.764,1562.1088473999998,,,,,563,18,Man,Right,
,,,,,,,,,,,,,,,,,563,18,Man,Right,4,62,0.15,1,180,-,180,0.5693713000000571,['n'],0.134919500000251,1.874,1565.0423779000002,,,,,563,18,Man,Right,
,,,,,,,,,,,,,,,,,563,18,Man,Right,4,8,0.4,1,0,-,0,0.4532779999999548,['n'],0.11853370000017094,1.488,1568.1422831,,,,,563,18,Man,Right,
,,,,,,,,,,,,,,,,,563,18,Man,Right,4,69,0.15,2,0,180,180,0.6688697999998112,['y'],0.15933580000000802,1.308,1571.4255452000002,,,,,563,18,Man,Right,
,,,,,,,,,,,,,,,,,563,18,Man,Right,4,17,0.4,2,0,180,180,0.44564919999993435,['y'],0.1908502999999655,2.0,1574.575546,,,,,563,18,Man,Right,
,,,,,,,,,,,,,,,,,563,18,Man,Right,4,18,0.4,1,180,-,180,0.7898156999999628,['n'],0.09478109999963635,2.0,1577.8755858,,,,,563,18,Man,Right,
,,,,,,,,,,,,,,,,,563,18,Man,Right,4,22,0.4,1,180,-,180,0.37234870000020237,['n'],0.10259820000010222,2.0,1580.5757426999999,,,,,563,18,Man,Right,
,,,,,,,,,,,,,,,,,563,18,Man,Right,4,52,0.15,1,0,-,0,0.3495529000001625,['n'],0.13499780000029205,2.0,1583.3589381000002,,,,,563,18,Man,Right,
,,,,,,,,,,,,,,,,,563,18,Man,Right,4,21,0.4,2,0,180,180,0.47967130000006364,['y'],0.5914573000000019,1.71,1586.9921375,,,,,563,18,Man,Right,
,,,,,,,,,,,,,,,,,563,18,Man,Right,4,30,0.4,1,180,-,180,0.36041400000021895,['n'],0.16662010000027294,2.0,1589.6921350000002,,,,,563,18,Man,Right,
,,,,,,,,,,,,,,,,,563,18,Man,Right,4,10,0.4,1,180,-,0,0.5703739000000496,['n'],0.11921369999981835,1.07,1592.7755184000002,,,,,563,18,Man,Right,
,,,,,,,,,,,,,,,,,563,18,Man,Right,4,27,0.4,2,180,0,0,0.5605011000002378,['y'],0.1906036000000313,1.836,1596.1259132,,,,,563,18,Man,Right,
,,,,,,,,,,,,,,,,,563,18,Man,Right,4,39,0.4,2,180,0,0,0.3074065000000701,['y'],0.22253050000017538,1.8820000000000001,1598.9087645999998,,,,,563,18,Man,Right,
,,,,,,,,,,,,,,,,,563,18,Man,Right,4,45,0.15,2,0,180,0,0.4596846999997979,['n'],0.1269027999996979,2.0,1601.69202,,,,,563,18,Man,Right,
,,,,,,,,,,,,,,,,,563,18,Man,Right,4,56,0.15,1,0,-,0,1.2184320999999727,['y'],0.4306667999999263,1.036,1605.7921583000002,,,,,563,18,Man,Right,
,,,,,,,,,,,,,,,,,563,18,Man,Right,4,68,0.15,1,0,-,0,0.24370839999983218,['n'],0.13529010000002017,1.542,1608.4257978,,,,,563,18,Man,Right,
,,,,,,,,,,,,,,,,,563,18,Man,Right,4,20,0.4,1,0,-,0,0.22305199999982506,['n'],0.11894000000029337,1.736,1610.8921191999998,,,,,563,18,Man,Right,
,,,,,,,,,,,,,,,,,563,18,Man,Right,4,3,1,2,180,0,0,0.4834485000001223,['y'],0.1426278000003549,1.772,1613.6586305,,,,,563,18,Man,Right,
,,,,,,,,,,,,,,,,,563,18,Man,Right,4,41,0.4,2,0,180,180,0.4879406000000017,['y'],0.17482590000008713,2.0,1616.6253645000002,,,,,563,18,Man,Right,
,,,,,,,,,,,,,,,,,563,18,Man,Right,4,9,0.4,2,0,180,180,0.31780269999990196,['y'],0.14316250000001673,1.812,1619.4753013,,,,,563,18,Man,Right,
,,,,,,,,,,,,,,,,,563,18,Man,Right,4,59,0.15,2,180,0,0,1.0106218000000808,['y'],0.4786151000002974,1.134,1624.575381,,,,,563,18,Man,Right,
,,,,,,,,,,,,,,,,,563,18,Man,Right,4,72,0.15,1,0,-,0,0.2978234000001976,['n'],0.09483649999992849,1.754,1627.875336,,,,,563,18,Man,Right,
,,,,,,,,,,,,,,,,,563,18,Man,Right,4,26,0.4,1,180,-,180,0.6674039999998058,['n'],0.13504809999994905,1.722,1630.9919714000002,,,,,563,18,Man,Right,
,,,,,,,,,,,,,,,,,563,18,Man,Right,4,79,0.15,2,180,0,180,2.2275415000003704,['y'],0.16653200000018842,1.172,1635.6088564000001,,,,,563,18,Man,Right,
,,,,,,,,,,,,,,,,,563,18,Man,Right,4,75,0.15,2,180,0,0,0.6698968999999124,['n'],0.11873449999984587,1.0,1638.6585874000002,,,,,563,18,Man,Right,
,,,,,,,,,,,,,,,,,563,18,Man,Right,4,50,0.15,1,180,-,0,0.3885773000001791,['n'],0.11888850000013917,1.6560000000000001,1641.3418571000002,,,,,563,18,Man,Right,
,,,,,,,,,,,,,,,,,563,18,Man,Right,4,48,0.15,1,0,-,0,0.39247489999979734,['n'],0.11039589999973032,1.474,1644.9253153,,,,,563,18,Man,Right,
,,,,,,,,,,,,,,,,,563,18,Man,Right,4,7,1,2,180,0,0,0.6058813999998165,['y'],0.142785499999718,1.828,1648.441879,,,,,563,18,Man,Right,
,,,,,,,,,,,,,,,,,563,18,Man,Right,4,15,0.4,2,180,0,0,0.645173800000066,['y'],0.12695559999974648,1.0,1651.7752162000002,,,,,563,18,Man,Right,
,,,,,,,,,,,,,,,,,563,18,Man,Right,4,66,0.15,1,180,-,180,1.5507496000000174,['n'],0.15876169999955891,1.278,1656.2750959999998,,,,,563,18,Man,Right,
,,,,,,,,,,,,,,,,,563,18,Man,Right,4,38,0.4,1,180,-,180,0.309257300000354,['n'],0.15106009999999515,2.0,1659.1418047000002,,,,,563,18,Man,Right,
,,,,,,,,,,,,,,,,,563,18,Man,Right,4,6,1,1,180,-,180,0.17599799999970855,['n'],0.1189049999998133,2.0,1661.741833,,,,,563,18,Man,Right,
,,,,,,,,,,,,,,,,,563,18,Man,Right,4,24,0.4,1,0,-,0,0.25667920000023514,['n'],0.08648859999993874,2.0,1664.3083712000002,,,,,563,18,Man,Right,
,,,,,,,,,,,,,,,,,563,18,Man,Right,4,60,0.15,1,0,-,0,0.16847369999959483,['n'],0.14294299999983195,1.988,1666.8085861999998,,,,,563,18,Man,Right,
,,,,,,,,,,,,,,,,,563,18,Man,Right,4,46,0.15,1,180,-,180,0.3333984999999302,['n'],0.1669264000001931,1.25,1669.7917684,,,,,563,18,Man,Right,
,,,,,,,,,,,,,,,,,563,18,Man,Right,4,1,1,2,0,180,180,0.32100949999994555,['y'],0.11068939999995564,2.0,1672.8593104000001,,,,,563,18,Man,Right,
,,,,,,,,,,,,,,,,,563,18,Man,Right,4,67,0.15,2,180,0,180,0.5236565000000155,['n'],0.1346563000001879,1.238,1675.9751818,,,,,563,18,Man,Right,
,,,,,,,,,,,,,,,,,563,18,Man,Right,4,49,0.15,2,0,180,0,0.24909100000013495,['n'],0.11078180000004068,1.762,1678.4586077,,,,,563,18,Man,Right,
,,,,,,,,,,,,,,,,,563,18,Man,Right,4,47,0.15,2,180,0,0,0.2937587999999778,['n'],0.11073570000007749,1.6219999999999999,1680.9917005000002,,,,,563,18,Man,Right,
,,,,,,,,,,,,,,,,,563,18,Man,Right,4,34,0.4,1,180,-,180,0.2728142000000844,['n'],0.11101950000011129,1.718,1683.541627,,,,,563,18,Man,Right,
,,,,,,,,,,,,,,,,,563,18,Man,Right,4,16,0.4,1,0,-,0,0.2512010000000373,['n'],0.10244990000001053,2.0,1685.9417373,,,,,563,18,Man,Right,
,,,,,,,,,,,,,,,,,563,18,Man,Right,4,71,0.15,2,180,0,0,0.7195203999999649,['n'],0.15888559999984864,2.0,1688.925084,,,,,563,18,Man,Right,
,,,,,,,,,,,,,,,,,563,18,Man,Right,4,57,0.15,2,0,180,0,0.19392139999990832,['n'],0.14292770000020028,2.0,1691.4582767000002,,,,,563,18,Man,Right,
,,,,,,,,,,,,,,,,,563,18,Man,Right,4,77,0.15,2,0,180,0,0.22968029999992723,['n'],0.10204969999995228,2.0,1693.9250874,,,,,563,18,Man,Right,
,,,,,,,,,,,,,,,,,563,18,Man,Right,4,5,1,2,0,180,180,0.48366390000001047,['y'],0.21969750000016575,2.0,1696.8416925000001,,,,,563,18,Man,Right,
,,,,,,,,,,,,,,,,,563,18,Man,Right,4,64,0.15,1,0,-,0,0.2215393999999833,['n'],0.10289909999983138,2.0,1699.2584581,,,,,563,18,Man,Right,
,,,,,,,,,,,,,,,,,563,18,Man,Right,4,58,0.15,1,180,-,180,0.5401182999999037,['n'],0.4792194000001473,1.772,1702.8416121999999,,,,,563,18,Man,Right,
,,,,,,,,,,,,,,,,,563,18,Man,Right,4,65,0.15,2,0,180,180,1.0229324000001725,['y'],0.11919339999985823,1.0,1706.7416598,,,,,563,18,Man,Right,
,,,,,,,,,,,,,,,,,563,18,Man,Right,4,11,0.4,2,180,0,0,0.46435269999983575,['y'],0.1511184000000867,2.0,1709.6085845000002,,,,,563,18,Man,Right,
,,,,,,,,,,,,,,,,,563,18,Man,Right,4,70,0.15,1,180,-,180,0.3029790000000503,['y'],0.1268209999998362,1.0,1712.7082111,,,,,563,18,Man,Right,
,,,,,,,,,,,,,,,,,563,18,Man,Right,4,31,0.4,2,180,0,0,0.4759997999999541,['n'],0.13454809999984718,2.0,1715.4581807999998,,,,,563,18,Man,Right,
,,,,,,,,,,,,,,,,,563,18,Man,Right,4,23,0.4,2,180,0,0,0.699840199999926,['y'],0.14268029999993814,1.738,1718.7248791000002,,,,,563,18,Man,Right,
,,,,,,,,,,,,,,,,,563,18,Man,Right,4,76,0.15,1,0,-,0,0.13130129999990459,['n'],0.11861379999982091,2.0,1721.4414534000002,,,,,563,18,Man,Right,
,,,,,,,,,,,,,,,,,563,18,Man,Right,4,54,0.15,1,180,-,180,0.4135284999997566,['n'],0.6073682999999619,1.736,1724.8083284,,,,,563,18,Man,Right,
,,,,,,,,,,,,,,,,,563,18,Man,Right,4,19,0.4,2,180,0,0,0.4956185999999434,['y'],0.11892489999991085,1.954,1728.2758640000002,,,,,563,18,Man,Right,
,,,,,,,,,,,,,,,,,563,18,Man,Right,4,44,0.15,1,0,-,0,0.4121494999999413,['n'],0.12636689999999362,1.748,1730.9581282,,,,,563,18,Man,Right,
,,,,,,,,,,,,,,,,,563,18,Man,Right,4,25,0.4,2,0,180,180,0.7132309999997233,['y'],0.29476999999997133,1.81,1735.2580633000002,,,,,563,18,Man,Right,
,,,,,,,,,,,,,,,,,563,18,Man,Right,4,42,0.4,1,180,-,180,0.37481979999984105,['n'],0.16720540000005712,1.8639999999999999,1738.7915508,,,,,563,18,Man,Right,
,,,,,,,,,,,,,,,,,563,18,Man,Right,4,36,0.4,1,0,-,0,0.1284934999998768,['n'],0.13498200000003635,1.842,1741.4090460000002,,,,,563,18,Man,Right,
,,,,,,,,,,,,,,,,,563,18,Man,Right,4,74,0.15,1,180,-,180,0.7883522000001904,['n'],0.1268752000000859,1.4,1744.9413126999998,,,,,563,18,Man,Right,
,,,,,,,,,,,,,,,,,563,18,Man,Right,4,43,0.4,2,180,0,0,0.5199189999998453,['y'],0.1667051000003994,1.654,1747.9246575000002,,,,,563,18,Man,Right,
,,,,,,,,,,,,,,,,,563,18,Man,Right,4,37,0.4,2,0,180,180,0.48255040000003646,['y'],0.13456889999997657,1.796,1750.7913641,,,,,563,18,Man,Right,
,,,,,,,,,,,,,,,,,563,18,Man,Right,4,40,0.4,1,0,-,0,0.3195112999997036,['n'],0.15090690000033646,1.8519999999999999,1753.4413424,,,,,563,18,Man,Right,
,,,,,,,,,,,,,,,,,563,18,Man,Right,5,72,0.15,1,0,-,0,0.11390040000014778,['n'],0.11095879999993485,2.0,1758.8249446999998,86.25,95.0,67.5,,563,18,Man,Right,
,,,,,,,,,,,,,,,,,563,18,Man,Right,5,4,1,1,0,-,0,0.1098824999999124,['n'],0.1339495000001989,2.0,1761.2079469,,,,,563,18,Man,Right,
,,,,,,,,,,,,,,,,,563,18,Man,Right,5,44,0.15,1,0,-,0,0.318193600000086,['n'],0.10293289999981425,2.0,1763.7080305,,,,,563,18,Man,Right,
,,,,,,,,,,,,,,,,,563,18,Man,Right,5,9,0.4,2,0,180,180,0.4905234999996537,['y'],0.16666780000014114,2.0,1766.4579330000001,,,,,563,18,Man,Right,
,,,,,,,,,,,,,,,,,563,18,Man,Right,5,29,0.4,2,0,180,180,0.4045250999997734,['y'],0.1270134000001235,2.0,1769.1412745000002,,,,,563,18,Man,Right,
,,,,,,,,,,,,,,,,,563,18,Man,Right,5,12,0.4,1,0,-,0,0.2661143999998785,['n'],0.11023489999979574,2.0,1771.6581249,,,,,563,18,Man,Right,
,,,,,,,,,,,,,,,,,563,18,Man,Right,5,13,0.4,2,0,180,180,0.34894020000001547,['y'],0.15835889999971187,2.0,1774.2752847000002,,,,,563,18,Man,Right,
,,,,,,,,,,,,,,,,,563,18,Man,Right,5,67,0.15,2,180,0,0,0.3150384999999005,['n'],0.12752790000013192,1.752,1776.9581625,,,,,563,18,Man,Right,
,,,,,,,,,,,,,,,,,563,18,Man,Right,5,27,0.4,2,180,0,0,0.5848182999998244,['y'],0.11862459999974817,1.75,1780.1745669000002,,,,,563,18,Man,Right,
,,,,,,,,,,,,,,,,,563,18,Man,Right,5,6,1,1,180,-,180,0.282269400000132,['n'],0.14234399999986636,1.8780000000000001,1783.0249435,,,,,563,18,Man,Right,
,,,,,,,,,,,,,,,,,563,18,Man,Right,5,63,0.15,2,180,0,180,0.2151030999998511,['n'],0.1423359000000346,1.816,1786.2578420999998,,,,,563,18,Man,Right,
,,,,,,,,,,,,,,,,,563,18,Man,Right,5,7,1,2,180,0,0,0.27908549999983734,['y'],0.13499079999974128,1.764,1788.7754822000002,,,,,563,18,Man,Right,
,,,,,,,,,,,,,,,,,563,18,Man,Right,5,42,0.4,1,180,-,180,0.40792899999996735,['n'],0.14272010000013324,1.942,1791.5745471999999,,,,,563,18,Man,Right,
,,,,,,,,,,,,,,,,,563,18,Man,Right,5,24,0.4,1,0,-,0,0.38390560000016194,['n'],0.13466749999997774,1.8559999999999999,1794.2411204,,,,,563,18,Man,Right,
,,,,,,,,,,,,,,,,,563,18,Man,Right,5,25,0.4,2,0,180,180,1.1098391000000447,['y'],0.14281320000009146,1.884,1798.4577442999998,,,,,563,18,Man,Right,
,,,,,,,,,,,,,,,,,563,18,Man,Right,5,50,0.15,1,180,-,180,0.29321489999983896,['n'],0.21467379999967307,1.75,1801.058087,,,,,563,18,Man,Right,
,,,,,,,,,,,,,,,,,563,18,Man,Right,5,30,0.4,1,180,-,180,0.18846299999995608,['n'],0.10294029999977283,2.0,1803.4744673,,,,,563,18,Man,Right,
,,,,,,,,,,,,,,,,,563,18,Man,Right,5,61,0.15,2,0,180,180,0.6675558000001729,['y'],0.1504546000001028,1.6680000000000001,1806.6909986,,,,,563,18,Man,Right,
,,,,,,,,,,,,,,,,,563,18,Man,Right,5,0,1,1,0,-,0,0.07562320000033651,['n'],0.150435799999741,2.0,1809.0412157,,,,,563,18,Man,Right,
,,,,,,,,,,,,,,,,,563,18,Man,Right,5,77,0.15,2,0,180,180,0.7820635999996739,['y'],0.15851149999980407,1.3,1812.2743421999999,,,,,563,18,Man,Right,
,,,,,,,,,,,,,,,,,563,18,Man,Right,5,34,0.4,1,180,-,180,0.1318183999997018,['n'],0.14291279999997641,2.0,1814.7243198,,,,,563,18,Man,Right,
,,,,,,,,,,,,,,,,,563,18,Man,Right,5,56,0.15,1,0,-,0,0.2515299000001505,['n'],0.13452049999978044,2.0,1817.1910897000002,,,,,563,18,Man,Right,
,,,,,,,,,,,,,,,,,563,18,Man,Right,5,37,0.4,2,0,180,180,0.5831057000000328,['y'],0.22322780000013154,1.686,1820.1411824000002,,,,,563,18,Man,Right,
,,,,,,,,,,,,,,,,,563,18,Man,Right,5,64,0.15,1,0,-,0,0.1925507999999354,['n'],0.11145859999987806,1.6680000000000001,1822.6078564999998,,,,,563,18,Man,Right,
,,,,,,,,,,,,,,,,,563,18,Man,Right,5,54,0.15,1,180,-,0,0.2619606000002932,['n'],0.11891579999974056,1.6480000000000001,1825.1584898,,,,,563,18,Man,Right,
,,,,,,,,,,,,,,,,,563,18,Man,Right,5,71,0.15,2,180,0,0,0.12172079999982088,['n'],0.13440170000012586,1.732,1827.5242025000002,,,,,563,18,Man,Right,
,,,,,,,,,,,,,,,,,563,18,Man,Right,5,3,1,2,180,0,0,0.3380555999997341,['y'],0.1670733000000837,1.916,1830.0910006,,,,,563,18,Man,Right,
,,,,,,,,,,,,,,,,,563,18,Man,Right,5,5,1,2,0,180,180,0.37087160000010044,['y'],0.12650989999974627,1.76,1832.7586975,,,,,563,18,Man,Right,
,,,,,,,,,,,,,,,,,563,18,Man,Right,5,65,0.15,2,0,180,0,0.24927969999998822,['n'],0.1024251999997432,1.6099999999999999,1835.2408710999998,,,,,563,18,Man,Right,
,,,,,,,,,,,,,,,,,563,18,Man,Right,5,40,0.4,1,0,-,0,0.35620979999976043,['n'],0.11860190000015791,1.732,1837.8912412,,,,,563,18,Man,Right,
,,,,,,,,,,,,,,,,,563,18,Man,Right,5,22,0.4,1,180,-,180,0.3793236999999863,['y'],0.11887010000009468,1.08,1841.2076502999998,,,,,563,18,Man,Right,
,,,,,,,,,,,,,,,,,563,18,Man,Right,5,15,0.4,2,180,0,0,0.6310409000002437,['y'],0.16682760000003327,1.08,1841.2076502999998,,,,,563,18,Man,Right,
,,,,,,,,,,,,,,,,,563,18,Man,Right,5,47,0.15,2,180,0,180,0.8567167000001064,['n'],0.12685580000015761,1.488,1848.7240922,,,,,563,18,Man,Right,
,,,,,,,,,,,,,,,,,563,18,Man,Right,5,48,0.15,1,0,-,0,1.3476347999999234,['n'],0.27864950000002864,1.8719999999999999,1853.1409969000001,,,,,563,18,Man,Right,
,,,,,,,,,,,,,,,,,563,18,Man,Right,5,78,0.15,1,180,-,180,0.27537379999967015,['n'],0.11883140000009007,1.748,1855.5749621,,,,,563,18,Man,Right,
,,,,,,,,,,,,,,,,,563,18,Man,Right,5,19,0.4,2,180,0,0,0.5292268000002878,['y'],0.11887690000003204,1.722,1858.3075153999998,,,,,563,18,Man,Right,
,,,,,,,,,,,,,,,,,563,18,Man,Right,5,10,0.4,1,180,-,180,0.5540685000000849,['n'],0.17547659999991083,1.6680000000000001,1861.9078544,,,,,563,18,Man,Right,
,,,,,,,,,,,,,,,,,563,18,Man,Right,5,36,0.4,1,0,-,0,0.2920966000001499,['n'],0.11880299999984345,1.676,1864.6907678000002,,,,,563,18,Man,Right,
,,,,,,,,,,,,,,,,,563,18,Man,Right,5,11,0.4,2,180,0,0,1.3102225000002363,['y'],0.27124830000002476,1.82,1868.6410316000001,,,,,563,18,Man,Right,
,,,,,,,,,,,,,,,,,563,18,Man,Right,5,55,0.15,2,180,0,0,0.46586619999970935,['y'],0.13484870000002047,1.904,1872.8910138,,,,,563,18,Man,Right,
,,,,,,,,,,,,,,,,,563,18,Man,Right,5,38,0.4,1,180,-,180,0.3531834999998864,['n'],0.15856979999989562,1.858,1875.9576701,,,,,563,18,Man,Right,
,,,,,,,,,,,,,,,,,563,18,Man,Right,5,23,0.4,2,180,0,0,0.45060719999992216,['y'],0.16664810000020225,1.702,1878.740679,,,,,563,18,Man,Right,
,,,,,,,,,,,,,,,,,563,18,Man,Right,5,20,0.4,1,0,-,0,0.09745130000010249,['n'],0.1432057000001805,1.766,1881.1239862000002,,,,,563,18,Man,Right,
,,,,,,,,,,,,,,,,,563,18,Man,Right,5,17,0.4,2,0,180,180,0.4021443999999974,['y'],0.15091540000003079,1.826,1883.8741134000002,,,,,563,18,Man,Right,
,,,,,,,,,,,,,,,,,563,18,Man,Right,5,33,0.4,2,0,180,180,0.6136400000000322,['y'],0.1752345999998397,1.8,1886.7575739,,,,,563,18,Man,Right,
,,,,,,,,,,,,,,,,,563,18,Man,Right,5,76,0.15,1,0,-,0,0.20693039999969187,['n'],0.11895349999986138,1.76,1889.2742088,,,,,563,18,Man,Right,
,,,,,,,,,,,,,,,,,563,18,Man,Right,5,16,0.4,1,0,-,0,0.33821179999995366,['n'],0.1750648000002002,1.8439999999999999,1891.941574,,,,,563,18,Man,Right,
,,,,,,,,,,,,,,,,,563,18,Man,Right,5,49,0.15,2,0,180,180,0.737749200000053,['n'],0.11823619999995572,1.324,1895.5572788,,,,,563,18,Man,Right,
,,,,,,,,,,,,,,,,,563,18,Man,Right,5,73,0.15,2,0,180,180,0.5615425000000869,['y'],0.3912342999997236,1.516,1899.2239608999998,,,,,563,18,Man,Right,
,,,,,,,,,,,,,,,,,563,18,Man,Right,5,46,0.15,1,180,-,0,0.6557515999998031,['n'],0.09490090000008422,1.3719999999999999,1902.2405837000001,,,,,563,18,Man,Right,
,,,,,,,,,,,,,,,,,563,18,Man,Right,5,8,0.4,1,0,-,0,0.19893640000009327,['n'],0.11093660000005912,1.87,1904.7740365999998,,,,,563,18,Man,Right,
,,,,,,,,,,,,,,,,,563,18,Man,Right,5,62,0.15,1,180,-,0,0.17665279999982886,['n'],0.10293610000007902,2.0,1907.1909242000002,,,,,563,18,Man,Right,
,,,,,,,,,,,,,,,,,563,18,Man,Right,5,51,0.15,2,180,0,0,0.0870241000002352,['n'],0.14305570000033185,1.968,1909.6083139000002,,,,,563,18,Man,Right,
,,,,,,,,,,,,,,,,,563,18,Man,Right,5,70,0.15,1,180,-,0,0.23893490000000384,['n'],0.12798099999963597,2.0,1912.0574074,,,,,563,18,Man,Right,
,,,,,,,,,,,,,,,,,563,18,Man,Right,5,21,0.4,2,0,180,180,0.5006680000001325,['y'],0.21498010000004797,1.884,1915.6905212000001,,,,,563,18,Man,Right,
,,,,,,,,,,,,,,,,,563,18,Man,Right,5,53,0.15,2,0,180,180,0.5963968000000932,['y'],0.1668973000000733,1.542,1918.8237113999999,,,,,563,18,Man,Right,
,,,,,,,,,,,,,,,,,563,18,Man,Right,5,68,0.15,1,0,-,0,0.37591889999976047,['n'],0.09459659999993164,1.854,1921.5073252000002,,,,,563,18,Man,Right,
,,,,,,,,,,,,,,,,,563,18,Man,Right,5,28,0.4,1,0,-,0,0.6590080999999373,['n'],0.13487220000024536,1.874,1924.9403944,,,,,563,18,Man,Right,
,,,,,,,,,,,,,,,,,563,18,Man,Right,5,1,1,2,0,180,180,0.2916728999998668,['y'],0.15900550000014846,1.836,1927.4571678000002,,,,,563,18,Man,Right,
,,,,,,,,,,,,,,,,,563,18,Man,Right,5,41,0.4,2,0,180,180,0.4271280999996634,['y'],0.13493819999985135,1.726,1930.2073083999999,,,,,563,18,Man,Right,
,,,,,,,,,,,,,,,,,563,18,Man,Right,5,69,0.15,2,0,180,0,0.24037619999990056,['n'],0.08662330000015572,1.892,1932.7573449000001,,,,,563,18,Man,Right,
,,,,,,,,,,,,,,,,,563,18,Man,Right,5,32,0.4,1,0,-,0,0.07900429999972403,['n'],0.1028796999999031,2.0,1935.1577653,,,,,563,18,Man,Right,
,,,,,,,,,,,,,,,,,563,18,Man,Right,5,58,0.15,1,180,-,180,1.329400699999951,['n'],0.13507350000008955,1.7,1939.1573399,,,,,563,18,Man,Right,
,,,,,,,,,,,,,,,,,563,18,Man,Right,5,66,0.15,1,180,-,0,0.12853569999970205,['n'],0.11927370000012161,1.774,1941.574564,,,,,563,18,Man,Right,
,,,,,,,,,,,,,,,,,563,18,Man,Right,5,26,0.4,1,180,-,180,0.23285349999969185,['y'],0.10265239999989717,1.0,1944.357371,,,,,563,18,Man,Right,
,,,,,,,,,,,,,,,,,563,18,Man,Right,5,57,0.15,2,0,180,0,0.751757600000019,['n'],0.08691110000017943,1.69,1947.8736611,,,,,563,18,Man,Right,
,,,,,,,,,,,,,,,,,563,18,Man,Right,5,75,0.15,2,180,0,0,0.5895317999998042,['n'],0.12656590000005963,1.7,1950.8070249000002,,,,,563,18,Man,Right,
,,,,,,,,,,,,,,,,,563,18,Man,Right,5,39,0.4,2,180,0,0,1.039389999999912,['y'],0.11074099999996179,1.742,1954.4570251999999,,,,,563,18,Man,Right,
,,,,,,,,,,,,,,,,,563,18,Man,Right,5,59,0.15,2,180,0,0,0.34058320000031017,['n'],0.10276239999984682,1.742,1954.4570251999999,,,,,563,18,Man,Right,
,,,,,,,,,,,,,,,,,563,18,Man,Right,5,43,0.4,2,180,0,0,0.2612297000000581,['y'],0.22292419999985214,1.692,1959.9403152999998,,,,,563,18,Man,Right,
,,,,,,,,,,,,,,,,,563,18,Man,Right,5,60,0.15,1,0,-,0,0.23425929999984874,['n'],0.10248660000024756,1.5899999999999999,1963.1903799000002,,,,,563,18,Man,Right,
,,,,,,,,,,,,,,,,,563,18,Man,Right,5,35,0.4,2,180,0,0,0.3919183999996676,['y'],0.1508097999999336,1.584,1966.073515,,,,,563,18,Man,Right,
,,,,,,,,,,,,,,,,,563,18,Man,Right,5,18,0.4,1,180,-,180,0.6840595000003304,['n'],0.09461130000045159,1.5939999999999999,1969.4902627000001,,,,,563,18,Man,Right,
,,,,,,,,,,,,,,,,,563,18,Man,Right,5,45,0.15,2,0,180,0,0.10860739999998259,['n'],0.1830155000002378,1.5939999999999999,1971.8905140000002,,,,,563,18,Man,Right,
,,,,,,,,,,,,,,,,,563,18,Man,Right,5,2,1,1,180,-,180,0.8203288999998222,['n'],0.12730740000006335,1.694,1975.0746679,,,,,563,18,Man,Right,
,,,,,,,,,,,,,,,,,563,18,Man,Right,5,52,0.15,1,0,-,0,0.37022320000005493,['n'],0.09472700000014811,1.96,1977.7569183,,,,,563,18,Man,Right,
,,,,,,,,,,,,,,,,,563,18,Man,Right,5,79,0.15,2,180,0,0,0.29756730000008247,['n'],0.12667469999996683,1.958,1980.4236190000001,,,,,563,18,Man,Right,
,,,,,,,,,,,,,,,,,563,18,Man,Right,5,14,0.4,1,180,-,180,0.29465269999991506,['n'],0.6393938000001071,1.892,1987.6901999000002,,,,,563,18,Man,Right,
,,,,,,,,,,,,,,,,,563,18,Man,Right,5,74,0.15,1,180,-,0,0.1563694999999825,['n'],0.11964899999975387,1.88,1990.1900726,,,,,563,18,Man,Right,
,,,,,,,,,,,,,,,,,563,18,Man,Right,5,31,0.4,2,180,0,0,0.6010765000000902,['y'],0.1586341000001994,1.684,1993.1068572,,,,,563,18,Man,Right,
,,,,,,,,,,,,,,,,,,,,,,,,,,,,,,,,,85.0,95.0,67.5,1750.4384403,,,,,
