p_block,p_section,p_coherence,p_direction1,p_direction2,p_direction_response,p_direction_RT,p_change_response,p_change_RT,p_confidence,p_full_correct,p_without5_correct,p_full_total,p_without5_total,p_full_avg,p_witout5_avg,p_total_time,sub,age,sex,handedness,loop,trial randomization,coherence,condition,direction1,direction2,direction_response,direction_RT,change_response,change_RT,change_confidence,change_confidence_RT,block_direction_avg,block_stable_avg,block_change_avg,total_time,sub,age,sex,handedness,
1,1,1.0,0,-,0,1.3522239999999783,-,-,-,,,,,,,,558,19,Woman,Right,,,,,,,,,,,,,,,,,558,19,Woman,Right,
1,1,1.0,0,-,0,0.5285232999999607,-,-,-,,,,,,,,558,19,Woman,Right,,,,,,,,,,,,,,,,,558,19,Woman,Right,
1,1,1.0,0,-,180,0.7632347000001118,-,-,-,,,,,,,,558,19,Woman,Right,,,,,,,,,,,,,,,,,558,19,Woman,Right,
1,1,1.0,0,-,180,0.7312100000001465,-,-,-,,,,,,,,558,19,Woman,Right,,,,,,,,,,,,,,,,,558,19,Woman,Right,
1,1,1.0,0,-,0,0.8537416000001485,-,-,-,,,,,,,,558,19,Woman,Right,,,,,,,,,,,,,,,,,558,19,Woman,Right,
1,1,1.0,0,-,0,0.5449485999999979,-,-,-,,,,,,,,558,19,Woman,Right,,,,,,,,,,,,,,,,,558,19,Woman,Right,
1,1,1.0,180,-,180,0.8664370999999846,-,-,-,,,,,,,,558,19,Woman,Right,,,,,,,,,,,,,,,,,558,19,Woman,Right,
1,1,1.0,180,-,180,0.35852490000002035,-,-,-,,,,,,,,558,19,Woman,Right,,,,,,,,,,,,,,,,,558,19,Woman,Right,
1,1,1.0,180,-,180,0.295515099999875,-,-,-,,,,,,,,558,19,Woman,Right,,,,,,,,,,,,,,,,,558,19,Woman,Right,
1,1,1.0,180,-,0,1.1961390999999821,-,-,-,,,,,,,,558,19,Woman,Right,,,,,,,,,,,,,,,,,558,19,Woman,Right,
1,1,1.0,180,-,180,0.3791796999998951,-,-,-,,,,,,,,558,19,Woman,Right,,,,,,,,,,,,,,,,,558,19,Woman,Right,
1,1,1.0,0,-,0,1.0510752000000139,-,-,-,,,,,,,,558,19,Woman,Right,,,,,,,,,,,,,,,,,558,19,Woman,Right,
1,1,1.0,180,-,180,0.3916964000000007,-,-,-,,,,,,,,558,19,Woman,Right,,,,,,,,,,,,,,,,,558,19,Woman,Right,
1,1,1.0,180,-,180,0.11913750000007894,-,-,-,,,,,,,,558,19,Woman,Right,,,,,,,,,,,,,,,,,558,19,Woman,Right,
1,1,1.0,0,-,0,0.12089960000002975,-,-,-,,,,,,,,558,19,Woman,Right,,,,,,,,,,,,,,,,,558,19,Woman,Right,
1,1,1.0,0,-,0,0.0592000999999982,-,-,-,,,,,,,,558,19,Woman,Right,,,,,,,,,,,,,,,,,558,19,Woman,Right,
1,1,1.0,180,-,180,0.5209992000000057,-,-,-,,,,,,,,558,19,Woman,Right,,,,,,,,,,,,,,,,,558,19,Woman,Right,
1,1,1.0,0,-,0,0.2107467999999244,-,-,-,,,,,,,,558,19,Woman,Right,,,,,,,,,,,,,,,,,558,19,Woman,Right,
1,1,1.0,0,-,180,0.41010629999982484,-,-,-,,,,,,,,558,19,Woman,Right,,,,,,,,,,,,,,,,,558,19,Woman,Right,
1,1,1.0,180,-,180,0.11278450000008888,-,-,-,9,9,10,10,0.9,0.9,,558,19,Woman,Right,,,,,,,,,,,,,,,,,558,19,Woman,Right,
2,1,0.4,0,-,180,0.3893583999999919,-,-,-,,,,,,,,558,19,Woman,Right,,,,,,,,,,,,,,,,,558,19,Woman,Right,
2,1,0.15,180,-,180,0.1572701000000052,-,-,-,,,,,,,,558,19,Woman,Right,,,,,,,,,,,,,,,,,558,19,Woman,Right,
2,1,0.15,0,-,0,0.15803810000011254,-,-,-,,,,,,,,558,19,Woman,Right,,,,,,,,,,,,,,,,,558,19,Woman,Right,
2,1,0.4,0,-,0,0.016645100000005186,-,-,-,,,,,,,,558,19,Woman,Right,,,,,,,,,,,,,,,,,558,19,Woman,Right,
2,1,0.15,180,-,180,0.12507970000001478,-,-,-,,,,,,,,558,19,Woman,Right,,,,,,,,,,,,,,,,,558,19,Woman,Right,
2,1,0.15,180,-,180,0.01671980000014628,-,-,-,,,,,,,,558,19,Woman,Right,,,,,,,,,,,,,,,,,558,19,Woman,Right,
2,1,0.4,0,-,180,0.0166932000001907,-,-,-,,,,,,,,558,19,Woman,Right,,,,,,,,,,,,,,,,,558,19,Woman,Right,
2,1,0.4,0,-,0,0.22064309999996112,-,-,-,,,,,,,,558,19,Woman,Right,,,,,,,,,,,,,,,,,558,19,Woman,Right,
2,1,0.15,180,-,180,0.03494109999996908,-,-,-,,,,,,,,558,19,Woman,Right,,,,,,,,,,,,,,,,,558,19,Woman,Right,
2,1,0.4,180,-,180,0.016842500000166183,-,-,-,,,,,,,,558,19,Woman,Right,,,,,,,,,,,,,,,,,558,19,Woman,Right,
2,1,0.4,0,-,0,0.43899039999996603,-,-,-,,,,,,,,558,19,Woman,Right,,,,,,,,,,,,,,,,,558,19,Woman,Right,
2,1,0.15,0,-,180,0.02816700000016681,-,-,-,,,,,,,,558,19,Woman,Right,,,,,,,,,,,,,,,,,558,19,Woman,Right,
2,1,0.15,0,-,180,0.01682940000000599,-,-,-,,,,,,,,558,19,Woman,Right,,,,,,,,,,,,,,,,,558,19,Woman,Right,
2,1,0.4,180,-,180,0.016711099999838552,-,-,-,,,,,,,,558,19,Woman,Right,,,,,,,,,,,,,,,,,558,19,Woman,Right,
2,1,0.15,180,-,180,0.01734590000000935,-,-,-,,,,,,,,558,19,Woman,Right,,,,,,,,,,,,,,,,,558,19,Woman,Right,
2,1,0.15,0,-,0,0.5902360000000044,-,-,-,,,,,,,,558,19,Woman,Right,,,,,,,,,,,,,,,,,558,19,Woman,Right,
2,1,0.15,0,-,180,0.1498968999999306,-,-,-,,,,,,,,558,19,Woman,Right,,,,,,,,,,,,,,,,,558,19,Woman,Right,
2,1,0.15,180,-,180,0.25456350000013117,-,-,-,,,,,,,,558,19,Woman,Right,,,,,,,,,,,,,,,,,558,19,Woman,Right,
2,1,0.15,0,-,0,0.299426799999992,-,-,-,,,,,,,,558,19,Woman,Right,,,,,,,,,,,,,,,,,558,19,Woman,Right,
2,1,0.4,180,-,180,0.017205999999987398,-,-,-,7,3,10,3,0.7,1.0,,558,19,Woman,Right,,,,,,,,,,,,,,,,,558,19,Woman,Right,
3,2,1.0,0,180,0,2.797136099999989,['n'],4.20549989999995,1.016,,,,,,,,558,19,Woman,Right,,,,,,,,,,,,,,,,,558,19,Woman,Right,
3,2,1.0,180,0,180,4.416244499999948,['n'],1.3519871999999395,1.064,,,,,,,,558,19,Woman,Right,,,,,,,,,,,,,,,,,558,19,Woman,Right,
3,2,1.0,0,180,0,1.7002995000000283,['y'],2.252469000000019,1.562,,,,,,,,558,19,Woman,Right,,,,,,,,,,,,,,,,,558,19,Woman,Right,
3,2,1.0,180,0,0,1.538887999999588,['y'],1.7387423000000126,1.934,,,,,,,,558,19,Woman,Right,,,,,,,,,,,,,,,,,558,19,Woman,Right,
3,2,1.0,180,0,180,1.501841400000103,['n'],0.507690399999774,1.0,,,,,,,,558,19,Woman,Right,,,,,,,,,,,,,,,,,558,19,Woman,Right,
3,2,1.0,0,180,180,1.4146849000003385,['y'],0.8799130999996123,1.716,,,,,,,,558,19,Woman,Right,,,,,,,,,,,,,,,,,558,19,Woman,Right,
3,2,1.0,180,0,180,4.752070600000025,['y'],0.937666999999692,1.6280000000000001,,,,,,,,558,19,Woman,Right,,,,,,,,,,,,,,,,,558,19,Woman,Right,
3,2,1.0,0,180,180,1.4213032999996358,['n'],1.6560097000001406,1.57,,,,,,,,558,19,Woman,Right,,,,,,,,,,,,,,,,,558,19,Woman,Right,
3,2,1.0,0,180,0,2.748463399999764,['y'],0.9625857000000906,1.466,,,,,,,,558,19,Woman,Right,,,,,,,,,,,,,,,,,558,19,Woman,Right,
3,2,1.0,0,180,180,3.0281840000002376,['y'],0.3362976000003073,1.808,,,,,,,,558,19,Woman,Right,,,,,,,,,,,,,,,,,558,19,Woman,Right,
3,2,1.0,0,180,180,3.660081699999864,['y'],0.18376149999994595,1.654,,,,,,,,558,19,Woman,Right,,,,,,,,,,,,,,,,,558,19,Woman,Right,
3,2,1.0,180,0,0,1.3232456000000639,['y'],1.6549309999995785,1.71,,,,,,,,558,19,Woman,Right,,,,,,,,,,,,,,,,,558,19,Woman,Right,
3,2,1.0,0,180,0,1.911536999999953,['y'],1.7087796000000708,1.592,,,,,,,,558,19,Woman,Right,,,,,,,,,,,,,,,,,558,19,Woman,Right,
3,2,1.0,180,0,0,3.4279152000003705,['y'],0.21288959999992585,1.854,,,,,,,,558,19,Woman,Right,,,,,,,,,,,,,,,,,558,19,Woman,Right,
3,2,1.0,180,0,180,3.0606959000001552,['y'],0.11803140000029089,1.384,,,,,,,,558,19,Woman,Right,,,,,,,,,,,,,,,,,558,19,Woman,Right,
3,2,1.0,180,0,0,1.0584112999999888,['y'],0.5356446000000687,1.7,,,,,,,,558,19,Woman,Right,,,,,,,,,,,,,,,,,558,19,Woman,Right,
3,2,1.0,180,0,0,1.9834961000001385,['y'],0.21547510000027614,1.732,,,,,,,,558,19,Woman,Right,,,,,,,,,,,,,,,,,558,19,Woman,Right,
3,2,1.0,180,0,180,1.599149099999977,['y'],0.4799996000001556,1.5859999999999999,,,,,,,,558,19,Woman,Right,,,,,,,,,,,,,,,,,558,19,Woman,Right,
3,2,1.0,180,0,180,1.5561527999998361,['y'],0.3595359000000826,1.482,,,,,,,,558,19,Woman,Right,,,,,,,,,,,,,,,,,558,19,Woman,Right,
3,2,1.0,0,180,180,1.520024899999953,['y'],1.6857240999997885,1.6440000000000001,,,,,,,,558,19,Woman,Right,,,,,,,,,,,,,,,,,558,19,Woman,Right,
3,2,1.0,180,0,180,4.20223390000001,['y'],0.3079181999996763,1.522,,,,,,,,558,19,Woman,Right,,,,,,,,,,,,,,,,,558,19,Woman,Right,
3,2,1.0,180,0,0,1.5649478000000272,['y'],0.14178590000028635,1.68,,,,,,,,558,19,Woman,Right,,,,,,,,,,,,,,,,,558,19,Woman,Right,
3,2,1.0,180,0,180,1.4849607000001015,['n'],2.009772200000043,1.244,,,,,,,,558,19,Woman,Right,,,,,,,,,,,,,,,,,558,19,Woman,Right,
3,2,1.0,0,180,0,0.6765989999998965,['y'],1.9150186000001668,1.3820000000000001,,,,,,,,558,19,Woman,Right,,,,,,,,,,,,,,,,,558,19,Woman,Right,
3,2,1.0,0,180,0,0.725464699999975,['y'],1.3952965000003132,1.392,,,,,,,,558,19,Woman,Right,,,,,,,,,,,,,,,,,558,19,Woman,Right,
3,2,1.0,0,180,0,1.1603390000000218,['y'],0.24482270000044082,1.65,,,,,,,,558,19,Woman,Right,,,,,,,,,,,,,,,,,558,19,Woman,Right,
3,2,1.0,180,0,180,1.1233205999997153,['y'],1.3867456999996648,1.6280000000000001,,,,,,,,558,19,Woman,Right,,,,,,,,,,,,,,,,,558,19,Woman,Right,
3,2,1.0,0,180,0,0.7038683999999193,['y'],1.6182237000002715,1.3319999999999999,,,,,,,,558,19,Woman,Right,,,,,,,,,,,,,,,,,558,19,Woman,Right,
3,2,1.0,180,0,180,0.49347320000015316,['y'],0.9053503000000092,1.326,,,,,,,,558,19,Woman,Right,,,,,,,,,,,,,,,,,558,19,Woman,Right,
3,2,1.0,180,0,0,0.7647437999999056,['y'],1.0231852000001709,1.654,,,,,,,,558,19,Woman,Right,,,,,,,,,,,,,,,,,558,19,Woman,Right,
3,2,1.0,180,0,180,0.3378674000000501,['y'],1.0626523000000816,1.3980000000000001,,,,,,,,558,19,Woman,Right,,,,,,,,,,,,,,,,,558,19,Woman,Right,
3,2,1.0,180,0,0,0.8046048000001065,['y'],1.6316975999998249,1.6560000000000001,,,,,,,,558,19,Woman,Right,,,,,,,,,,,,,,,,,558,19,Woman,Right,
3,2,1.0,0,180,180,0.643729699999767,['y'],0.42970710000008694,1.68,,,,,,,,558,19,Woman,Right,,,,,,,,,,,,,,,,,558,19,Woman,Right,
3,2,1.0,180,0,180,0.27528069999971194,['n'],1.4934775000001537,1.3820000000000001,,,,,,,,558,19,Woman,Right,,,,,,,,,,,,,,,,,558,19,Woman,Right,
3,2,1.0,0,180,0,1.0946692000002258,['y'],1.5527455999999802,1.3719999999999999,,,,,,,,558,19,Woman,Right,,,,,,,,,,,,,,,,,558,19,Woman,Right,
3,2,1.0,180,0,180,0.6428753000000142,['y'],1.2008304000000862,1.366,,,,,,,,558,19,Woman,Right,,,,,,,,,,,,,,,,,558,19,Woman,Right,
3,2,1.0,0,180,0,0.340203400000064,['y'],1.3521067000001494,1.318,,,,,,,,558,19,Woman,Right,,,,,,,,,,,,,,,,,558,19,Woman,Right,
3,2,1.0,180,0,0,0.8842639000004056,['y'],0.051733100000092236,1.62,,,,,,,,558,19,Woman,Right,,,,,,,,,,,,,,,,,558,19,Woman,Right,
3,2,1.0,180,0,0,0.6071676000001389,['y'],0.2500267000000349,1.684,,,,,,,,558,19,Woman,Right,,,,,,,,,,,,,,,,,558,19,Woman,Right,
3,2,1.0,0,180,0,1.0213419000001522,['y'],1.2726536999998643,1.3479999999999999,,,,,,,,558,19,Woman,Right,,,,,,,,,,,,,,,,,558,19,Woman,Right,
3,2,1.0,180,0,0,0.6202557000001434,['y'],1.072037900000396,1.714,,,,,,,,558,19,Woman,Right,,,,,,,,,,,,,,,,,558,19,Woman,Right,
3,2,1.0,180,0,180,0.5139948999999433,['y'],1.7637250999996468,1.4140000000000001,,,,,,,,558,19,Woman,Right,,,,,,,,,,,,,,,,,558,19,Woman,Right,
3,2,1.0,180,0,180,0.4175057000002198,['y'],1.104152200000044,1.326,,,,,,,,558,19,Woman,Right,,,,,,,,,,,,,,,,,558,19,Woman,Right,
3,2,1.0,0,180,0,2.228811599999972,['y'],1.2581835000000865,1.338,,,,,,,,558,19,Woman,Right,,,,,,,,,,,,,,,,,558,19,Woman,Right,
3,2,1.0,0,180,0,0.6515087999996467,['y'],1.379082699999799,1.286,,,,,,,,558,19,Woman,Right,,,,,,,,,,,,,,,,,558,19,Woman,Right,
3,2,1.0,180,0,0,0.6004324000000452,['y'],1.0990913000000546,1.6640000000000001,,,,,,,,558,19,Woman,Right,,,,,,,,,,,,,,,,,558,19,Woman,Right,
3,2,1.0,180,0,180,0.8244328000000678,['y'],1.9078235000001769,1.6019999999999999,,,,,,,,558,19,Woman,Right,,,,,,,,,,,,,,,,,558,19,Woman,Right,
3,2,1.0,180,0,180,0.6375386000004255,['y'],1.4418156000001545,1.5899999999999999,,,,,,,,558,19,Woman,Right,,,,,,,,,,,,,,,,,558,19,Woman,Right,
3,2,1.0,180,0,180,0.4877387000001363,['y'],1.5789409000003616,1.6139999999999999,,,,,,,,558,19,Woman,Right,,,,,,,,,,,,,,,,,558,19,Woman,Right,
3,2,1.0,0,180,180,0.5832806999997047,['y'],1.1692816999998286,1.588,,,,,,,,558,19,Woman,Right,,,,,,,,,,,,,,,,,558,19,Woman,Right,
3,2,1.0,180,0,0,2.5008717999999135,['y'],0.24816900000041642,1.754,,,,,,,,558,19,Woman,Right,,,,,,,,,,,,,,,,,558,19,Woman,Right,
3,2,1.0,0,180,180,0.507332900000165,['y'],0.248694500000056,1.626,,,,,,,,558,19,Woman,Right,,,,,,,,,,,,,,,,,558,19,Woman,Right,
3,2,1.0,0,180,0,0.7778680999999779,['y'],1.1971828000000642,1.3900000000000001,,,,,,,,558,19,Woman,Right,,,,,,,,,,,,,,,,,558,19,Woman,Right,
3,2,1.0,0,180,0,0.4590997000000243,['y'],1.5966843000001063,1.37,,,,,,,,558,19,Woman,Right,,,,,,,,,,,,,,,,,558,19,Woman,Right,
3,2,1.0,0,180,0,1.976061700000173,['y'],1.340512299999773,1.37,,,,,,,,558,19,Woman,Right,,,,,,,,,,,,,,,,,558,19,Woman,Right,
3,2,1.0,0,180,0,0.8070745999998508,['y'],1.308544299999994,1.3359999999999999,,,,,,,,558,19,Woman,Right,,,,,,,,,,,,,,,,,558,19,Woman,Right,
3,2,1.0,180,0,0,0.5359441000000515,['y'],0.37792010000021037,1.63,,,,,,,,558,19,Woman,Right,,,,,,,,,,,,,,,,,558,19,Woman,Right,
3,2,1.0,180,0,180,0.8335853000003226,['y'],1.5278290999999626,1.6179999999999999,,,,,,,,558,19,Woman,Right,,,,,,,,,,,,,,,,,558,19,Woman,Right,
3,2,1.0,180,0,180,0.7838134999997237,['n'],1.6957656999998107,1.3719999999999999,,,,,,,,558,19,Woman,Right,,,,,,,,,,,,,,,,,558,19,Woman,Right,
3,2,1.0,0,180,0,0.6657917999996243,['y'],0.44128950000003897,1.6320000000000001,,,,,,,,558,19,Woman,Right,,,,,,,,,,,,,,,,,558,19,Woman,Right,
3,2,1.0,180,0,180,1.1077151999998023,['y'],1.2020360000001347,1.384,,,,,,,,558,19,Woman,Right,,,,,,,,,,,,,,,,,558,19,Woman,Right,
3,2,1.0,180,0,0,3.1681742000000668,['y'],1.0208118000000468,1.3780000000000001,,,,,,,,558,19,Woman,Right,,,,,,,,,,,,,,,,,558,19,Woman,Right,
3,2,1.0,180,0,180,0.5828255000001263,['y'],2.1196286999997938,1.5939999999999999,,,,,,,,558,19,Woman,Right,,,,,,,,,,,,,,,,,558,19,Woman,Right,
3,2,1.0,0,180,0,0.7009405000003426,['y'],1.176404199999979,1.596,,,,,,,,558,19,Woman,Right,,,,,,,,,,,,,,,,,558,19,Woman,Right,
3,2,1.0,0,180,180,0.4759116999998696,['y'],0.09804290000010951,1.75,,,,,,,,558,19,Woman,Right,,,,,,,,,,,,,,,,,558,19,Woman,Right,
3,2,1.0,0,180,0,0.91616729999987,['y'],1.3058369000000312,1.686,,,,,,,,558,19,Woman,Right,,,,,,,,,,,,,,,,,558,19,Woman,Right,
3,2,1.0,180,0,180,0.5540160000000469,['y'],1.0723094999998466,1.6400000000000001,,,,,,,,558,19,Woman,Right,,,,,,,,,,,,,,,,,558,19,Woman,Right,
3,2,1.0,0,180,180,0.5065764999999374,['y'],1.5306769000003442,2.0,,,,,,,,558,19,Woman,Right,,,,,,,,,,,,,,,,,558,19,Woman,Right,
3,2,1.0,180,0,180,0.5726352000001498,['y'],1.0908715000000484,1.686,,,,,,,,558,19,Woman,Right,,,,,,,,,,,,,,,,,558,19,Woman,Right,
3,2,1.0,180,0,180,0.3536655000002611,['y'],1.3865083999999115,1.376,,,,,,,,558,19,Woman,Right,,,,,,,,,,,,,,,,,558,19,Woman,Right,
3,2,1.0,180,0,180,0.3385557000001427,['y'],1.2371507999996538,1.3719999999999999,,,,,,,,558,19,Woman,Right,,,,,,,,,,,,,,,,,558,19,Woman,Right,
3,2,1.0,0,180,0,0.8108523999999306,['y'],1.2838808999999856,1.76,,,,,,,,558,19,Woman,Right,,,,,,,,,,,,,,,,,558,19,Woman,Right,
3,2,1.0,0,180,0,0.4243022999999084,['y'],1.1369371999999203,1.218,,,,,,,,558,19,Woman,Right,,,,,,,,,,,,,,,,,558,19,Woman,Right,
3,2,1.0,180,0,180,0.31460710000010295,['y'],1.5697096000003512,1.142,,,,,,,,558,19,Woman,Right,,,,,,,,,,,,,,,,,558,19,Woman,Right,
3,2,1.0,180,0,180,0.5428046000001814,['y'],1.5807786000000306,1.6560000000000001,,,,,,,,558,19,Woman,Right,,,,,,,,,,,,,,,,,558,19,Woman,Right,
3,2,1.0,0,180,180,0.8118789000000106,['y'],1.761322100000143,2.0,,,,,,,,558,19,Woman,Right,,,,,,,,,,,,,,,,,558,19,Woman,Right,
3,2,1.0,180,0,180,0.23192410000001473,['y'],1.565776299999925,1.802,,,,,,,,558,19,Woman,Right,,,,,,,,,,,,,,,,,558,19,Woman,Right,
3,2,1.0,180,0,180,0.21221289999994042,['y'],1.1077760999996826,1.802,,,,,,,,558,19,Woman,Right,,,,,,,,,,,,,,,,,558,19,Woman,Right,
3,2,1.0,0,180,180,0.1773588999999447,['y'],0.23485530000016297,1.802,,,,,,,,558,19,Woman,Right,,,,,,,,,,,,,,,,,558,19,Woman,Right,
3,2,1.0,180,0,180,0.6838560000001053,['y'],0.36970389999987674,1.6320000000000001,,,,,,,,558,19,Woman,Right,,,,,,,,,,,,,,,,,558,19,Woman,Right,
3,2,1.0,0,180,180,0.5657925999998952,['y'],0.3216290000000299,1.818,,,,,,,,558,19,Woman,Right,,,,,,,,,,,,,,,,,558,19,Woman,Right,
3,2,1.0,180,0,180,0.3262133000002905,['y'],1.5012095000001864,1.818,,,,,,,,558,19,Woman,Right,,,,,,,,,,,,,,,,,558,19,Woman,Right,
3,2,1.0,0,180,0,0.8025492000001577,['y'],0.31863899999962086,1.796,,,,,,,,558,19,Woman,Right,,,,,,,,,,,,,,,,,558,19,Woman,Right,
3,2,1.0,180,0,0,0.6157460999997966,['y'],0.2365260000001399,1.788,,,,,,,,558,19,Woman,Right,,,,,,,,,,,,,,,,,558,19,Woman,Right,
3,2,1.0,180,0,180,0.01675230000000738,['y'],0.5664818000000196,1.768,,,,,,,,558,19,Woman,Right,,,,,,,,,,,,,,,,,558,19,Woman,Right,
3,2,1.0,180,0,0,1.0013134000000719,['y'],0.47267210000018167,1.768,,,,,,,,558,19,Woman,Right,,,,,,,,,,,,,,,,,558,19,Woman,Right,
3,2,1.0,0,180,180,0.33632760000000417,['y'],0.12236759999996139,1.768,,,,,,,,558,19,Woman,Right,,,,,,,,,,,,,,,,,558,19,Woman,Right,
3,2,1.0,0,180,0,0.5438242999998693,['y'],0.6099343000000772,1.768,,,,,,,,558,19,Woman,Right,,,,,,,,,,,,,,,,,558,19,Woman,Right,
3,2,1.0,0,180,180,0.15214689999993425,['y'],0.4120114000002104,1.768,,,,,,,,558,19,Woman,Right,,,,,,,,,,,,,,,,,558,19,Woman,Right,
3,2,1.0,0,180,0,0.695836600000348,['y'],1.1422198000000208,1.768,,,,,,,,558,19,Woman,Right,,,,,,,,,,,,,,,,,558,19,Woman,Right,
3,2,1.0,180,0,0,0.5063139000003503,['y'],0.08160259999976915,1.768,,,,,,,,558,19,Woman,Right,,,,,,,,,,,,,,,,,558,19,Woman,Right,
3,2,1.0,180,0,0,1.1142847999999503,['y'],0.22592409999970187,1.996,,,,,,,,558,19,Woman,Right,,,,,,,,,,,,,,,,,558,19,Woman,Right,
3,2,1.0,180,0,180,0.30904450000025463,['y'],0.30122510000001057,1.88,,,,,,,,558,19,Woman,Right,,,,,,,,,,,,,,,,,558,19,Woman,Right,
3,2,1.0,180,0,0,0.4838202999999339,['y'],0.21355610000000524,1.88,,,,,,,,558,19,Woman,Right,,,,,,,,,,,,,,,,,558,19,Woman,Right,
3,2,1.0,0,180,0,0.3990054999999302,['y'],0.277909400000226,1.88,,,,,,,,558,19,Woman,Right,,,,,,,,,,,,,,,,,558,19,Woman,Right,
3,2,1.0,0,180,0,0.8336869999998271,['y'],0.47095390000004045,1.88,,,,,,,,558,19,Woman,Right,,,,,,,,,,,,,,,,,558,19,Woman,Right,
3,2,1.0,0,180,180,0.5316262000001188,['y'],0.7908695999999509,1.88,,,,,,,,558,19,Woman,Right,,,,,,,,,,,,,,,,,558,19,Woman,Right,
3,2,1.0,0,180,180,0.3142593000002307,['y'],0.2398115000000871,1.88,,,,,,,,558,19,Woman,Right,,,,,,,,,,,,,,,,,558,19,Woman,Right,
3,2,1.0,180,0,0,0.3866324999999051,['y'],0.43715979999979027,1.88,,,,,,,,558,19,Woman,Right,,,,,,,,,,,,,,,,,558,19,Woman,Right,
3,2,1.0,0,180,0,0.624324500000057,['y'],0.7545927999999549,1.88,,,,,,,,558,19,Woman,Right,,,,,,,,,,,,,,,,,558,19,Woman,Right,
3,2,1.0,0,180,180,0.7935112999998637,['y'],0.28629510000018854,1.88,,,,,,,,558,19,Woman,Right,,,,,,,,,,,,,,,,,558,19,Woman,Right,
3,2,1.0,180,0,180,0.5705543000003672,['y'],0.33640699999978096,1.88,,,,,,,,558,19,Woman,Right,,,,,,,,,,,,,,,,,558,19,Woman,Right,
3,2,1.0,0,180,0,1.2036525999997139,['y'],0.2976390000003448,1.88,,,,,,,,558,19,Woman,Right,,,,,,,,,,,,,,,,,558,19,Woman,Right,
3,2,1.0,180,0,0,0.6245038000001841,['y'],0.2540681999998924,1.88,,,,,,,,558,19,Woman,Right,,,,,,,,,,,,,,,,,558,19,Woman,Right,
3,2,1.0,0,180,180,0.36856370000032257,['y'],0.3128200000001016,1.88,,,,,,,,558,19,Woman,Right,,,,,,,,,,,,,,,,,558,19,Woman,Right,
3,2,1.0,180,0,0,0.3658895000003213,['y'],0.1271108999999342,1.88,,,,,,,,558,19,Woman,Right,,,,,,,,,,,,,,,,,558,19,Woman,Right,
3,2,1.0,180,0,0,0.692610699999932,['y'],0.17064750000008644,1.88,,,,,,,,558,19,Woman,Right,,,,,,,,,,,,,,,,,558,19,Woman,Right,
3,2,1.0,0,180,180,0.7667428999998265,['y'],0.2650628000001234,1.88,,,,,,,,558,19,Woman,Right,,,,,,,,,,,,,,,,,558,19,Woman,Right,
3,2,1.0,0,180,180,0.5768372000002273,['y'],0.28460180000001856,1.88,,,,,,,,558,19,Woman,Right,,,,,,,,,,,,,,,,,558,19,Woman,Right,
3,2,1.0,180,0,0,0.784646900000098,['y'],0.6924569000002521,1.88,8,8,10,10,0.8,0.8,,558,19,Woman,Right,,,,,,,,,,,,,,,,,558,19,Woman,Right,
4,2,0.4,180,0,180,0.8983619999999064,['y'],0.22032869999975446,1.88,,,,,,,,558,19,Woman,Right,,,,,,,,,,,,,,,,,558,19,Woman,Right,
4,2,0.4,0,180,0,0.26084160000027623,['y'],0.7782731000002059,1.88,,,,,,,,558,19,Woman,Right,,,,,,,,,,,,,,,,,558,19,Woman,Right,
4,2,0.15,0,180,180,0.016542500000014115,['y'],1.331181000000015,1.88,,,,,,,,558,19,Woman,Right,,,,,,,,,,,,,,,,,558,19,Woman,Right,
4,2,0.15,180,0,0,0.4302843999998913,['y'],0.701953499999945,1.88,,,,,,,,558,19,Woman,Right,,,,,,,,,,,,,,,,,558,19,Woman,Right,
4,2,0.15,0,180,180,0.5926564000001235,['y'],0.5471867000001112,1.88,,,,,,,,558,19,Woman,Right,,,,,,,,,,,,,,,,,558,19,Woman,Right,
4,2,0.15,180,0,180,0.45235060000004523,['y'],0.03660299999955896,1.212,,,,,,,,558,19,Woman,Right,,,,,,,,,,,,,,,,,558,19,Woman,Right,
4,2,0.4,180,0,0,0.5141764999998486,['y'],0.3531097000000045,1.826,,,,,,,,558,19,Woman,Right,,,,,,,,,,,,,,,,,558,19,Woman,Right,
4,2,0.4,0,180,180,0.24062980000007883,['y'],0.6682817000000796,1.822,,,,,,,,558,19,Woman,Right,,,,,,,,,,,,,,,,,558,19,Woman,Right,
4,2,0.4,180,0,0,0.6377175999996325,['y'],0.4497132999999849,1.798,,,,,,,,558,19,Woman,Right,,,,,,,,,,,,,,,,,558,19,Woman,Right,
4,2,0.4,0,180,180,0.3837014000000636,['y'],0.261808000000201,1.798,,,,,,,,558,19,Woman,Right,,,,,,,,,,,,,,,,,558,19,Woman,Right,
4,2,0.15,180,0,180,0.3163509000000886,['y'],0.9998191999998198,1.83,,,,,,,,558,19,Woman,Right,,,,,,,,,,,,,,,,,558,19,Woman,Right,
4,2,0.4,180,0,0,0.39608640000005835,['y'],0.9242497999998704,1.826,,,,,,,,558,19,Woman,Right,,,,,,,,,,,,,,,,,558,19,Woman,Right,
4,2,0.15,180,0,180,0.3225073000003249,['y'],0.5507259000000886,1.808,,,,,,,,558,19,Woman,Right,,,,,,,,,,,,,,,,,558,19,Woman,Right,
4,2,0.4,0,180,180,0.2592546000000766,['y'],0.41931720000002315,1.794,,,,,,,,558,19,Woman,Right,,,,,,,,,,,,,,,,,558,19,Woman,Right,
4,2,0.4,180,0,0,0.30281190000005154,['y'],1.245374300000094,1.792,,,,,,,,558,19,Woman,Right,,,,,,,,,,,,,,,,,558,19,Woman,Right,
4,2,0.15,0,180,0,0.8737899000002471,['y'],0.5779607999998007,1.87,,,,,,,,558,19,Woman,Right,,,,,,,,,,,,,,,,,558,19,Woman,Right,
4,2,0.15,180,0,180,0.16546610000023065,['y'],0.0757619999999406,1.85,,,,,,,,558,19,Woman,Right,,,,,,,,,,,,,,,,,558,19,Woman,Right,
4,2,0.15,180,0,180,0.2966489999998885,['y'],1.1307824000000437,1.85,,,,,,,,558,19,Woman,Right,,,,,,,,,,,,,,,,,558,19,Woman,Right,
4,2,0.15,180,0,180,0.6504767000001266,['y'],2.5572779999997692,1.85,,,,,,,,558,19,Woman,Right,,,,,,,,,,,,,,,,,558,19,Woman,Right,
4,2,0.15,0,180,180,0.4212702999998328,['y'],0.20345150000002832,1.85,,,,,,,,558,19,Woman,Right,,,,,,,,,,,,,,,,,558,19,Woman,Right,
4,2,0.4,180,0,180,0.7873147999998764,['y'],1.3567063999998936,1.8479999999999999,,,,,,,,558,19,Woman,Right,,,,,,,,,,,,,,,,,558,19,Woman,Right,
4,2,0.4,180,0,180,1.6544418999997106,['y'],1.1092855000001691,1.8479999999999999,,,,,,,,558,19,Woman,Right,,,,,,,,,,,,,,,,,558,19,Woman,Right,
4,2,0.15,180,0,0,0.35883800000010524,['y'],1.5247087000002466,1.8479999999999999,,,,,,,,558,19,Woman,Right,,,,,,,,,,,,,,,,,558,19,Woman,Right,
4,2,0.4,180,0,180,0.6317376000001786,['y'],1.0103403999996772,1.09,,,,,,,,558,19,Woman,Right,,,,,,,,,,,,,,,,,558,19,Woman,Right,
4,2,0.15,180,0,180,2.949418700000024,['y'],1.219200600000022,1.6680000000000001,,,,,,,,558,19,Woman,Right,,,,,,,,,,,,,,,,,558,19,Woman,Right,
4,2,0.15,180,0,180,0.4006749000000127,['y'],0.9041313999996419,1.556,,,,,,,,558,19,Woman,Right,,,,,,,,,,,,,,,,,558,19,Woman,Right,
4,2,0.4,180,0,0,1.6686147000000346,['y'],1.056736600000022,1.788,,,,,,,,558,19,Woman,Right,,,,,,,,,,,,,,,,,558,19,Woman,Right,
4,2,0.4,0,180,180,0.7297246000002815,['y'],1.7404555000002802,1.654,,,,,,,,558,19,Woman,Right,,,,,,,,,,,,,,,,,558,19,Woman,Right,
4,2,0.4,180,0,0,0.6146930999998403,['y'],0.7923964000001433,1.676,,,,,,,,558,19,Woman,Right,,,,,,,,,,,,,,,,,558,19,Woman,Right,
4,2,0.4,180,0,0,0.44908559999976205,['y'],1.025027399999999,1.6600000000000001,,,,,,,,558,19,Woman,Right,,,,,,,,,,,,,,,,,558,19,Woman,Right,
4,2,0.15,0,180,180,0.529989800000294,['y'],0.2715709000003699,1.6480000000000001,,,,,,,,558,19,Woman,Right,,,,,,,,,,,,,,,,,558,19,Woman,Right,
4,2,0.15,0,180,0,0.5956371000002036,['y'],1.1118200999999317,1.626,,,,,,,,558,19,Woman,Right,,,,,,,,,,,,,,,,,558,19,Woman,Right,
4,2,0.15,0,180,0,0.7829594999998335,['y'],0.8764543999996022,1.62,,,,,,,,558,19,Woman,Right,,,,,,,,,,,,,,,,,558,19,Woman,Right,
4,2,0.4,180,0,0,0.3492968999998993,['y'],0.22195060000012745,1.588,,,,,,,,558,19,Woman,Right,,,,,,,,,,,,,,,,,558,19,Woman,Right,
4,2,0.4,180,0,180,0.28091630000017176,['y'],0.7571434000001318,1.454,,,,,,,,558,19,Woman,Right,,,,,,,,,,,,,,,,,558,19,Woman,Right,
4,2,0.4,180,0,180,0.22064389999968625,['y'],0.22804350000023987,1.6,,,,,,,,558,19,Woman,Right,,,,,,,,,,,,,,,,,558,19,Woman,Right,
4,2,0.4,0,180,180,0.4456835000000865,['y'],0.9806414000004224,1.6600000000000001,,,,,,,,558,19,Woman,Right,,,,,,,,,,,,,,,,,558,19,Woman,Right,
4,2,0.4,0,180,0,0.5113364000003457,['y'],0.41316249999999854,1.654,,,,,,,,558,19,Woman,Right,,,,,,,,,,,,,,,,,558,19,Woman,Right,
4,2,0.4,180,0,0,0.3906725000001643,['y'],0.9384232000002157,1.6600000000000001,,,,,,,,558,19,Woman,Right,,,,,,,,,,,,,,,,,558,19,Woman,Right,
4,2,0.15,0,180,180,0.3730086999999003,['y'],0.9454685999999128,1.6600000000000001,,,,,,,,558,19,Woman,Right,,,,,,,,,,,,,,,,,558,19,Woman,Right,
4,2,0.4,180,0,0,0.32773050000014337,['y'],1.5675420999996277,1.6600000000000001,,,,,,,,558,19,Woman,Right,,,,,,,,,,,,,,,,,558,19,Woman,Right,
4,2,0.15,0,180,0,1.5383065999999417,['y'],1.242016700000022,1.22,,,,,,,,558,19,Woman,Right,,,,,,,,,,,,,,,,,558,19,Woman,Right,
4,2,0.4,180,0,180,0.23276290000012523,['y'],1.2384016999999403,1.956,,,,,,,,558,19,Woman,Right,,,,,,,,,,,,,,,,,558,19,Woman,Right,
4,2,0.4,0,180,180,1.0008732000001146,['y'],0.2916957000002185,1.94,,,,,,,,558,19,Woman,Right,,,,,,,,,,,,,,,,,558,19,Woman,Right,
4,2,0.4,0,180,0,0.2910996000000523,['y'],1.2973052000002099,1.866,,,,,,,,558,19,Woman,Right,,,,,,,,,,,,,,,,,558,19,Woman,Right,
4,2,0.4,180,0,0,0.6062082999997074,['y'],0.2478504000000612,1.846,,,,,,,,558,19,Woman,Right,,,,,,,,,,,,,,,,,558,19,Woman,Right,
4,2,0.4,0,180,180,0.4831629000000248,['y'],1.1870470999997451,1.724,,,,,,,,558,19,Woman,Right,,,,,,,,,,,,,,,,,558,19,Woman,Right,
4,2,0.4,0,180,180,0.3643856999997297,['y'],1.3704434000001129,1.726,,,,,,,,558,19,Woman,Right,,,,,,,,,,,,,,,,,558,19,Woman,Right,
4,2,0.15,0,180,180,1.6067803999999342,['y'],0.7793559000001551,1.726,,,,,,,,558,19,Woman,Right,,,,,,,,,,,,,,,,,558,19,Woman,Right,
4,2,0.4,180,0,180,0.47023380000018733,['y'],1.2904717000001256,1.726,,,,,,,,558,19,Woman,Right,,,,,,,,,,,,,,,,,558,19,Woman,Right,
4,2,0.15,0,180,180,0.2276091999997334,['y'],1.474476500000037,1.726,,,,,,,,558,19,Woman,Right,,,,,,,,,,,,,,,,,558,19,Woman,Right,
4,2,0.4,180,0,180,0.4893468000000212,['y'],1.3984034000000065,1.7,,,,,,,,558,19,Woman,Right,,,,,,,,,,,,,,,,,558,19,Woman,Right,
4,2,0.4,0,180,180,0.2726492000001599,['y'],1.4800384000000122,1.674,,,,,,,,558,19,Woman,Right,,,,,,,,,,,,,,,,,558,19,Woman,Right,
4,2,0.4,180,0,180,0.32936270000027434,['y'],1.831716900000174,1.6640000000000001,,,,,,,,558,19,Woman,Right,,,,,,,,,,,,,,,,,558,19,Woman,Right,
4,2,0.15,180,0,180,0.5494867000002159,['y'],0.9554990999999973,1.794,,,,,,,,558,19,Woman,Right,,,,,,,,,,,,,,,,,558,19,Woman,Right,
4,2,0.15,0,180,180,0.4776312999997572,['y'],0.09579219999977795,2.0,,,,,,,,558,19,Woman,Right,,,,,,,,,,,,,,,,,558,19,Woman,Right,
4,2,0.4,180,0,0,0.1335268999996515,['y'],0.21431219999976747,2.0,,,,,,,,558,19,Woman,Right,,,,,,,,,,,,,,,,,558,19,Woman,Right,
4,2,0.4,180,0,0,0.3574705000000904,['y'],0.501965299999938,2.0,,,,,,,,558,19,Woman,Right,,,,,,,,,,,,,,,,,558,19,Woman,Right,
4,2,0.4,0,180,180,0.20969819999982064,['y'],0.25729050000018105,2.0,,,,,,,,558,19,Woman,Right,,,,,,,,,,,,,,,,,558,19,Woman,Right,
4,2,0.15,180,0,180,0.5160009999999602,['y'],0.7195048000003226,1.416,,,,,,,,558,19,Woman,Right,,,,,,,,,,,,,,,,,558,19,Woman,Right,
4,2,0.15,0,180,0,0.8707089999998061,['y'],1.3981038000001718,1.388,,,,,,,,558,19,Woman,Right,,,,,,,,,,,,,,,,,558,19,Woman,Right,
4,2,0.4,0,180,0,0.30969480000021576,['y'],1.5968368999997438,1.684,,,,,,,,558,19,Woman,Right,,,,,,,,,,,,,,,,,558,19,Woman,Right,
4,2,0.4,180,0,180,0.4003605000002608,['y'],1.3203527999999096,1.752,,,,,,,,558,19,Woman,Right,,,,,,,,,,,,,,,,,558,19,Woman,Right,
4,2,0.4,180,0,0,0.2795091999996657,['y'],0.6988077999999405,1.748,,,,,,,,558,19,Woman,Right,,,,,,,,,,,,,,,,,558,19,Woman,Right,
4,2,0.4,0,180,180,0.6617330999997648,['y'],0.5773242999998729,1.748,,,,,,,,558,19,Woman,Right,,,,,,,,,,,,,,,,,558,19,Woman,Right,
4,2,0.4,0,180,180,0.24686110000038752,['y'],1.0923447999998643,1.748,,,,,,,,558,19,Woman,Right,,,,,,,,,,,,,,,,,558,19,Woman,Right,
4,2,0.15,180,0,180,1.1255504999999175,['y'],2.1282130000004145,1.874,,,,,,,,558,19,Woman,Right,,,,,,,,,,,,,,,,,558,19,Woman,Right,
4,2,0.4,0,180,0,0.5059561999996731,['y'],1.7199099999997998,1.862,,,,,,,,558,19,Woman,Right,,,,,,,,,,,,,,,,,558,19,Woman,Right,
4,2,0.4,180,0,180,0.9023204000000078,['y'],1.3967918999996982,1.826,,,,,,,,558,19,Woman,Right,,,,,,,,,,,,,,,,,558,19,Woman,Right,
4,2,0.15,0,180,0,0.4035486999996465,['y'],1.4718294999997852,1.138,,,,,,,,558,19,Woman,Right,,,,,,,,,,,,,,,,,558,19,Woman,Right,
4,2,0.15,0,180,0,1.1122384999998758,['y'],1.9120722000002388,1.808,,,,,,,,558,19,Woman,Right,,,,,,,,,,,,,,,,,558,19,Woman,Right,
4,2,0.4,180,0,0,0.4281264999999621,['y'],1.393201599999884,1.8,,,,,,,,558,19,Woman,Right,,,,,,,,,,,,,,,,,558,19,Woman,Right,
4,2,0.4,180,0,180,0.41727240000000165,['y'],0.8633572000003369,1.712,,,,,,,,558,19,Woman,Right,,,,,,,,,,,,,,,,,558,19,Woman,Right,
4,2,0.15,180,0,0,1.5841149000002588,['y'],1.1917145999996137,1.988,,,,,,,,558,19,Woman,Right,,,,,,,,,,,,,,,,,558,19,Woman,Right,
4,2,0.4,180,0,0,0.44433900000012727,['y'],5.132290199999716,1.8559999999999999,,,,,,,,558,19,Woman,Right,,,,,,,,,,,,,,,,,558,19,Woman,Right,
4,2,0.4,0,180,180,0.6226844999996501,['y'],1.7370287000003373,1.8559999999999999,,,,,,,,558,19,Woman,Right,,,,,,,,,,,,,,,,,558,19,Woman,Right,
4,2,0.15,0,180,0,0.768929400000161,['y'],2.0618171999999504,1.8559999999999999,,,,,,,,558,19,Woman,Right,,,,,,,,,,,,,,,,,558,19,Woman,Right,
4,2,0.15,0,180,0,0.4592011999998249,['y'],2.391491599999881,1.8559999999999999,,,,,,,,558,19,Woman,Right,,,,,,,,,,,,,,,,,558,19,Woman,Right,
4,2,0.15,0,180,180,0.4100279000003866,['y'],1.7367801999998846,1.8559999999999999,,,,,,,,558,19,Woman,Right,,,,,,,,,,,,,,,,,558,19,Woman,Right,
4,2,0.4,0,180,180,3.9230829000002814,['y'],0.09863029999996797,1.836,6,4,10,5,0.6,0.8,,558,19,Woman,Right,,,,,,,,,,,,,,,,,558,19,Woman,Right,
5,3,0.4,180,0,180,0.6470039000000725,['y'],1.2563747999997759,1.8940000000000001,,,,,,,,558,19,Woman,Right,,,,,,,,,,,,,,,,,558,19,Woman,Right,
5,3,0.4,180,0,0,0.6924294999998892,['y'],0.8291073999998844,1.696,,,,,,,,558,19,Woman,Right,,,,,,,,,,,,,,,,,558,19,Woman,Right,
5,3,1.0,180,-,0,0.5130463999998938,['y'],0.962126299999909,1.316,,,,,,,,558,19,Woman,Right,,,,,,,,,,,,,,,,,558,19,Woman,Right,
5,3,0.4,0,-,0,0.5082024999996975,['n'],0.3419131999999081,1.6360000000000001,,,,,,,,558,19,Woman,Right,,,,,,,,,,,,,,,,,558,19,Woman,Right,
5,3,1.0,180,-,180,0.4016185000000405,['n'],0.344141000000036,2.0,,,,,,,,558,19,Woman,Right,,,,,,,,,,,,,,,,,558,19,Woman,Right,
5,3,0.15,0,180,180,0.5464605000001939,['y'],0.28548030000001745,1.8860000000000001,,,,,,,,558,19,Woman,Right,,,,,,,,,,,,,,,,,558,19,Woman,Right,
5,3,0.15,0,-,0,0.5704322999999931,['y'],0.5162086000000272,1.958,,,,,,,,558,19,Woman,Right,,,,,,,,,,,,,,,,,558,19,Woman,Right,
5,3,0.15,0,180,180,0.45901969999977155,['y'],0.5385314000000108,1.962,,,,,,,,558,19,Woman,Right,,,,,,,,,,,,,,,,,558,19,Woman,Right,
5,3,0.15,0,-,0,0.42238310000038837,['y'],0.6315396999998484,1.8900000000000001,,,,,,,,558,19,Woman,Right,,,,,,,,,,,,,,,,,558,19,Woman,Right,
5,3,0.15,180,0,180,0.2737077000001591,['y'],1.7947722000003523,1.8900000000000001,,,,,,,,558,19,Woman,Right,,,,,,,,,,,,,,,,,558,19,Woman,Right,
5,3,0.15,0,180,0,0.40268319999995583,['y'],2.5444869999996627,1.876,,,,,,,,558,19,Woman,Right,,,,,,,,,,,,,,,,,558,19,Woman,Right,
5,3,0.4,0,-,180,0.16856250000000728,['y'],1.5119292999997924,1.876,,,,,,,,558,19,Woman,Right,,,,,,,,,,,,,,,,,558,19,Woman,Right,
5,3,0.15,0,-,0,0.38378179999972417,['y'],0.1033066999998482,2.0,,,,,,,,558,19,Woman,Right,,,,,,,,,,,,,,,,,558,19,Woman,Right,
5,3,0.15,0,180,180,0.40160470000000714,['y'],0.5292770000000928,2.0,,,,,,,,558,19,Woman,Right,,,,,,,,,,,,,,,,,558,19,Woman,Right,
5,3,1.0,0,-,0,0.9676078000002235,['y'],0.17684680000002118,1.938,,,,,,,,558,19,Woman,Right,,,,,,,,,,,,,,,,,558,19,Woman,Right,
5,3,1.0,0,180,180,3.2398517999999967,['y'],1.4611658999997417,1.888,,,,,,,,558,19,Woman,Right,,,,,,,,,,,,,,,,,558,19,Woman,Right,
5,3,1.0,0,180,0,0.49628819999998086,['y'],1.1831056999999419,1.8,,,,,,,,558,19,Woman,Right,,,,,,,,,,,,,,,,,558,19,Woman,Right,
5,3,0.4,180,0,180,0.39165520000005927,['y'],1.6122676999998475,1.784,,,,,,,,558,19,Woman,Right,,,,,,,,,,,,,,,,,558,19,Woman,Right,
5,3,0.4,180,0,0,0.5061940999999024,['y'],1.0360452999998415,2.0,,,,,,,,558,19,Woman,Right,,,,,,,,,,,,,,,,,558,19,Woman,Right,
5,3,0.15,180,0,180,0.30406049999965035,['y'],1.8523863999998866,1.08,,,,,,,,558,19,Woman,Right,,,,,,,,,,,,,,,,,558,19,Woman,Right,
5,3,1.0,0,180,0,1.4440835999998853,['y'],2.2017736000002515,1.966,,,,,,,,558,19,Woman,Right,,,,,,,,,,,,,,,,,558,19,Woman,Right,
5,3,1.0,180,0,180,0.3233445999999276,['y'],1.4644639999996798,1.932,,,,,,,,558,19,Woman,Right,,,,,,,,,,,,,,,,,558,19,Woman,Right,
5,3,1.0,180,0,180,0.6340132999998787,['y'],0.8349064000003636,1.854,,,,,,,,558,19,Woman,Right,,,,,,,,,,,,,,,,,558,19,Woman,Right,
5,3,0.15,180,-,180,0.2730047000000013,['y'],0.08262299999978495,1.854,,,,,,,,558,19,Woman,Right,,,,,,,,,,,,,,,,,558,19,Woman,Right,
5,3,0.4,0,180,180,0.253298900000118,['y'],0.44756389999975,1.944,,,,,,,,558,19,Woman,Right,,,,,,,,,,,,,,,,,558,19,Woman,Right,
5,3,1.0,0,-,0,0.5600891999997657,['y'],0.8719151000000238,1.174,,,,,,,,558,19,Woman,Right,,,,,,,,,,,,,,,,,558,19,Woman,Right,
5,3,1.0,0,180,180,1.2382073999997374,['y'],0.21078440000019327,2.0,,,,,,,,558,19,Woman,Right,,,,,,,,,,,,,,,,,558,19,Woman,Right,
5,3,0.4,180,-,0,0.7518819000001713,['y'],1.5218917000001966,1.976,,,,,,,,558,19,Woman,Right,,,,,,,,,,,,,,,,,558,19,Woman,Right,
5,3,1.0,180,0,0,0.5237456999998358,['y'],1.2875176000002284,2.0,,,,,,,,558,19,Woman,Right,,,,,,,,,,,,,,,,,558,19,Woman,Right,
5,3,0.4,0,-,180,0.4448308000000907,['y'],1.053409499999816,2.0,,,,,,,,558,19,Woman,Right,,,,,,,,,,,,,,,,,558,19,Woman,Right,
5,3,0.4,0,180,180,0.25255330000027243,['y'],1.7019529999997758,2.0,,,,,,,,558,19,Woman,Right,,,,,,,,,,,,,,,,,558,19,Woman,Right,
5,3,0.15,0,-,180,0.27794449999964854,['n'],0.5673234999999295,2.0,,,,,,,,558,19,Woman,Right,,,,,,,,,,,,,,,,,558,19,Woman,Right,
5,3,1.0,180,0,180,1.9189387000001261,['y'],1.801397900000211,2.0,,,,,,,,558,19,Woman,Right,,,,,,,,,,,,,,,,,558,19,Woman,Right,
5,3,0.15,0,180,180,1.8018629000002875,['n'],1.3355783999995765,1.312,,,,,,,,558,19,Woman,Right,,,,,,,,,,,,,,,,,558,19,Woman,Right,
5,3,1.0,180,0,180,0.5583457000002454,['y'],1.3271448000000419,1.264,,,,,,,,558,19,Woman,Right,,,,,,,,,,,,,,,,,558,19,Woman,Right,
5,3,0.15,180,0,180,0.251649499999985,['y'],1.0180669000001217,1.736,,,,,,,,558,19,Woman,Right,,,,,,,,,,,,,,,,,558,19,Woman,Right,
5,3,0.15,180,-,180,1.731728600000224,['y'],3.0874916000002486,1.742,,,,,,,,558,19,Woman,Right,,,,,,,,,,,,,,,,,558,19,Woman,Right,
5,3,1.0,180,0,180,0.40672159999985524,['y'],0.6177522999996654,2.0,,,,,,,,558,19,Woman,Right,,,,,,,,,,,,,,,,,558,19,Woman,Right,
5,3,0.15,180,0,0,2.418878599999971,['y'],0.8603457999997772,2.0,,,,,,,,558,19,Woman,Right,,,,,,,,,,,,,,,,,558,19,Woman,Right,
5,3,0.4,180,-,0,1.0551021000001128,['y'],1.2501219000000674,1.304,,,,,,,,558,19,Woman,Right,,,,,,,,,,,,,,,,,558,19,Woman,Right,
5,3,1.0,180,-,0,1.4284241000000293,['y'],2.433686899999884,1.988,,,,,,,,558,19,Woman,Right,,,,,,,,,,,,,,,,,558,19,Woman,Right,
5,3,0.15,180,-,180,0.3208377000000837,['y'],0.34786280000025727,1.978,,,,,,,,558,19,Woman,Right,,,,,,,,,,,,,,,,,558,19,Woman,Right,
5,3,0.4,0,180,180,1.2771251000003758,['y'],0.23398050000014337,1.976,,,,,,,,558,19,Woman,Right,,,,,,,,,,,,,,,,,558,19,Woman,Right,
5,3,0.4,0,180,0,0.6575206000002254,['y'],1.7201928999998017,1.924,,,,,,,,558,19,Woman,Right,,,,,,,,,,,,,,,,,558,19,Woman,Right,
5,3,1.0,0,180,0,0.5470332999998391,['y'],1.3281750000001011,2.0,,,,,,,,558,19,Woman,Right,,,,,,,,,,,,,,,,,558,19,Woman,Right,
5,3,0.4,0,-,180,3.174489700000322,['y'],6.017674300000181,1.3860000000000001,,,,,,,,558,19,Woman,Right,,,,,,,,,,,,,,,,,558,19,Woman,Right,
5,3,1.0,0,180,0,1.1924395000000914,['y'],1.4704660999996122,2.0,,,,,,,,558,19,Woman,Right,,,,,,,,,,,,,,,,,558,19,Woman,Right,
5,3,1.0,0,180,180,0.9808032999999341,['y'],1.8709494999998242,1.986,,,,,,,,558,19,Woman,Right,,,,,,,,,,,,,,,,,558,19,Woman,Right,
5,3,1.0,180,0,180,2.3136303000001135,['y'],0.37170849999984057,2.0,,,,,,,,558,19,Woman,Right,,,,,,,,,,,,,,,,,558,19,Woman,Right,
5,3,0.4,0,-,0,0.9630490999998074,['y'],0.39007279999987077,2.0,,,,,,,,558,19,Woman,Right,,,,,,,,,,,,,,,,,558,19,Woman,Right,
5,3,0.4,180,-,180,0.2996947999999975,['y'],0.3142220999998244,1.92,,,,,,,,558,19,Woman,Right,,,,,,,,,,,,,,,,,558,19,Woman,Right,
5,3,1.0,0,180,180,0.2726545000000442,['y'],0.12933040000007168,1.916,,,,,,,,558,19,Woman,Right,,,,,,,,,,,,,,,,,558,19,Woman,Right,
5,3,1.0,0,180,180,0.3421024999997826,['y'],0.07689279999976861,1.842,,,,,,,,558,19,Woman,Right,,,,,,,,,,,,,,,,,558,19,Woman,Right,
5,3,0.15,180,-,180,0.3357221999999638,['y'],0.8151032000000669,1.4060000000000001,,,,,,,,558,19,Woman,Right,,,,,,,,,,,,,,,,,558,19,Woman,Right,
5,3,1.0,180,-,180,0.29189780000024257,['y'],1.8081039999997301,1.322,,,,,,,,558,19,Woman,Right,,,,,,,,,,,,,,,,,558,19,Woman,Right,
5,3,0.4,180,-,180,0.2582985000003646,['y'],0.6235790999999153,1.834,,,,,,,,558,19,Woman,Right,,,,,,,,,,,,,,,,,558,19,Woman,Right,
5,3,0.4,180,-,180,0.39876849999973274,['y'],0.22403590000021723,2.0,,,,,,,,558,19,Woman,Right,,,,,,,,,,,,,,,,,558,19,Woman,Right,
5,3,0.15,0,180,0,0.6962885999992068,['n'],0.3019736999995075,2.0,,,,,,,,558,19,Woman,Right,,,,,,,,,,,,,,,,,558,19,Woman,Right,
5,3,0.15,180,0,180,1.8238375000000815,['y'],1.1849437000000762,2.0,,,,,,,,558,19,Woman,Right,,,,,,,,,,,,,,,,,558,19,Woman,Right,
5,3,0.15,180,-,180,2.7559738999998444,['y'],1.6470737999998164,1.802,8,6,10,6,0.8,1.0,,558,19,Woman,Right,,,,,,,,,,,,,,,,,558,19,Woman,Right,
,,,,,,,,,,,,,,,,5.099999725644011e-06,558,19,Woman,Right,,,,,,,,,,,,,,,,,558,19,Woman,Right,
,,,,,,,,,,,,,,,,,558,19,Woman,Right,0,11,0.4,2,180,0,180,0.1441554000002725,['y'],1.5405440000004091,1.3980000000000001,2114.6736806999997,,,,,558,19,Woman,Right,
,,,,,,,,,,,,,,,,,558,19,Woman,Right,0,75,0.15,2,180,0,180,1.211074699999699,['y'],1.0214088000002448,1.73,2119.4795738000003,,,,,558,19,Woman,Right,
,,,,,,,,,,,,,,,,,558,19,Woman,Right,0,28,0.4,1,0,-,0,0.20320689999971364,['y'],1.1505299000000377,1.6059999999999999,2123.6659864000003,,,,,558,19,Woman,Right,
,,,,,,,,,,,,,,,,,558,19,Woman,Right,0,20,0.4,1,0,-,180,1.1607418000003236,['y'],0.8546629000002213,1.79,2128.2706424,,,,,558,19,Woman,Right,
,,,,,,,,,,,,,,,,,558,19,Woman,Right,0,55,0.15,2,180,0,180,0.027161599999999453,['y'],0.9667163000003711,1.676,2131.8576754999995,,,,,558,19,Woman,Right,
,,,,,,,,,,,,,,,,,558,19,Woman,Right,0,12,0.4,1,0,-,180,0.2899409999999989,['y'],1.5115911999992022,1.956,2136.4287655,,,,,558,19,Woman,Right,
,,,,,,,,,,,,,,,,,558,19,Woman,Right,0,61,0.15,2,0,180,0,0.6457992999994531,['y'],1.0316913000006025,1.8519999999999999,2142.2679522,,,,,558,19,Woman,Right,
,,,,,,,,,,,,,,,,,558,19,Woman,Right,0,9,0.4,2,0,180,180,0.6873673000000053,['y'],0.9853420999997979,1.8519999999999999,2146.7556667999997,,,,,558,19,Woman,Right,
,,,,,,,,,,,,,,,,,558,19,Woman,Right,0,5,1,2,0,180,180,0.3291171000000759,['y'],0.9537491999999475,1.8519999999999999,2150.8765001,,,,,558,19,Woman,Right,
,,,,,,,,,,,,,,,,,558,19,Woman,Right,0,71,0.15,2,180,0,180,0.9900532999999996,['n'],1.0102404999997816,1.16,2156.2151385999996,,,,,558,19,Woman,Right,
,,,,,,,,,,,,,,,,,558,19,Woman,Right,0,32,0.4,1,0,-,180,0.01670430000012857,['y'],1.327413400000296,1.162,2160.3691444999995,,,,,558,19,Woman,Right,
,,,,,,,,,,,,,,,,,558,19,Woman,Right,0,38,0.4,1,180,-,180,0.042621600000529725,['n'],1.2915077999996356,1.716,2165.941462,,,,,558,19,Woman,Right,
,,,,,,,,,,,,,,,,,558,19,Woman,Right,0,4,1,1,0,-,0,0.575334400000429,['y'],1.5961352000003899,1.716,2170.6129690999996,,,,,558,19,Woman,Right,
,,,,,,,,,,,,,,,,,558,19,Woman,Right,0,36,0.4,1,0,-,180,0.3516928999997617,['y'],1.165117999999893,1.716,2174.7837438999995,,,,,558,19,Woman,Right,
,,,,,,,,,,,,,,,,,558,19,Woman,Right,0,23,0.4,2,180,0,180,0.4924438000007285,['y'],1.1652721999998903,1.716,2179.3217735,,,,,558,19,Woman,Right,
,,,,,,,,,,,,,,,,,558,19,Woman,Right,0,30,0.4,1,180,-,180,1.0988108000001375,['y'],1.2542738000001918,1.716,2184.6267159,,,,,558,19,Woman,Right,
,,,,,,,,,,,,,,,,,558,19,Woman,Right,0,25,0.4,2,0,180,180,0.4281576999992467,['y'],0.7986897000000681,1.716,2188.4304836,,,,,558,19,Woman,Right,
,,,,,,,,,,,,,,,,,558,19,Woman,Right,0,14,0.4,1,180,-,0,1.4424043999997593,['y'],1.0076518999994732,1.716,2188.4304836,,,,,558,19,Woman,Right,
,,,,,,,,,,,,,,,,,558,19,Woman,Right,0,21,0.4,2,0,180,180,1.4387462999993659,['n'],0.9840910000002623,1.716,2199.2913084,,,,,558,19,Woman,Right,
,,,,,,,,,,,,,,,,,558,19,Woman,Right,0,16,0.4,1,0,-,180,5.7890581000001475,['y'],1.2013758999992206,1.708,2208.7507766,,,,,558,19,Woman,Right,
,,,,,,,,,,,,,,,,,558,19,Woman,Right,0,19,0.4,2,180,0,180,0.250249800000347,['y'],0.3800897000000987,1.71,2212.1209088999994,,,,,558,19,Woman,Right,
,,,,,,,,,,,,,,,,,558,19,Woman,Right,0,69,0.15,2,0,180,180,0.12291230000028008,['y'],0.7788356999999451,1.71,2215.8582533999997,,,,,558,19,Woman,Right,
,,,,,,,,,,,,,,,,,558,19,Woman,Right,0,79,0.15,2,180,0,180,1.6010455000005095,['y'],0.6349403000003804,1.71,2220.6795113,,,,,558,19,Woman,Right,
,,,,,,,,,,,,,,,,,558,19,Woman,Right,0,17,0.4,2,0,180,180,0.16813590000037948,['y'],0.4989002000002074,1.71,2223.8660466,,,,,558,19,Woman,Right,
,,,,,,,,,,,,,,,,,558,19,Woman,Right,0,24,0.4,1,0,-,180,0.06425250000029337,['y'],0.4756422999998904,2.0,2227.5362121999997,,,,,558,19,Woman,Right,
,,,,,,,,,,,,,,,,,558,19,Woman,Right,0,65,0.15,2,0,180,180,0.020444900000256894,['y'],0.4919933000001038,1.738,2231.3067447000003,,,,,558,19,Woman,Right,
,,,,,,,,,,,,,,,,,558,19,Woman,Right,0,35,0.4,2,180,0,180,0.09702999999990425,['y'],0.6922414999999091,1.732,2234.6098215,,,,,558,19,Woman,Right,
,,,,,,,,,,,,,,,,,558,19,Woman,Right,0,43,0.4,2,180,0,180,0.23999710000043706,['y'],0.46915810000064084,1.732,2237.6295365999995,,,,,558,19,Woman,Right,
,,,,,,,,,,,,,,,,,558,19,Woman,Right,0,26,0.4,1,180,-,0,0.7182813999997961,['y'],1.029564699999355,1.774,2242.1340615999998,,,,,558,19,Woman,Right,
,,,,,,,,,,,,,,,,,558,19,Woman,Right,0,58,0.15,1,180,-,0,0.3085167999997793,['y'],0.6463724000004731,1.774,2245.5376871999997,,,,,558,19,Woman,Right,
,,,,,,,,,,,,,,,,,558,19,Woman,Right,0,18,0.4,1,180,-,180,0.01692079999975249,['y'],0.5746893000005002,1.766,2248.4071858999996,,,,,558,19,Woman,Right,
,,,,,,,,,,,,,,,,,558,19,Woman,Right,0,22,0.4,1,180,-,180,0.1601267000005464,['y'],0.5111096999999063,1.766,2251.7609727999998,,,,,558,19,Woman,Right,
,,,,,,,,,,,,,,,,,558,19,Woman,Right,0,77,0.15,2,0,180,180,0.2479667999996309,['y'],0.7912956999998642,1.766,2256.3815127,,,,,558,19,Woman,Right,
,,,,,,,,,,,,,,,,,558,19,Woman,Right,0,48,0.15,1,0,-,0,0.35774290000063047,['n'],1.8000502000004417,1.952,2262.0204820999998,,,,,558,19,Woman,Right,
,,,,,,,,,,,,,,,,,558,19,Woman,Right,0,0,1,1,0,-,180,0.40971780000018043,['y'],1.1209182999991754,1.952,2266.2913839000003,,,,,558,19,Woman,Right,
,,,,,,,,,,,,,,,,,558,19,Woman,Right,0,72,0.15,1,0,-,180,0.016679499999554537,['y'],0.7599106000006941,1.926,2269.9949986,,,,,558,19,Woman,Right,
,,,,,,,,,,,,,,,,,558,19,Woman,Right,0,53,0.15,2,0,180,180,0.04996779999964929,['y'],0.5051530000000639,1.92,2273.0650024999995,,,,,558,19,Woman,Right,
,,,,,,,,,,,,,,,,,558,19,Woman,Right,0,67,0.15,2,180,0,180,0.3890049000001454,['y'],0.7061078000006091,1.92,2277.3523711999997,,,,,558,19,Woman,Right,
,,,,,,,,,,,,,,,,,558,19,Woman,Right,0,42,0.4,1,180,-,180,1.0177109999995082,['y'],1.4605726999998296,1.92,2282.3245701999995,,,,,558,19,Woman,Right,
,,,,,,,,,,,,,,,,,558,19,Woman,Right,0,39,0.4,2,180,0,0,0.8250918000003367,['y'],0.9076656000006551,1.92,2287.3126927000003,,,,,558,19,Woman,Right,
,,,,,,,,,,,,,,,,,558,19,Woman,Right,0,37,0.4,2,0,180,180,0.18487850000019534,['y'],1.1958009999998467,1.5939999999999999,2291.6502490000003,,,,,558,19,Woman,Right,
,,,,,,,,,,,,,,,,,558,19,Woman,Right,0,1,1,2,0,180,180,0.18452870000055555,['y'],0.8526140999993004,1.6219999999999999,2295.9379561999995,,,,,558,19,Woman,Right,
,,,,,,,,,,,,,,,,,558,19,Woman,Right,0,68,0.15,1,0,-,0,1.7343680000003587,['n'],1.1252383000000918,1.8519999999999999,2301.5265334999995,,,,,558,19,Woman,Right,
,,,,,,,,,,,,,,,,,558,19,Woman,Right,0,74,0.15,1,180,-,180,0.2449464999999691,['y'],1.2301377000003413,1.8519999999999999,2305.8975073,,,,,558,19,Woman,Right,
,,,,,,,,,,,,,,,,,558,19,Woman,Right,0,8,0.4,1,0,-,0,0.5946028999996997,['y'],0.791092700000263,2.0,2310.5856225999996,,,,,558,19,Woman,Right,
,,,,,,,,,,,,,,,,,558,19,Woman,Right,0,60,0.15,1,0,-,180,0.38287750000017695,['y'],1.0235354999995252,2.0,2314.7395945,,,,,558,19,Woman,Right,
,,,,,,,,,,,,,,,,,558,19,Woman,Right,0,46,0.15,1,180,-,180,0.4728869000000486,['y'],1.6478302999994412,1.3679999999999999,2319.9782342,,,,,558,19,Woman,Right,
,,,,,,,,,,,,,,,,,558,19,Woman,Right,0,56,0.15,1,0,-,180,0.3958929000000353,['y'],2.648506099999395,1.732,2326.0342712,,,,,558,19,Woman,Right,
,,,,,,,,,,,,,,,,,558,19,Woman,Right,0,59,0.15,2,180,0,180,2.7028710999993564,['n'],1.99305269999968,1.73,2333.6917839,,,,,558,19,Woman,Right,
,,,,,,,,,,,,,,,,,558,19,Woman,Right,0,62,0.15,1,180,-,180,2.7418419000005088,['y'],1.1382802999996784,1.804,2341.0158786,,,,,558,19,Woman,Right,
,,,,,,,,,,,,,,,,,558,19,Woman,Right,0,29,0.4,2,0,180,180,0.29587760000049457,['y'],1.107039700000314,2.0,2345.4870337,,,,,558,19,Woman,Right,
,,,,,,,,,,,,,,,,,558,19,Woman,Right,0,57,0.15,2,0,180,180,0.7463041000000885,['n'],0.7642190999995364,2.0,2352.8109563999997,,,,,558,19,Woman,Right,
,,,,,,,,,,,,,,,,,558,19,Woman,Right,0,10,0.4,1,180,-,180,0.5240382000001773,['n'],0.4363647000000128,2.0,2356.6648798999995,,,,,558,19,Woman,Right,
,,,,,,,,,,,,,,,,,558,19,Woman,Right,0,15,0.4,2,180,0,180,0.2838809000004403,['y'],1.101212200000191,2.0,2360.335158,,,,,558,19,Woman,Right,
,,,,,,,,,,,,,,,,,558,19,Woman,Right,0,63,0.15,2,180,0,180,0.31409309999980906,['y'],0.7335435999993933,1.994,2364.1897877,,,,,558,19,Woman,Right,
,,,,,,,,,,,,,,,,,558,19,Woman,Right,0,3,1,2,180,0,180,0.42106060000060097,['y'],0.7823708999994778,1.994,2367.7258593999995,,,,,558,19,Woman,Right,
,,,,,,,,,,,,,,,,,558,19,Woman,Right,0,51,0.15,2,180,0,180,0.885770699999739,['y'],2.0066657999996096,1.994,2373.9653805999997,,,,,558,19,Woman,Right,
,,,,,,,,,,,,,,,,,558,19,Woman,Right,0,66,0.15,1,180,-,180,0.6099353999998129,['y'],1.5840451000003668,1.926,2378.7201808,,,,,558,19,Woman,Right,
,,,,,,,,,,,,,,,,,558,19,Woman,Right,0,41,0.4,2,0,180,0,0.6470745999995415,['n'],1.1842929000004006,1.9020000000000001,2383.3580727,,,,,558,19,Woman,Right,
,,,,,,,,,,,,,,,,,558,19,Woman,Right,0,31,0.4,2,180,0,0,2.5341699000000517,['n'],1.0004300999999032,1.786,2389.7643943000003,,,,,558,19,Woman,Right,
,,,,,,,,,,,,,,,,,558,19,Woman,Right,0,44,0.15,1,0,-,180,0.024126999999680265,['y'],0.7286579999999958,1.762,2392.9510026,,,,,558,19,Woman,Right,
,,,,,,,,,,,,,,,,,558,19,Woman,Right,0,27,0.4,2,180,0,180,0.17434090000006108,['n'],0.9534628000001248,1.754,2396.3542515,,,,,558,19,Woman,Right,
,,,,,,,,,,,,,,,,,558,19,Woman,Right,0,45,0.15,2,0,180,0,1.2183242999999493,['n'],0.5681557999996585,1.75,2400.7255655,,,,,558,19,Woman,Right,
,,,,,,,,,,,,,,,,,558,19,Woman,Right,0,49,0.15,2,0,180,180,3.668936600000052,['y'],1.0109591999998884,1.776,2409.850985,,,,,558,19,Woman,Right,
,,,,,,,,,,,,,,,,,558,19,Woman,Right,0,34,0.4,1,180,-,0,0.30274199999985285,['n'],1.708993800000826,1.1320000000000001,2415.9070258,,,,,558,19,Woman,Right,
,,,,,,,,,,,,,,,,,558,19,Woman,Right,0,33,0.4,2,0,180,0,0.2581786999999167,['n'],1.093454599999859,1.1019999999999999,2421.1956597,,,,,558,19,Woman,Right,
,,,,,,,,,,,,,,,,,558,19,Woman,Right,0,64,0.15,1,0,-,180,0.5395909999997457,['y'],1.0936161999998149,1.686,2426.2507477,,,,,558,19,Woman,Right,
,,,,,,,,,,,,,,,,,558,19,Woman,Right,0,13,0.4,2,0,180,0,0.2179016000000047,['y'],0.6779620000006616,1.928,2429.6041379999997,,,,,558,19,Woman,Right,
,,,,,,,,,,,,,,,,,558,19,Woman,Right,0,7,1,2,180,0,180,0.9706964999995762,['y'],1.0788242000007813,1.208,2434.3930405,,,,,558,19,Woman,Right,
,,,,,,,,,,,,,,,,,558,19,Woman,Right,0,2,1,1,180,-,0,0.7023174000005383,['y'],1.3992765000002692,1.424,2439.4641212999995,,,,,558,19,Woman,Right,
,,,,,,,,,,,,,,,,,558,19,Woman,Right,0,73,0.15,2,0,180,0,0.679570600000261,['y'],0.8242837999996482,1.988,2444.218685,,,,,558,19,Woman,Right,
,,,,,,,,,,,,,,,,,558,19,Woman,Right,0,6,1,1,180,-,180,0.25373020000006363,['y'],0.8165453000001435,1.918,2448.4897684,,,,,558,19,Woman,Right,
,,,,,,,,,,,,,,,,,558,19,Woman,Right,0,50,0.15,1,180,-,0,0.7005471000002217,['y'],1.4292826999999306,1.918,2453.1441919999997,,,,,558,19,Woman,Right,
,,,,,,,,,,,,,,,,,558,19,Woman,Right,0,70,0.15,1,180,-,180,0.33712480000031064,['y'],0.793550200000027,1.932,2457.2157208999997,,,,,558,19,Woman,Right,
,,,,,,,,,,,,,,,,,558,19,Woman,Right,0,47,0.15,2,180,0,180,0.5273673000001509,['y'],1.0018011000001934,1.92,2461.2526037999996,,,,,558,19,Woman,Right,
,,,,,,,,,,,,,,,,,558,19,Woman,Right,0,78,0.15,1,180,-,180,1.1479331000000457,['n'],0.7547640000002502,1.976,2466.4243300999997,,,,,558,19,Woman,Right,
,,,,,,,,,,,,,,,,,558,19,Woman,Right,0,52,0.15,1,0,-,0,0.8403421000002709,['y'],1.1321054999998523,1.796,2470.8953018,,,,,558,19,Woman,Right,
,,,,,,,,,,,,,,,,,558,19,Woman,Right,0,40,0.4,1,0,-,0,0.08361789999980829,['y'],0.6518957999996928,1.776,2474.1151334999995,,,,,558,19,Woman,Right,
,,,,,,,,,,,,,,,,,558,19,Woman,Right,0,54,0.15,1,180,-,180,0.01688430000012886,['y'],0.5494015000003856,1.87,2477.6855531,,,,,558,19,Woman,Right,
,,,,,,,,,,,,,,,,,558,19,Woman,Right,0,76,0.15,1,0,-,180,0.49506060000021535,['y'],0.8689242999998896,1.82,2481.7893855,,,,,558,19,Woman,Right,
,,,,,,,,,,,,,,,,,558,19,Woman,Right,1,31,0.4,2,180,0,180,0.27837730000010197,['y'],1.3665508000003683,1.9060000000000001,2498.7896799,46.25,15.0,77.5,,558,19,Woman,Right,
,,,,,,,,,,,,,,,,,558,19,Woman,Right,1,69,0.15,2,0,180,180,0.016890699999748904,['y'],0.7267408999996405,1.6139999999999999,2502.6936183999997,,,,,558,19,Woman,Right,
,,,,,,,,,,,,,,,,,558,19,Woman,Right,1,53,0.15,2,0,180,180,0.8510551999997915,['n'],0.7762941000000865,1.6139999999999999,2506.5475312999997,,,,,558,19,Woman,Right,
,,,,,,,,,,,,,,,,,558,19,Woman,Right,1,25,0.4,2,0,180,0,0.1794075999996494,['y'],1.7530963999997766,1.722,2511.5022987,,,,,558,19,Woman,Right,
,,,,,,,,,,,,,,,,,558,19,Woman,Right,1,22,0.4,1,180,-,180,0.2224858999998105,['n'],1.0251330999999482,1.724,2515.0396109000003,,,,,558,19,Woman,Right,
,,,,,,,,,,,,,,,,,558,19,Woman,Right,1,18,0.4,1,180,-,180,0.10340580000047339,['y'],1.3857083000002604,1.724,2519.7271370999997,,,,,558,19,Woman,Right,
,,,,,,,,,,,,,,,,,558,19,Woman,Right,1,13,0.4,2,0,180,0,0.0918599999995422,['n'],1.3780970999996498,1.762,2523.7978465999995,,,,,558,19,Woman,Right,
,,,,,,,,,,,,,,,,,558,19,Woman,Right,1,54,0.15,1,180,-,180,0.30999210000027233,['n'],0.7311491999998907,1.762,2527.0511141999996,,,,,558,19,Woman,Right,
,,,,,,,,,,,,,,,,,558,19,Woman,Right,1,58,0.15,1,180,-,180,0.5632315999991988,['y'],0.9236914000002798,1.762,2530.9384721999995,,,,,558,19,Woman,Right,
,,,,,,,,,,,,,,,,,558,19,Woman,Right,1,3,1,2,180,0,180,0.2729334999994535,['y'],0.9637941999999384,1.956,2534.6255978,,,,,558,19,Woman,Right,
,,,,,,,,,,,,,,,,,558,19,Woman,Right,1,39,0.4,2,180,0,0,0.13580910000018775,['y'],1.0444686999999249,1.85,2538.4461068,,,,,558,19,Woman,Right,
,,,,,,,,,,,,,,,,,558,19,Woman,Right,1,76,0.15,1,0,-,180,0.9181122999998479,['y'],1.2209633000002214,1.918,2545.0190313000003,,,,,558,19,Woman,Right,
,,,,,,,,,,,,,,,,,558,19,Woman,Right,1,21,0.4,2,0,180,0,0.5862768999995751,['n'],2.101458599999205,1.924,2550.4244868999995,,,,,558,19,Woman,Right,
,,,,,,,,,,,,,,,,,558,19,Woman,Right,1,79,0.15,2,180,0,180,0.306078399999933,['y'],1.0151882999998634,1.924,2554.0613833999996,,,,,558,19,Woman,Right,
,,,,,,,,,,,,,,,,,558,19,Woman,Right,1,78,0.15,1,180,-,0,0.5238484999999855,['y'],1.1989645000003293,1.924,2558.2990643000003,,,,,558,19,Woman,Right,
,,,,,,,,,,,,,,,,,558,19,Woman,Right,1,50,0.15,1,180,-,180,0.5090201000002708,['y'],0.9353657999999996,1.76,2563.7877286000003,,,,,558,19,Woman,Right,
,,,,,,,,,,,,,,,,,558,19,Woman,Right,1,42,0.4,1,180,-,180,1.5336821999999302,['n'],1.7364463000003525,1.286,2569.7937292999995,,,,,558,19,Woman,Right,
,,,,,,,,,,,,,,,,,558,19,Woman,Right,1,65,0.15,2,0,180,180,1.727699100000791,['y'],1.2578972999999678,1.67,2576.4171348,,,,,558,19,Woman,Right,
,,,,,,,,,,,,,,,,,558,19,Woman,Right,1,77,0.15,2,0,180,0,0.2662716000004366,['y'],2.1940800000002127,1.956,2581.7556847999995,,,,,558,19,Woman,Right,
,,,,,,,,,,,,,,,,,558,19,Woman,Right,1,27,0.4,2,180,0,180,0.3428647999999157,['y'],1.0343002999998134,1.962,2585.4926956,,,,,558,19,Woman,Right,
,,,,,,,,,,,,,,,,,558,19,Woman,Right,1,9,0.4,2,0,180,180,0.09383130000060191,['y'],0.866811200000484,1.956,2588.7626259999997,,,,,558,19,Woman,Right,
,,,,,,,,,,,,,,,,,558,19,Woman,Right,1,32,0.4,1,0,-,0,1.1783346000001984,['y'],0.8348610000002736,1.954,2593.0339895999996,,,,,558,19,Woman,Right,
,,,,,,,,,,,,,,,,,558,19,Woman,Right,1,66,0.15,1,180,-,180,0.2737918000002537,['y'],0.5641452999998364,1.95,2596.1866425999997,,,,,558,19,Woman,Right,
,,,,,,,,,,,,,,,,,558,19,Woman,Right,1,19,0.4,2,180,0,180,1.0305904999995619,['y'],0.9563865000000078,1.972,2600.5244131,,,,,558,19,Woman,Right,
,,,,,,,,,,,,,,,,,558,19,Woman,Right,1,73,0.15,2,0,180,180,0.38813109999955486,['y'],0.8928259000003891,1.876,2604.7463796,,,,,558,19,Woman,Right,
,,,,,,,,,,,,,,,,,558,19,Woman,Right,1,24,0.4,1,0,-,180,0.2772895999996763,['y'],1.0935699999999997,1.092,2608.6498105,,,,,558,19,Woman,Right,
,,,,,,,,,,,,,,,,,558,19,Woman,Right,1,26,0.4,1,180,-,180,0.3283548999997947,['y'],0.8617451000000074,1.908,2612.5700647000003,,,,,558,19,Woman,Right,
,,,,,,,,,,,,,,,,,558,19,Woman,Right,1,55,0.15,2,180,0,180,0.04879579999942507,['y'],0.6062424000001556,1.794,2615.9064545,,,,,558,19,Woman,Right,
,,,,,,,,,,,,,,,,,558,19,Woman,Right,1,17,0.4,2,0,180,0,0.016719300000659132,['y'],0.823730400000386,1.934,2619.5434655,,,,,558,19,Woman,Right,
,,,,,,,,,,,,,,,,,558,19,Woman,Right,1,2,1,1,180,-,180,0.933353100000204,['y'],0.6715740999998161,1.932,2623.5639218999995,,,,,558,19,Woman,Right,
,,,,,,,,,,,,,,,,,558,19,Woman,Right,1,70,0.15,1,180,-,180,1.004084199999852,['y'],0.9359119000000646,1.944,2628.7691305,,,,,558,19,Woman,Right,
,,,,,,,,,,,,,,,,,558,19,Woman,Right,1,29,0.4,2,0,180,180,0.3482260999999198,['y'],1.000500999999531,1.944,2632.6071007,,,,,558,19,Woman,Right,
,,,,,,,,,,,,,,,,,558,19,Woman,Right,1,8,0.4,1,0,-,180,0.9891086000006908,['y'],0.36886409999988246,1.948,2636.6102711000003,,,,,558,19,Woman,Right,
,,,,,,,,,,,,,,,,,558,19,Woman,Right,1,30,0.4,1,180,-,180,0.4110261999994691,['y'],0.5859338999998727,1.946,2639.7135644,,,,,558,19,Woman,Right,
,,,,,,,,,,,,,,,,,558,19,Woman,Right,1,44,0.15,1,0,-,180,0.5199315999998362,['y'],0.6499639000003299,1.946,2643.1501448999998,,,,,558,19,Woman,Right,
,,,,,,,,,,,,,,,,,558,19,Woman,Right,1,49,0.15,2,0,180,180,0.2732390999999552,['n'],1.7065055000002758,1.1139999999999999,2648.0049692000002,,,,,558,19,Woman,Right,
,,,,,,,,,,,,,,,,,558,19,Woman,Right,1,52,0.15,1,0,-,180,0.3650963000000047,['n'],0.8993531000005532,1.1139999999999999,2651.5752012000003,,,,,558,19,Woman,Right,
,,,,,,,,,,,,,,,,,558,19,Woman,Right,1,14,0.4,1,180,-,0,0.245128399999885,['y'],0.9796258000005764,1.1139999999999999,2655.1954361,,,,,558,19,Woman,Right,
,,,,,,,,,,,,,,,,,558,19,Woman,Right,1,63,0.15,2,180,0,180,0.8837174000000232,['y'],0.5722628000003169,1.798,2659.5832467,,,,,558,19,Woman,Right,
,,,,,,,,,,,,,,,,,558,19,Woman,Right,1,5,1,2,0,180,0,0.2916182999997545,['y'],1.4206532999996853,2.0,2663.7539780999996,,,,,558,19,Woman,Right,
,,,,,,,,,,,,,,,,,558,19,Woman,Right,1,46,0.15,1,180,-,180,0.28491919999942183,['y'],0.5894151000002239,1.91,2667.0239739,,,,,558,19,Woman,Right,
,,,,,,,,,,,,,,,,,558,19,Woman,Right,1,60,0.15,1,0,-,0,0.3640808999998626,['y'],0.8137216999994052,1.91,2670.3439534999998,,,,,558,19,Woman,Right,
,,,,,,,,,,,,,,,,,558,19,Woman,Right,1,48,0.15,1,0,-,180,0.3143049999998766,['y'],0.48556490000009944,2.0,2673.7139107000003,,,,,558,19,Woman,Right,
,,,,,,,,,,,,,,,,,558,19,Woman,Right,1,62,0.15,1,180,-,180,0.5541253000001234,['y'],1.2707350000000588,1.958,2678.1852056,,,,,558,19,Woman,Right,
,,,,,,,,,,,,,,,,,558,19,Woman,Right,1,41,0.4,2,0,180,180,0.9297511999993731,['y'],0.5909420999996655,1.96,2681.9888597,,,,,558,19,Woman,Right,
,,,,,,,,,,,,,,,,,558,19,Woman,Right,1,56,0.15,1,0,-,0,1.0917332999997598,['y'],0.39943290000064735,1.97,2686.2597594999997,,,,,558,19,Woman,Right,
,,,,,,,,,,,,,,,,,558,19,Woman,Right,1,16,0.4,1,0,-,180,0.4682090000005701,['y'],0.6563723999997819,1.97,2689.7799026000002,,,,,558,19,Woman,Right,
,,,,,,,,,,,,,,,,,558,19,Woman,Right,1,71,0.15,2,180,0,180,0.14531200000055833,['y'],0.5443621000003986,1.97,2693.4668979,,,,,558,19,Woman,Right,
,,,,,,,,,,,,,,,,,558,19,Woman,Right,1,43,0.4,2,180,0,0,0.5725728999996136,['y'],0.777361600000404,1.97,2697.8046105000003,,,,,558,19,Woman,Right,
,,,,,,,,,,,,,,,,,558,19,Woman,Right,1,51,0.15,2,180,0,0,1.034477700000025,['y'],1.3350823999999193,1.97,2703.3434669999997,,,,,558,19,Woman,Right,
,,,,,,,,,,,,,,,,,558,19,Woman,Right,1,20,0.4,1,0,-,180,0.581272600000375,['y'],0.8103303000007145,1.97,2706.9305611,,,,,558,19,Woman,Right,
,,,,,,,,,,,,,,,,,558,19,Woman,Right,1,6,1,1,180,-,180,1.1468682000004264,['y'],2.091041500000756,1.3780000000000001,2713.0530099,,,,,558,19,Woman,Right,
,,,,,,,,,,,,,,,,,558,19,Woman,Right,1,10,0.4,1,180,-,180,0.10836720000042988,['y'],0.9073425999995379,1.642,2716.6399689,,,,,558,19,Woman,Right,
,,,,,,,,,,,,,,,,,558,19,Woman,Right,1,47,0.15,2,180,0,180,0.9226859999998851,['y'],0.8841327999998612,1.642,2720.5606975,,,,,558,19,Woman,Right,
,,,,,,,,,,,,,,,,,558,19,Woman,Right,1,7,1,2,180,0,180,0.01706709999962186,['y'],0.6308334000004834,1.658,2723.7485116999997,,,,,558,19,Woman,Right,
,,,,,,,,,,,,,,,,,558,19,Woman,Right,1,4,1,1,0,-,180,1.1529329999993934,['y'],0.6290921999998318,1.68,2727.9679183,,,,,558,19,Woman,Right,
,,,,,,,,,,,,,,,,,558,19,Woman,Right,1,75,0.15,2,180,0,180,0.05412499999965803,['y'],0.6614558000001125,1.68,2730.787687,,,,,558,19,Woman,Right,
,,,,,,,,,,,,,,,,,558,19,Woman,Right,1,40,0.4,1,0,-,180,0.0618849999991653,['y'],0.7739207000004171,1.68,2733.9739506999995,,,,,558,19,Woman,Right,
,,,,,,,,,,,,,,,,,558,19,Woman,Right,1,68,0.15,1,0,-,180,0.6060052000002543,['y'],1.1742410999995627,1.8599999999999999,2738.0612515000003,,,,,558,19,Woman,Right,
,,,,,,,,,,,,,,,,,558,19,Woman,Right,1,37,0.4,2,0,180,180,0.09300500000063039,['y'],0.7262684999996054,1.74,2741.2978175,,,,,558,19,Woman,Right,
,,,,,,,,,,,,,,,,,558,19,Woman,Right,1,57,0.15,2,0,180,180,0.016820899999402172,['y'],0.8187511000005543,1.74,2744.3175914000003,,,,,558,19,Woman,Right,
,,,,,,,,,,,,,,,,,558,19,Woman,Right,1,61,0.15,2,0,180,180,0.2791103999998086,['y'],1.9436924999999974,1.74,2748.6718891,,,,,558,19,Woman,Right,
,,,,,,,,,,,,,,,,,558,19,Woman,Right,1,15,0.4,2,180,0,180,0.1487262999999075,['y'],0.48819039999943925,1.74,2751.4246209000003,,,,,558,19,Woman,Right,
,,,,,,,,,,,,,,,,,558,19,Woman,Right,1,67,0.15,2,180,0,180,0.06667530000049737,['n'],1.749195399999735,1.3439999999999999,2756.3796500999997,,,,,558,19,Woman,Right,
,,,,,,,,,,,,,,,,,558,19,Woman,Right,1,35,0.4,2,180,0,180,1.3848407999994379,['y'],1.0868987000003472,1.52,2761.5348950999996,,,,,558,19,Woman,Right,
,,,,,,,,,,,,,,,,,558,19,Woman,Right,1,28,0.4,1,0,-,0,0.016739799999413663,['y'],1.1580570999994961,1.3980000000000001,2765.7559137999997,,,,,558,19,Woman,Right,
,,,,,,,,,,,,,,,,,558,19,Woman,Right,1,59,0.15,2,180,0,180,0.34507420000045386,['n'],1.7390697999999247,1.3,2770.3936999999996,,,,,558,19,Woman,Right,
,,,,,,,,,,,,,,,,,558,19,Woman,Right,1,64,0.15,1,0,-,180,0.23136280000016995,['y'],0.9307444000005489,1.3,2774.4642113,,,,,558,19,Woman,Right,
,,,,,,,,,,,,,,,,,558,19,Woman,Right,1,33,0.4,2,0,180,180,0.24683069999991858,['n'],0.6516483000004882,1.626,2778.0181409999996,,,,,558,19,Woman,Right,
,,,,,,,,,,,,,,,,,558,19,Woman,Right,1,72,0.15,1,0,-,180,0.43231099999957223,['y'],0.9476948000001357,1.63,2781.7881736,,,,,558,19,Woman,Right,
,,,,,,,,,,,,,,,,,558,19,Woman,Right,1,38,0.4,1,180,-,180,0.057034700000258454,['y'],0.9325312999999369,1.672,2785.7588582999997,,,,,558,19,Woman,Right,
,,,,,,,,,,,,,,,,,558,19,Woman,Right,1,34,0.4,1,180,-,180,0.11679939999976341,['n'],0.9248629000003348,1.712,2789.2291109999996,,,,,558,19,Woman,Right,
,,,,,,,,,,,,,,,,,558,19,Woman,Right,1,0,1,1,0,-,180,0.370849900000394,['n'],0.7736187000000427,1.998,2792.9331967,,,,,558,19,Woman,Right,
,,,,,,,,,,,,,,,,,558,19,Woman,Right,1,23,0.4,2,180,0,180,0.08892710000054649,['n'],1.2380068000002211,1.726,2796.4193416999997,,,,,558,19,Woman,Right,
,,,,,,,,,,,,,,,,,558,19,Woman,Right,1,1,1,2,0,180,180,0.20790450000004057,['y'],0.5504246000000421,1.73,2799.3890518999997,,,,,558,19,Woman,Right,
,,,,,,,,,,,,,,,,,558,19,Woman,Right,1,11,0.4,2,180,0,180,0.01663250000001426,['y'],0.3635409999997137,1.73,2802.0917237000003,,,,,558,19,Woman,Right,
,,,,,,,,,,,,,,,,,558,19,Woman,Right,1,45,0.15,2,0,180,180,0.42576310000004014,['n'],0.6556909999999334,1.73,2805.8123937,,,,,558,19,Woman,Right,
,,,,,,,,,,,,,,,,,558,19,Woman,Right,1,74,0.15,1,180,-,0,1.7301047999999355,['y'],0.7757627999999386,1.73,2811.0006763,,,,,558,19,Woman,Right,
,,,,,,,,,,,,,,,,,558,19,Woman,Right,1,36,0.4,1,0,-,0,0.01668840000002092,['y'],0.6406365000002552,1.9,2814.3873662999995,,,,,558,19,Woman,Right,
,,,,,,,,,,,,,,,,,558,19,Woman,Right,1,12,0.4,1,0,-,0,1.3652584000001298,['y'],1.1607594999995854,1.976,2819.7927461,,,,,558,19,Woman,Right,
,,,,,,,,,,,,,,,,,558,19,Woman,Right,2,39,0.4,2,180,0,180,1.4198862000002919,['y'],1.073752099999183,1.948,2826.2991194999995,50.0,15.0,77.5,,558,19,Woman,Right,
,,,,,,,,,,,,,,,,,558,19,Woman,Right,2,20,0.4,1,0,-,180,0.01678119999996852,['n'],1.2350816999996823,1.8479999999999999,2830.5870448999995,,,,,558,19,Woman,Right,
,,,,,,,,,,,,,,,,,558,19,Woman,Right,2,59,0.15,2,180,0,180,1.4704680999993798,['y'],1.1551075000006676,1.786,2835.2419763,,,,,558,19,Woman,Right,
,,,,,,,,,,,,,,,,,558,19,Woman,Right,2,78,0.15,1,180,-,0,0.7270404000000781,['n'],1.075454499999978,1.786,2839.5791594,,,,,558,19,Woman,Right,
,,,,,,,,,,,,,,,,,558,19,Woman,Right,2,43,0.4,2,180,0,180,0.1255368999991333,['y'],1.196054699999877,1.38,2843.4498888,,,,,558,19,Woman,Right,
,,,,,,,,,,,,,,,,,558,19,Woman,Right,2,9,0.4,2,0,180,180,0.1284877999996752,['n'],0.8364912999995795,1.3719999999999999,2846.6360556,,,,,558,19,Woman,Right,
,,,,,,,,,,,,,,,,,558,19,Woman,Right,2,69,0.15,2,0,180,0,0.5571784999992815,['n'],1.4375523999997313,1.972,2851.3575215,,,,,558,19,Woman,Right,
,,,,,,,,,,,,,,,,,558,19,Woman,Right,2,42,0.4,1,180,-,180,0.643864399999984,['y'],1.493687499999396,1.3,2855.9620526,,,,,558,19,Woman,Right,
,,,,,,,,,,,,,,,,,558,19,Woman,Right,2,74,0.15,1,180,-,0,0.8145498000003499,['y'],0.9501503000001321,1.97,2860.4165076,,,,,558,19,Woman,Right,
,,,,,,,,,,,,,,,,,558,19,Woman,Right,2,14,0.4,1,180,-,180,0.22547899999972287,['n'],1.990813999999773,1.786,2865.0553456,,,,,558,19,Woman,Right,
,,,,,,,,,,,,,,,,,558,19,Woman,Right,2,10,0.4,1,180,-,180,0.8395135999999184,['n'],0.8633197999997719,1.804,2869.4422016,,,,,558,19,Woman,Right,
,,,,,,,,,,,,,,,,,558,19,Woman,Right,2,71,0.15,2,180,0,180,0.14451199999984965,['n'],0.8637442999997802,1.804,2872.6954293999997,,,,,558,19,Woman,Right,
,,,,,,,,,,,,,,,,,558,19,Woman,Right,2,63,0.15,2,180,0,0,0.16393630000038684,['n'],0.6804795999996713,1.804,2875.7653375,,,,,558,19,Woman,Right,
,,,,,,,,,,,,,,,,,558,19,Woman,Right,2,21,0.4,2,0,180,0,0.8081552000003285,['n'],0.5287174999994022,1.804,2879.6355691,,,,,558,19,Woman,Right,
,,,,,,,,,,,,,,,,,558,19,Woman,Right,2,48,0.15,1,0,-,0,0.4274271999993289,['n'],0.8494962000004307,1.804,2883.5230327,,,,,558,19,Woman,Right,
,,,,,,,,,,,,,,,,,558,19,Woman,Right,2,33,0.4,2,0,180,0,0.4174626999993052,['y'],1.1381780000001527,1.804,2887.8604651999995,,,,,558,19,Woman,Right,
,,,,,,,,,,,,,,,,,558,19,Woman,Right,2,32,0.4,1,0,-,180,0.16617330000008224,['n'],3.9466315999998187,1.804,2894.5004489000003,,,,,558,19,Woman,Right,
,,,,,,,,,,,,,,,,,558,19,Woman,Right,2,60,0.15,1,0,-,180,0.23566030000074534,['n'],1.2909091999999873,1.712,2898.2708886,,,,,558,19,Woman,Right,
,,,,,,,,,,,,,,,,,558,19,Woman,Right,2,30,0.4,1,180,-,180,0.05192619999979797,['y'],0.9317098000001351,1.776,2901.4740994000003,,,,,558,19,Woman,Right,
,,,,,,,,,,,,,,,,,558,19,Woman,Right,2,44,0.15,1,0,-,180,3.635059000000183,['n'],1.2926434000000881,1.776,2908.9315033000003,,,,,558,19,Woman,Right,
,,,,,,,,,,,,,,,,,558,19,Woman,Right,2,36,0.4,1,0,-,0,0.6109653999992588,['y'],1.4054682999994839,1.776,2913.335817,,,,,558,19,Woman,Right,
,,,,,,,,,,,,,,,,,558,19,Woman,Right,2,12,0.4,1,0,-,180,1.0448919999998907,['y'],1.0302695999998832,1.766,2917.8903436,,,,,558,19,Woman,Right,
,,,,,,,,,,,,,,,,,558,19,Woman,Right,2,77,0.15,2,0,180,180,0.2422971999994843,['y'],0.8226279000000432,1.766,2921.1113794000003,,,,,558,19,Woman,Right,
,,,,,,,,,,,,,,,,,558,19,Woman,Right,2,1,1,2,0,180,180,0.0668655999998009,['y'],0.5906120999998166,1.766,2924.1635559999995,,,,,558,19,Woman,Right,
,,,,,,,,,,,,,,,,,558,19,Woman,Right,2,18,0.4,1,180,-,180,0.33906539999952656,['y'],0.8070232000000033,1.766,2927.6169751999996,,,,,558,19,Woman,Right,
,,,,,,,,,,,,,,,,,558,19,Woman,Right,2,4,1,1,0,-,180,0.34393400000044494,['y'],0.8877621000001454,1.766,2931.3714672999995,,,,,558,19,Woman,Right,
,,,,,,,,,,,,,,,,,558,19,Woman,Right,2,2,1,1,180,-,0,0.8345939999999246,['y'],0.8261081000000559,1.766,2935.8416165999997,,,,,558,19,Woman,Right,
,,,,,,,,,,,,,,,,,558,19,Woman,Right,2,56,0.15,1,0,-,180,0.15007929999956104,['y'],0.6487687999997434,1.974,2939.4454052,,,,,558,19,Woman,Right,
,,,,,,,,,,,,,,,,,558,19,Woman,Right,2,41,0.4,2,0,180,180,0.047643500000049244,['y'],0.9212705999998434,1.876,2942.6151223999996,,,,,558,19,Woman,Right,
,,,,,,,,,,,,,,,,,558,19,Woman,Right,2,57,0.15,2,0,180,180,0.05819979999978386,['n'],1.6495341999998345,1.77,2946.6523386999997,,,,,558,19,Woman,Right,
,,,,,,,,,,,,,,,,,558,19,Woman,Right,2,68,0.15,1,0,-,180,0.13493599999947037,['y'],0.681854000000385,1.758,2949.9223685999996,,,,,558,19,Woman,Right,
,,,,,,,,,,,,,,,,,558,19,Woman,Right,2,7,1,2,180,0,180,0.5355767000000924,['n'],0.9309219999995548,1.692,2953.7597213,,,,,558,19,Woman,Right,
,,,,,,,,,,,,,,,,,558,19,Woman,Right,2,25,0.4,2,0,180,0,0.6439577000001009,['n'],2.179204000000027,1.65,2959.1313898,,,,,558,19,Woman,Right,
,,,,,,,,,,,,,,,,,558,19,Woman,Right,2,34,0.4,1,180,-,180,0.20374050000009447,['n'],0.9396303999992597,1.65,2962.7851577,,,,,558,19,Woman,Right,
,,,,,,,,,,,,,,,,,558,19,Woman,Right,2,29,0.4,2,0,180,180,0.5615585000005012,['y'],0.8360221999992064,1.65,2966.4557646000003,,,,,558,19,Woman,Right,
,,,,,,,,,,,,,,,,,558,19,Woman,Right,2,45,0.15,2,0,180,0,0.505651399999806,['n'],1.1166669000003822,1.65,2970.5428647,,,,,558,19,Woman,Right,
,,,,,,,,,,,,,,,,,558,19,Woman,Right,2,53,0.15,2,0,180,0,0.38055459999941377,['n'],0.9570542999999816,1.738,2974.8640210000003,,,,,558,19,Woman,Right,
,,,,,,,,,,,,,,,,,558,19,Woman,Right,2,8,0.4,1,0,-,0,0.3142580000003363,['n'],2.4536345000005895,1.772,2980.2692260000003,,,,,558,19,Woman,Right,
,,,,,,,,,,,,,,,,,558,19,Woman,Right,2,31,0.4,2,180,0,0,1.7373709000003146,['n'],0.6148055000003296,1.862,2985.1740883,,,,,558,19,Woman,Right,
,,,,,,,,,,,,,,,,,558,19,Woman,Right,2,73,0.15,2,0,180,0,1.117532299999766,['n'],0.5987623000000895,1.854,2989.5463497,,,,,558,19,Woman,Right,
,,,,,,,,,,,,,,,,,558,19,Woman,Right,2,27,0.4,2,180,0,180,0.3610826000003726,['y'],0.8792104999993171,1.796,2993.0819957000003,,,,,558,19,Woman,Right,
,,,,,,,,,,,,,,,,,558,19,Woman,Right,2,61,0.15,2,0,180,180,0.41011429999980464,['y'],0.7759394999993674,1.796,2996.4520255999996,,,,,558,19,Woman,Right,
,,,,,,,,,,,,,,,,,558,19,Woman,Right,2,52,0.15,1,0,-,0,0.26316420000057406,['y'],0.5924853000005896,1.796,2999.5718479999996,,,,,558,19,Woman,Right,
,,,,,,,,,,,,,,,,,558,19,Woman,Right,2,51,0.15,2,180,0,180,0.5508334999994986,['y'],1.7690017000004445,1.796,3004.5267034,,,,,558,19,Woman,Right,
,,,,,,,,,,,,,,,,,558,19,Woman,Right,2,79,0.15,2,180,0,180,0.34290929999951913,['y'],0.6098904000000402,1.796,3008.1139418000002,,,,,558,19,Woman,Right,
,,,,,,,,,,,,,,,,,558,19,Woman,Right,2,11,0.4,2,180,0,180,0.7042681000002631,['y'],0.6654551000001447,1.796,3011.8673499999995,,,,,558,19,Woman,Right,
,,,,,,,,,,,,,,,,,558,19,Woman,Right,2,70,0.15,1,180,-,180,0.8089432999995552,['y'],0.5224253000005774,1.796,3015.6378514999997,,,,,558,19,Woman,Right,
,,,,,,,,,,,,,,,,,558,19,Woman,Right,2,40,0.4,1,0,-,0,0.4095193000002837,['y'],0.45079189999978553,1.796,3018.9581705,,,,,558,19,Woman,Right,
,,,,,,,,,,,,,,,,,558,19,Woman,Right,2,0,1,1,0,-,0,0.5155253000002631,['y'],1.1158031000004485,1.796,3023.1788528999996,,,,,558,19,Woman,Right,
,,,,,,,,,,,,,,,,,558,19,Woman,Right,2,23,0.4,2,180,0,0,0.44282399999974587,['y'],0.5796635999995488,1.796,3026.8157805,,,,,558,19,Woman,Right,
,,,,,,,,,,,,,,,,,558,19,Woman,Right,2,47,0.15,2,180,0,0,0.31891949999953795,['y'],0.6522919999997612,1.796,3030.3524431999995,,,,,558,19,Woman,Right,
,,,,,,,,,,,,,,,,,558,19,Woman,Right,2,58,0.15,1,180,-,180,0.3843027000002621,['n'],1.8371224000002258,1.796,3034.990446,,,,,558,19,Woman,Right,
,,,,,,,,,,,,,,,,,558,19,Woman,Right,2,55,0.15,2,180,0,0,0.27326629999970464,['y'],0.9820842999997694,1.78,3038.8277246999996,,,,,558,19,Woman,Right,
,,,,,,,,,,,,,,,,,558,19,Woman,Right,2,22,0.4,1,180,-,180,0.17020690000026661,['y'],0.7017053999998097,1.5899999999999999,3042.0807692,,,,,558,19,Woman,Right,
,,,,,,,,,,,,,,,,,558,19,Woman,Right,2,38,0.4,1,180,-,0,0.7772416999996494,['n'],1.3104812000001402,1.666,3046.6686909,,,,,558,19,Woman,Right,
,,,,,,,,,,,,,,,,,558,19,Woman,Right,2,3,1,2,180,0,180,0.8634476999995968,['y'],0.89547070000026,1.76,3050.9897466,,,,,558,19,Woman,Right,
,,,,,,,,,,,,,,,,,558,19,Woman,Right,2,46,0.15,1,180,-,180,0.1731601999999839,['y'],1.2153644999998505,1.624,3054.7601182999997,,,,,558,19,Woman,Right,
,,,,,,,,,,,,,,,,,558,19,Woman,Right,2,15,0.4,2,180,0,180,0.3272766000000047,['y'],0.9841670999994676,1.76,3058.7974045,,,,,558,19,Woman,Right,
,,,,,,,,,,,,,,,,,558,19,Woman,Right,2,76,0.15,1,0,-,180,0.3169803000000684,['n'],1.738299200000256,1.738,3063.3353705,,,,,558,19,Woman,Right,
,,,,,,,,,,,,,,,,,558,19,Woman,Right,2,49,0.15,2,0,180,180,0.32231469999987894,['n'],1.681157500000154,1.742,3067.8063930999997,,,,,558,19,Woman,Right,
,,,,,,,,,,,,,,,,,558,19,Woman,Right,2,65,0.15,2,0,180,0,0.3278227999999217,['n'],0.7376537999998618,1.738,3071.0772582,,,,,558,19,Woman,Right,
,,,,,,,,,,,,,,,,,558,19,Woman,Right,2,19,0.4,2,180,0,180,0.27773509999951784,['y'],0.6499762000003102,1.74,3074.2964024000003,,,,,558,19,Woman,Right,
,,,,,,,,,,,,,,,,,558,19,Woman,Right,2,35,0.4,2,180,0,180,0.016729599999962375,['y'],1.1950053999999,1.742,3077.7499256,,,,,558,19,Woman,Right,
,,,,,,,,,,,,,,,,,558,19,Woman,Right,2,72,0.15,1,0,-,180,0.11487790000046516,['n'],0.8349260000004506,1.746,3081.1365521999996,,,,,558,19,Woman,Right,
,,,,,,,,,,,,,,,,,558,19,Woman,Right,2,5,1,2,0,180,0,0.16482919999998558,['n'],0.9875623999996606,1.746,3084.5229647999995,,,,,558,19,Woman,Right,
,,,,,,,,,,,,,,,,,558,19,Woman,Right,2,17,0.4,2,0,180,0,0.26490579999972397,['y'],0.6679432000000816,1.744,3088.0434446,,,,,558,19,Woman,Right,
,,,,,,,,,,,,,,,,,558,19,Woman,Right,2,26,0.4,1,180,-,0,0.01672950000011042,['y'],1.9573606000003565,1.744,3092.6980716999997,,,,,558,19,Woman,Right,
,,,,,,,,,,,,,,,,,558,19,Woman,Right,2,64,0.15,1,0,-,180,0.32802450000053796,['y'],1.709455700000035,1.744,3097.2357610999998,,,,,558,19,Woman,Right,
,,,,,,,,,,,,,,,,,558,19,Woman,Right,2,66,0.15,1,180,-,0,0.8208872999994128,['n'],0.9896486000006917,1.758,3101.3231721,,,,,558,19,Woman,Right,
,,,,,,,,,,,,,,,,,558,19,Woman,Right,2,54,0.15,1,180,-,0,0.047506500000054075,['y'],0.8861068000005616,1.758,3104.5596570999996,,,,,558,19,Woman,Right,
,,,,,,,,,,,,,,,,,558,19,Woman,Right,2,16,0.4,1,0,-,0,0.05174339999939548,['y'],0.590486700000838,1.756,3107.4959397000002,,,,,558,19,Woman,Right,
,,,,,,,,,,,,,,,,,558,19,Woman,Right,2,37,0.4,2,0,180,0,0.01672379999945406,['n'],0.977739300000394,1.758,3110.799296,,,,,558,19,Woman,Right,
,,,,,,,,,,,,,,,,,558,19,Woman,Right,2,6,1,1,180,-,0,0.8675161000001026,['n'],0.8070332000006601,1.762,3114.7698095999995,,,,,558,19,Woman,Right,
,,,,,,,,,,,,,,,,,558,19,Woman,Right,2,28,0.4,1,0,-,0,0.09674429999995482,['y'],1.599932600000102,1.766,3118.7571863000003,,,,,558,19,Woman,Right,
,,,,,,,,,,,,,,,,,558,19,Woman,Right,2,24,0.4,1,0,-,180,0.11668430000008811,['n'],1.264180000000124,1.768,3122.4611136000003,,,,,558,19,Woman,Right,
,,,,,,,,,,,,,,,,,558,19,Woman,Right,2,13,0.4,2,0,180,180,0.022202899999683723,['n'],1.8645945000007487,1.726,3126.6317166999997,,,,,558,19,Woman,Right,
,,,,,,,,,,,,,,,,,558,19,Woman,Right,2,67,0.15,2,180,0,0,0.37090170000010403,['n'],0.5934538999999859,1.726,3129.8183964,,,,,558,19,Woman,Right,
,,,,,,,,,,,,,,,,,558,19,Woman,Right,2,50,0.15,1,180,-,0,0.22982150000007096,['n'],0.37780599999950937,1.708,3133.1550716,,,,,558,19,Woman,Right,
,,,,,,,,,,,,,,,,,558,19,Woman,Right,2,62,0.15,1,180,-,180,0.03595130000030622,['n'],0.4823458999999275,1.708,3136.057912,,,,,558,19,Woman,Right,
,,,,,,,,,,,,,,,,,558,19,Woman,Right,2,75,0.15,2,180,0,180,0.8709529999996448,['n'],0.5712311999996018,1.708,3139.7780848,,,,,558,19,Woman,Right,
,,,,,,,,,,,,,,,,,558,19,Woman,Right,3,28,0.4,1,0,-,180,0.01692630000070494,['n'],0.8708737999995719,1.708,3139.7780848,42.5,47.5,52.5,,558,19,Woman,Right,
,,,,,,,,,,,,,,,,,558,19,Woman,Right,3,16,0.4,1,0,-,180,1.276688599999943,['n'],0.7799939999995331,1.706,3148.6705215,,,,,558,19,Woman,Right,
,,,,,,,,,,,,,,,,,558,19,Woman,Right,3,0,1,1,0,-,0,0.17892159999973956,['n'],0.4043173999998544,1.7,3151.6565504,,,,,558,19,Woman,Right,
,,,,,,,,,,,,,,,,,558,19,Woman,Right,3,10,0.4,1,180,-,180,1.982539700000416,['y'],0.5738695000000007,1.7,3156.9118754,,,,,558,19,Woman,Right,
,,,,,,,,,,,,,,,,,558,19,Woman,Right,3,54,0.15,1,180,-,180,0.8836621000000378,['y'],0.8535691999995834,1.7,3160.7823412999996,,,,,558,19,Woman,Right,
,,,,,,,,,,,,,,,,,558,19,Woman,Right,3,1,1,2,0,180,0,1.4588425000001735,['y'],1.0781587999999829,1.7,3165.9377532999997,,,,,558,19,Woman,Right,
,,,,,,,,,,,,,,,,,558,19,Woman,Right,3,13,0.4,2,0,180,0,0.10802160000002914,['y'],0.5587411999995311,1.7,3169.4575703,,,,,558,19,Woman,Right,
,,,,,,,,,,,,,,,,,558,19,Woman,Right,3,11,0.4,2,180,0,0,0.3289641000001211,['y'],0.4072035000008327,1.7,3172.4941314999996,,,,,558,19,Woman,Right,
,,,,,,,,,,,,,,,,,558,19,Woman,Right,3,6,1,1,180,-,0,0.7841259000006175,['y'],0.7085513000001811,1.7,3176.3812697000003,,,,,558,19,Woman,Right,
,,,,,,,,,,,,,,,,,558,19,Woman,Right,3,61,0.15,2,0,180,0,0.1578705000001719,['y'],0.5038082000000941,1.7,3179.2841267000003,,,,,558,19,Woman,Right,
,,,,,,,,,,,,,,,,,558,19,Woman,Right,3,48,0.15,1,0,-,0,0.03267090000008466,['y'],0.8784089999999196,1.7,3182.6040732,,,,,558,19,Woman,Right,
,,,,,,,,,,,,,,,,,558,19,Woman,Right,3,38,0.4,1,180,-,180,1.1185615000003963,['y'],0.4087908999999854,1.7,3186.3578203999996,,,,,558,19,Woman,Right,
,,,,,,,,,,,,,,,,,558,19,Woman,Right,3,7,1,2,180,0,0,1.6194519999999102,['y'],0.9854334000001472,1.7,3191.3628086999997,,,,,558,19,Woman,Right,
,,,,,,,,,,,,,,,,,558,19,Woman,Right,3,36,0.4,1,0,-,0,0.3929951999998593,['y'],0.545962199999849,1.7,3194.8162832999997,,,,,558,19,Woman,Right,
,,,,,,,,,,,,,,,,,558,19,Woman,Right,3,75,0.15,2,180,0,0,0.1384472999998252,['y'],1.2743002999995952,1.7,3198.5202134,,,,,558,19,Woman,Right,
,,,,,,,,,,,,,,,,,558,19,Woman,Right,3,46,0.15,1,180,-,0,0.256713600000694,['y'],0.5147454999996626,1.7,3201.6732886,,,,,558,19,Woman,Right,
,,,,,,,,,,,,,,,,,558,19,Woman,Right,3,3,1,2,180,0,0,0.26478140000017447,['y'],0.4199262000001909,1.7,3204.8932532,,,,,558,19,Woman,Right,
,,,,,,,,,,,,,,,,,558,19,Woman,Right,3,58,0.15,1,180,-,0,0.021065699999780918,['y'],0.5080950999999914,1.7,3207.7960076,,,,,558,19,Woman,Right,
,,,,,,,,,,,,,,,,,558,19,Woman,Right,3,66,0.15,1,180,-,0,0.016689099999894097,['y'],0.520931400000336,1.7,3210.6656580999997,,,,,558,19,Woman,Right,
,,,,,,,,,,,,,,,,,558,19,Woman,Right,3,25,0.4,2,0,180,180,1.288718699999663,['y'],0.47638999999981024,1.7,3214.7027927,,,,,558,19,Woman,Right,
,,,,,,,,,,,,,,,,,558,19,Woman,Right,3,68,0.15,1,0,-,0,0.017991800000345393,['y'],0.5167341000005763,1.7,3217.589033,,,,,558,19,Woman,Right,
,,,,,,,,,,,,,,,,,558,19,Woman,Right,3,9,0.4,2,0,180,180,1.050347899999906,['y'],0.4298450000005687,1.7,3222.2935983999996,,,,,558,19,Woman,Right,
,,,,,,,,,,,,,,,,,558,19,Woman,Right,3,70,0.15,1,180,-,180,0.4007050000000163,['y'],0.7499243000002025,1.7,3226.0306431,,,,,558,19,Woman,Right,
,,,,,,,,,,,,,,,,,558,19,Woman,Right,3,72,0.15,1,0,-,0,0.29136879999987286,['y'],0.4706034000000727,1.7,3229.1839170000003,,,,,558,19,Woman,Right,
,,,,,,,,,,,,,,,,,558,19,Woman,Right,3,45,0.15,2,0,180,0,0.08280490000015561,['y'],0.45504889999938314,1.7,3232.0034797,,,,,558,19,Woman,Right,
,,,,,,,,,,,,,,,,,558,19,Woman,Right,3,67,0.15,2,180,0,0,0.06655640000008134,['y'],0.38659739999911835,1.7,3234.7226657,,,,,558,19,Woman,Right,
,,,,,,,,,,,,,,,,,558,19,Woman,Right,3,59,0.15,2,180,0,0,0.016833499999847845,['y'],0.676582199999757,1.7,3238.4096798,,,,,558,19,Woman,Right,
,,,,,,,,,,,,,,,,,558,19,Woman,Right,3,74,0.15,1,180,-,180,0.05143649999990885,['n'],1.2722850000000108,1.708,3241.7796983,,,,,558,19,Woman,Right,
,,,,,,,,,,,,,,,,,558,19,Woman,Right,3,32,0.4,1,0,-,180,0.10062720000041736,['y'],0.7681409999995594,1.71,3244.9161351000002,,,,,558,19,Woman,Right,
,,,,,,,,,,,,,,,,,558,19,Woman,Right,3,73,0.15,2,0,180,180,0.0994314999998096,['y'],1.4089191000002756,1.71,3249.0037688,,,,,558,19,Woman,Right,
,,,,,,,,,,,,,,,,,558,19,Woman,Right,3,18,0.4,1,180,-,180,0.04808859999957349,['n'],1.0492607999995016,1.73,3252.2242852,,,,,558,19,Woman,Right,
,,,,,,,,,,,,,,,,,558,19,Woman,Right,3,44,0.15,1,0,-,180,0.016692599999259983,['y'],0.9018308999993678,1.758,3255.343562,,,,,558,19,Woman,Right,
,,,,,,,,,,,,,,,,,558,19,Woman,Right,3,35,0.4,2,180,0,180,1.0933889000007184,['y'],0.47424990000035905,1.758,3259.0635358,,,,,558,19,Woman,Right,
,,,,,,,,,,,,,,,,,558,19,Woman,Right,3,39,0.4,2,180,0,0,0.04258329999993293,['y'],0.3387941000000865,1.758,3261.7496578,,,,,558,19,Woman,Right,
,,,,,,,,,,,,,,,,,558,19,Woman,Right,3,56,0.15,1,0,-,180,0.016948499999671185,['y'],0.5087533000005351,1.758,3264.6192034999995,,,,,558,19,Woman,Right,
,,,,,,,,,,,,,,,,,558,19,Woman,Right,3,57,0.15,2,0,180,0,0.366405499999928,['y'],0.4036247000003641,1.76,3267.8891071999997,,,,,558,19,Woman,Right,
,,,,,,,,,,,,,,,,,558,19,Woman,Right,3,77,0.15,2,0,180,0,0.31084480000026815,['y'],0.44433530000060273,1.754,3271.2092357,,,,,558,19,Woman,Right,
,,,,,,,,,,,,,,,,,558,19,Woman,Right,3,17,0.4,2,0,180,180,0.20368489999964368,['y'],0.7403708000001643,1.746,3274.6792078,,,,,558,19,Woman,Right,
,,,,,,,,,,,,,,,,,558,19,Woman,Right,3,65,0.15,2,0,180,0,0.43404460000056133,['y'],0.3571524999997564,1.742,3277.8660960999996,,,,,558,19,Woman,Right,
,,,,,,,,,,,,,,,,,558,19,Woman,Right,3,55,0.15,2,180,0,180,0.6678729999994175,['y'],0.684823100000358,1.814,3282.1368912999997,,,,,558,19,Woman,Right,
,,,,,,,,,,,,,,,,,558,19,Woman,Right,3,2,1,1,180,-,180,0.5774148000000423,['y'],0.7410780000000159,2.0,3286.3073730999995,,,,,558,19,Woman,Right,
,,,,,,,,,,,,,,,,,558,19,Woman,Right,3,64,0.15,1,0,-,180,0.18107400000008056,['y'],0.5019129000002067,2.0,3290.1112096999996,,,,,558,19,Woman,Right,
,,,,,,,,,,,,,,,,,558,19,Woman,Right,3,34,0.4,1,180,-,180,0.05082289999973,['y'],0.870705899999848,2.0,3293.1976791999996,,,,,558,19,Woman,Right,
,,,,,,,,,,,,,,,,,558,19,Woman,Right,3,49,0.15,2,0,180,180,0.20006649999959336,['y'],0.5541089999996984,2.0,3296.9012616,,,,,558,19,Woman,Right,
,,,,,,,,,,,,,,,,,558,19,Woman,Right,3,47,0.15,2,180,0,180,0.016569600000366336,['y'],0.8867436999998972,2.0,3299.98776,,,,,558,19,Woman,Right,
,,,,,,,,,,,,,,,,,558,19,Woman,Right,3,51,0.15,2,180,0,180,0.32568369999989955,['y'],0.3361794000002192,2.0,3303.0575800999995,,,,,558,19,Woman,Right,
,,,,,,,,,,,,,,,,,558,19,Woman,Right,3,30,0.4,1,180,-,180,0.23240349999923637,['y'],0.23231209999994462,2.0,3305.9621537000003,,,,,558,19,Woman,Right,
,,,,,,,,,,,,,,,,,558,19,Woman,Right,3,43,0.4,2,180,0,180,0.3701687000002494,['y'],0.2565041999996538,2.0,3309.1802275,,,,,558,19,Woman,Right,
,,,,,,,,,,,,,,,,,558,19,Woman,Right,3,69,0.15,2,0,180,180,0.3211481000007552,['y'],1.7292154999995546,2.0,3313.6846945999996,,,,,558,19,Woman,Right,
,,,,,,,,,,,,,,,,,558,19,Woman,Right,3,63,0.15,2,180,0,180,0.3048793999996633,['y'],0.4176747000001342,2.0,3316.5875785,,,,,558,19,Woman,Right,
,,,,,,,,,,,,,,,,,558,19,Woman,Right,3,15,0.4,2,180,0,180,1.2357362000002468,['y'],0.8342346999997972,2.0,3320.9253978999996,,,,,558,19,Woman,Right,
,,,,,,,,,,,,,,,,,558,19,Woman,Right,3,23,0.4,2,180,0,180,0.2509046999994098,['y'],1.2426616000002468,2.0,3324.6622889,,,,,558,19,Woman,Right,
,,,,,,,,,,,,,,,,,558,19,Woman,Right,3,31,0.4,2,180,0,180,1.3623718999997436,['y'],0.5472866999998587,1.31,3329.300354,,,,,558,19,Woman,Right,
,,,,,,,,,,,,,,,,,558,19,Woman,Right,3,27,0.4,2,180,0,180,0.39708280000013474,['y'],0.6999745000002804,1.676,3332.7547057,,,,,558,19,Woman,Right,
,,,,,,,,,,,,,,,,,558,19,Woman,Right,3,71,0.15,2,180,0,180,0.14637319999928877,['y'],0.572496300000239,1.6600000000000001,3335.6898518,,,,,558,19,Woman,Right,
,,,,,,,,,,,,,,,,,558,19,Woman,Right,3,52,0.15,1,0,-,180,0.1609216999995624,['y'],0.5244783999996798,1.6600000000000001,3338.6263084,,,,,558,19,Woman,Right,
,,,,,,,,,,,,,,,,,558,19,Woman,Right,3,8,0.4,1,0,-,180,0.2877675999998246,['y'],0.3170775999997204,1.6600000000000001,3341.5123452999997,,,,,558,19,Woman,Right,
,,,,,,,,,,,,,,,,,558,19,Woman,Right,3,29,0.4,2,0,180,180,0.07222849999925529,['y'],0.4933768000000782,1.6600000000000001,3344.3318686000002,,,,,558,19,Woman,Right,
,,,,,,,,,,,,,,,,,558,19,Woman,Right,3,62,0.15,1,180,-,180,0.1320309000002453,['y'],0.35764600000038627,1.6600000000000001,3347.0678212000003,,,,,558,19,Woman,Right,
,,,,,,,,,,,,,,,,,558,19,Woman,Right,3,24,0.4,1,0,-,180,0.11884589999954187,['y'],0.309989599999426,1.6600000000000001,3349.8039815,,,,,558,19,Woman,Right,
,,,,,,,,,,,,,,,,,558,19,Woman,Right,3,76,0.15,1,0,-,180,0.2420839000005799,['y'],1.9507549999998446,1.802,3354.9091072,,,,,558,19,Woman,Right,
,,,,,,,,,,,,,,,,,558,19,Woman,Right,3,41,0.4,2,0,180,180,0.016705799999726878,['y'],1.4841483999998673,1.72,3358.5297960999997,,,,,558,19,Woman,Right,
,,,,,,,,,,,,,,,,,558,19,Woman,Right,3,42,0.4,1,180,-,180,0.08330110000042623,['y'],0.4597508000006201,1.72,3361.2988072,,,,,558,19,Woman,Right,
,,,,,,,,,,,,,,,,,558,19,Woman,Right,3,26,0.4,1,180,-,180,0.01679980000062642,['y'],0.41455630000018573,1.712,3364.0016833,,,,,558,19,Woman,Right,
,,,,,,,,,,,,,,,,,558,19,Woman,Right,3,12,0.4,1,0,-,0,0.4994275999997626,['y'],0.3040932000003522,1.712,3367.121196,,,,,558,19,Woman,Right,
,,,,,,,,,,,,,,,,,558,19,Woman,Right,3,21,0.4,2,0,180,0,0.09022879999974975,['y'],0.3528609000004508,1.712,3369.7905927,,,,,558,19,Woman,Right,
,,,,,,,,,,,,,,,,,558,19,Woman,Right,3,60,0.15,1,0,-,180,0.03534579999995913,['y'],0.43290109999998094,1.712,3372.5936873,,,,,558,19,Woman,Right,
,,,,,,,,,,,,,,,,,558,19,Woman,Right,3,20,0.4,1,0,-,0,0.48215929999969376,['y'],0.2653453000002628,1.712,3375.5299146999996,,,,,558,19,Woman,Right,
,,,,,,,,,,,,,,,,,558,19,Woman,Right,3,22,0.4,1,180,-,180,0.4570648999997502,['y'],0.42586149999988265,1.712,3378.5325015,,,,,558,19,Woman,Right,
,,,,,,,,,,,,,,,,,558,19,Woman,Right,3,37,0.4,2,0,180,180,0.10727619999943272,['y'],0.28213009999944916,1.712,3381.1018470999998,,,,,558,19,Woman,Right,
,,,,,,,,,,,,,,,,,558,19,Woman,Right,3,53,0.15,2,0,180,180,0.11471809999966354,['y'],0.29053209999983665,1.712,3383.7380588999995,,,,,558,19,Woman,Right,
,,,,,,,,,,,,,,,,,558,19,Woman,Right,3,33,0.4,2,0,180,0,0.01686859999972512,['y'],0.3809332999999242,1.712,3386.2737932,,,,,558,19,Woman,Right,
,,,,,,,,,,,,,,,,,558,19,Woman,Right,3,79,0.15,2,180,0,0,0.17541409999921598,['y'],0.3471028000003571,1.712,3389.059808,,,,,558,19,Woman,Right,
,,,,,,,,,,,,,,,,,558,19,Woman,Right,3,4,1,1,0,-,0,0.427609699999266,['y'],0.33164709999982733,1.712,3392.1294341000003,,,,,558,19,Woman,Right,
,,,,,,,,,,,,,,,,,558,19,Woman,Right,3,40,0.4,1,0,-,180,0.19406359999993583,['y'],0.31593879999945784,1.712,3394.8321767999996,,,,,558,19,Woman,Right,
,,,,,,,,,,,,,,,,,558,19,Woman,Right,3,14,0.4,1,180,-,180,0.24109339999995427,['y'],0.4204084999992119,1.712,3397.6516282000002,,,,,558,19,Woman,Right,
,,,,,,,,,,,,,,,,,558,19,Woman,Right,3,5,1,2,0,180,0,0.42123220000030415,['y'],0.40459589999954915,1.724,3400.9715951,,,,,558,19,Woman,Right,
,,,,,,,,,,,,,,,,,558,19,Woman,Right,3,19,0.4,2,180,0,0,0.255887199999961,['y'],0.3329827999996269,1.736,3404.6918878999995,,,,,558,19,Woman,Right,
,,,,,,,,,,,,,,,,,558,19,Woman,Right,3,50,0.15,1,180,-,0,0.08640079999986483,['y'],0.35714159999952244,1.734,3407.6451426000003,,,,,558,19,Woman,Right,
,,,,,,,,,,,,,,,,,558,19,Woman,Right,3,78,0.15,1,180,-,180,1.1098277000000962,['y'],0.5581367999993745,1.732,3411.4320796,,,,,558,19,Woman,Right,
,,,,,,,,,,,,,,,,,558,19,Woman,Right,4,6,1,1,180,-,180,0.5512138999993113,['y'],0.682676999999785,1.738,3416.587103,52.5,12.5,100.0,,558,19,Woman,Right,
,,,,,,,,,,,,,,,,,558,19,Woman,Right,4,72,0.15,1,0,-,180,0.36831679999977496,['y'],0.31109160000050906,1.738,3419.6070996,,,,,558,19,Woman,Right,
,,,,,,,,,,,,,,,,,558,19,Woman,Right,4,8,0.4,1,0,-,180,0.5838800999999876,['y'],0.3347225999996226,1.738,3422.8269585999997,,,,,558,19,Woman,Right,
,,,,,,,,,,,,,,,,,558,19,Woman,Right,4,41,0.4,2,0,180,180,0.5021143000003576,['y'],0.2642831999992268,1.738,3425.8298334,,,,,558,19,Woman,Right,
,,,,,,,,,,,,,,,,,558,19,Woman,Right,4,23,0.4,2,180,0,0,0.44628280000051745,['y'],0.3118960000001607,1.736,3428.7995535,,,,,558,19,Woman,Right,
,,,,,,,,,,,,,,,,,558,19,Woman,Right,4,14,0.4,1,180,-,180,0.4053939999994327,['y'],0.43271289999938745,1.736,3431.8192603999996,,,,,558,19,Woman,Right,
,,,,,,,,,,,,,,,,,558,19,Woman,Right,4,43,0.4,2,180,0,0,0.2792210999996314,['y'],0.3133268000001408,1.736,3434.6717809,,,,,558,19,Woman,Right,
,,,,,,,,,,,,,,,,,558,19,Woman,Right,4,77,0.15,2,0,180,180,0.18623329999991256,['y'],0.33760740000070655,1.736,3437.3747713000002,,,,,558,19,Woman,Right,
,,,,,,,,,,,,,,,,,558,19,Woman,Right,4,19,0.4,2,180,0,180,0.030057700000725163,['y'],0.32165860000077373,1.734,3439.7605121999995,,,,,558,19,Woman,Right,
,,,,,,,,,,,,,,,,,558,19,Woman,Right,4,58,0.15,1,180,-,0,0.2861019000001761,['y'],0.32228720000057365,1.734,3442.6800788,,,,,558,19,Woman,Right,
,,,,,,,,,,,,,,,,,558,19,Woman,Right,4,9,0.4,2,0,180,180,0.01655879999998433,['y'],0.9069057999995493,1.732,3445.8829051000002,,,,,558,19,Woman,Right,
,,,,,,,,,,,,,,,,,558,19,Woman,Right,4,56,0.15,1,0,-,180,0.8747272000000521,['y'],0.49118710000038845,1.732,3449.536886,,,,,558,19,Woman,Right,
,,,,,,,,,,,,,,,,,558,19,Woman,Right,4,29,0.4,2,0,180,0,0.29800370000066323,['y'],0.3076058999995439,1.732,3453.6910312,,,,,558,19,Woman,Right,
,,,,,,,,,,,,,,,,,558,19,Woman,Right,4,2,1,1,180,-,180,0.16008229999988544,['y'],2.7082367000002705,1.732,3458.8625892,,,,,558,19,Woman,Right,
,,,,,,,,,,,,,,,,,558,19,Woman,Right,4,34,0.4,1,180,-,180,0.2707970999999816,['y'],0.32468299999982264,1.732,3462.1497053000003,,,,,558,19,Woman,Right,
,,,,,,,,,,,,,,,,,558,19,Woman,Right,4,38,0.4,1,180,-,180,0.2215803999997661,['y'],0.2533083999996961,1.732,3464.8853662,,,,,558,19,Woman,Right,
,,,,,,,,,,,,,,,,,558,19,Woman,Right,4,24,0.4,1,0,-,180,0.21797960000003513,['y'],0.23775489999934507,1.732,3467.6882533,,,,,558,19,Woman,Right,
,,,,,,,,,,,,,,,,,558,19,Woman,Right,4,45,0.15,2,0,180,180,0.28598220000003494,['y'],0.2939219999998386,1.732,3470.5743556999996,,,,,558,19,Woman,Right,
,,,,,,,,,,,,,,,,,558,19,Woman,Right,4,35,0.4,2,180,0,180,0.19796219999989262,['y'],0.262425599999915,1.732,3473.2937079000003,,,,,558,19,Woman,Right,
,,,,,,,,,,,,,,,,,558,19,Woman,Right,4,30,0.4,1,180,-,180,0.03334420000010141,['y'],0.2764268999999331,1.732,3475.8628956000002,,,,,558,19,Woman,Right,
,,,,,,,,,,,,,,,,,558,19,Woman,Right,4,44,0.15,1,0,-,0,0.5145364999998492,['y'],1.1990583999995579,1.732,3480.0837921,,,,,558,19,Woman,Right,
,,,,,,,,,,,,,,,,,558,19,Woman,Right,4,13,0.4,2,0,180,0,0.3995051000001695,['y'],0.34370059999946534,1.732,3483.2871084,,,,,558,19,Woman,Right,
,,,,,,,,,,,,,,,,,558,19,Woman,Right,4,74,0.15,1,180,-,180,0.18729890000031446,['y'],0.9919621999997617,1.732,3487.3577483999998,,,,,558,19,Woman,Right,
,,,,,,,,,,,,,,,,,558,19,Woman,Right,4,26,0.4,1,180,-,0,0.29982190000009723,['y'],0.5444422999999006,1.732,3491.0613550999997,,,,,558,19,Woman,Right,
,,,,,,,,,,,,,,,,,558,19,Woman,Right,4,49,0.15,2,0,180,0,0.43978119999974297,['y'],0.3530645999999251,1.732,3494.264551,,,,,558,19,Woman,Right,
,,,,,,,,,,,,,,,,,558,19,Woman,Right,4,3,1,2,180,0,180,0.155044000000089,['y'],1.1296524999997928,1.732,3498.3853885999997,,,,,558,19,Woman,Right,
,,,,,,,,,,,,,,,,,558,19,Woman,Right,4,53,0.15,2,0,180,180,0.34587739999915357,['n'],1.6902411999999458,1.732,3502.8566953,,,,,558,19,Woman,Right,
,,,,,,,,,,,,,,,,,558,19,Woman,Right,4,69,0.15,2,0,180,0,0.2483714999998483,['y'],0.5383010000005015,1.732,3505.8593699000003,,,,,558,19,Woman,Right,
,,,,,,,,,,,,,,,,,558,19,Woman,Right,4,28,0.4,1,0,-,0,0.07871400000021822,['y'],0.39523579999968206,1.732,3508.5790693999998,,,,,558,19,Woman,Right,
,,,,,,,,,,,,,,,,,558,19,Woman,Right,4,52,0.15,1,0,-,0,0.40958210000007966,['y'],0.26746559999992314,1.732,3512.8330194,,,,,558,19,Woman,Right,
,,,,,,,,,,,,,,,,,558,19,Woman,Right,4,10,0.4,1,180,-,0,0.3823770000008153,['y'],0.7320546999999351,1.732,3516.7045065,,,,,558,19,Woman,Right,
,,,,,,,,,,,,,,,,,558,19,Woman,Right,4,64,0.15,1,0,-,0,0.45054030000028433,['y'],0.5457025999994585,1.732,3521.4749726,,,,,558,19,Woman,Right,
,,,,,,,,,,,,,,,,,558,19,Woman,Right,4,31,0.4,2,180,0,0,2.4961766999995234,['n'],1.2693681000000652,1.732,3527.6478245,,,,,558,19,Woman,Right,
,,,,,,,,,,,,,,,,,558,19,Woman,Right,4,17,0.4,2,0,180,180,0.4178163000005952,['n'],0.9015752000004795,1.73,3531.1692641,,,,,558,19,Woman,Right,
,,,,,,,,,,,,,,,,,558,19,Woman,Right,4,0,1,1,0,-,0,0.32633650000025227,['y'],1.3344733000003544,1.724,3535.4897408999996,,,,,558,19,Woman,Right,
,,,,,,,,,,,,,,,,,558,19,Woman,Right,4,71,0.15,2,180,0,180,0.49581319999924744,['y'],0.8386737999999241,1.718,3539.2605655999996,,,,,558,19,Woman,Right,
,,,,,,,,,,,,,,,,,558,19,Woman,Right,4,65,0.15,2,0,180,0,0.5837301999999909,['y'],1.2819768999997905,1.718,3543.4150996,,,,,558,19,Woman,Right,
,,,,,,,,,,,,,,,,,558,19,Woman,Right,4,51,0.15,2,180,0,0,0.24198440000054688,['y'],0.3598102000005383,1.718,3546.3664375999997,,,,,558,19,Woman,Right,
,,,,,,,,,,,,,,,,,558,19,Woman,Right,4,54,0.15,1,180,-,0,0.269285200000013,['y'],0.3757644999996046,1.706,3549.2536664,,,,,558,19,Woman,Right,
,,,,,,,,,,,,,,,,,558,19,Woman,Right,4,39,0.4,2,180,0,0,0.08654430000024149,['y'],0.3682023000001209,1.708,3551.8886358,,,,,558,19,Woman,Right,
,,,,,,,,,,,,,,,,,558,19,Woman,Right,4,48,0.15,1,0,-,180,0.23159799999939423,['y'],0.3448343999998542,1.708,3554.7080981,,,,,558,19,Woman,Right,
,,,,,,,,,,,,,,,,,558,19,Woman,Right,4,57,0.15,2,0,180,0,0.2590176000003339,['y'],0.3449515000002066,1.708,3557.7112282999997,,,,,558,19,Woman,Right,
,,,,,,,,,,,,,,,,,558,19,Woman,Right,4,63,0.15,2,180,0,0,0.33941779999986466,['y'],0.3771504999995159,1.724,3561.1486398999996,,,,,558,19,Woman,Right,
,,,,,,,,,,,,,,,,,558,19,Woman,Right,4,73,0.15,2,0,180,0,1.0408432000003813,['y'],0.7378405999997995,1.724,3565.0850431,,,,,558,19,Woman,Right,
,,,,,,,,,,,,,,,,,558,19,Woman,Right,4,11,0.4,2,180,0,180,0.4514767999999094,['y'],0.8267453000007663,1.724,3569.8404345999998,,,,,558,19,Woman,Right,
,,,,,,,,,,,,,,,,,558,19,Woman,Right,4,40,0.4,1,0,-,0,0.907118499999342,['y'],0.8112732000008691,1.2,3574.1107354999995,,,,,558,19,Woman,Right,
,,,,,,,,,,,,,,,,,558,19,Woman,Right,4,42,0.4,1,180,-,0,1.3142625000000407,['y'],1.019865100000061,1.252,3578.8321073999996,,,,,558,19,Woman,Right,
,,,,,,,,,,,,,,,,,558,19,Woman,Right,4,70,0.15,1,180,-,0,0.6592018999999709,['y'],0.5163991999997961,1.252,3582.4025488999996,,,,,558,19,Woman,Right,
,,,,,,,,,,,,,,,,,558,19,Woman,Right,4,21,0.4,2,0,180,0,0.2650649000006524,['y'],0.5572191999999632,1.298,3585.4891833,,,,,558,19,Woman,Right,
,,,,,,,,,,,,,,,,,558,19,Woman,Right,4,37,0.4,2,0,180,0,0.0167818999998417,['y'],0.27636809999967227,1.29,3588.041241,,,,,558,19,Woman,Right,
,,,,,,,,,,,,,,,,,558,19,Woman,Right,4,18,0.4,1,180,-,180,1.0567591999997603,['y'],0.6056883999999627,1.284,3592.1619677999997,,,,,558,19,Woman,Right,
,,,,,,,,,,,,,,,,,558,19,Woman,Right,4,22,0.4,1,180,-,180,0.21611269999993965,['y'],0.8305112999996709,1.282,3595.4152827,,,,,558,19,Woman,Right,
,,,,,,,,,,,,,,,,,558,19,Woman,Right,4,66,0.15,1,180,-,180,0.15623319999940577,['y'],0.31843040000057954,1.28,3598.1013280999996,,,,,558,19,Woman,Right,
,,,,,,,,,,,,,,,,,558,19,Woman,Right,4,75,0.15,2,180,0,180,0.033379199999217235,['y'],0.34022709999953804,1.28,3600.6204539,,,,,558,19,Woman,Right,
,,,,,,,,,,,,,,,,,558,19,Woman,Right,4,62,0.15,1,180,-,180,0.2621793999996953,['y'],0.791423699999541,1.28,3603.9238297,,,,,558,19,Woman,Right,
,,,,,,,,,,,,,,,,,558,19,Woman,Right,4,4,1,1,0,-,0,0.3949214000003849,['y'],1.2077227999998286,1.766,3607.9778240999995,,,,,558,19,Woman,Right,
,,,,,,,,,,,,,,,,,558,19,Woman,Right,4,12,0.4,1,0,-,180,0.5473895999994056,['y'],0.5517621999997573,1.766,3611.2145583,,,,,558,19,Woman,Right,
,,,,,,,,,,,,,,,,,558,19,Woman,Right,4,5,1,2,0,180,180,0.4193838000001051,['n'],0.8325420000001031,1.758,3614.8349327999995,,,,,558,19,Woman,Right,
,,,,,,,,,,,,,,,,,558,19,Woman,Right,4,36,0.4,1,0,-,180,0.016587000000072294,['n'],0.42583860000013374,1.758,3617.4706365,,,,,558,19,Woman,Right,
,,,,,,,,,,,,,,,,,558,19,Woman,Right,4,61,0.15,2,0,180,180,0.5074505000002318,['y'],0.7855798000000505,1.758,3621.7915651000003,,,,,558,19,Woman,Right,
,,,,,,,,,,,,,,,,,558,19,Woman,Right,4,78,0.15,1,180,-,180,1.7168375999999625,['y'],1.7059214000000793,1.76,3627.5471995,,,,,558,19,Woman,Right,
,,,,,,,,,,,,,,,,,558,19,Woman,Right,4,46,0.15,1,180,-,180,0.8214930999993157,['y'],0.5147024999996574,1.76,3631.0674407999995,,,,,558,19,Woman,Right,
,,,,,,,,,,,,,,,,,558,19,Woman,Right,4,1,1,2,0,180,0,0.38201160000062373,['y'],0.8271853999995074,1.76,3634.5044316000003,,,,,558,19,Woman,Right,
,,,,,,,,,,,,,,,,,558,19,Woman,Right,4,27,0.4,2,180,0,180,0.13655329999983223,['y'],0.3397420000001148,1.76,3637.2903464,,,,,558,19,Woman,Right,
,,,,,,,,,,,,,,,,,558,19,Woman,Right,4,47,0.15,2,180,0,180,0.06603569999970205,['y'],0.37205309999990277,1.758,3640.3266345,,,,,558,19,Woman,Right,
,,,,,,,,,,,,,,,,,558,19,Woman,Right,4,55,0.15,2,180,0,180,0.23150380000060977,['y'],0.26795750000019325,1.758,3643.2629494000003,,,,,558,19,Woman,Right,
,,,,,,,,,,,,,,,,,558,19,Woman,Right,4,16,0.4,1,0,-,0,0.28178100000059203,['y'],0.573031599999922,1.758,3646.3827418,,,,,558,19,Woman,Right,
,,,,,,,,,,,,,,,,,558,19,Woman,Right,4,79,0.15,2,180,0,180,0.3748836000004303,['y'],0.36504559999957564,1.758,3649.4691918,,,,,558,19,Woman,Right,
,,,,,,,,,,,,,,,,,558,19,Woman,Right,4,67,0.15,2,180,0,0,1.180175500000587,['y'],0.36516560000018217,1.758,3653.2565064,,,,,558,19,Woman,Right,
,,,,,,,,,,,,,,,,,558,19,Woman,Right,4,25,0.4,2,0,180,0,0.5841849999997066,['n'],0.6889678999996249,1.75,3657.2270932,,,,,558,19,Woman,Right,
,,,,,,,,,,,,,,,,,558,19,Woman,Right,4,59,0.15,2,180,0,0,0.5389408999999432,['n'],0.5182063999991442,1.744,3660.4302627999996,,,,,558,19,Woman,Right,
,,,,,,,,,,,,,,,,,558,19,Woman,Right,4,33,0.4,2,0,180,0,0.34956899999997404,['n'],0.462883299999703,1.744,3663.9335217,,,,,558,19,Woman,Right,
,,,,,,,,,,,,,,,,,558,19,Woman,Right,4,60,0.15,1,0,-,0,0.12443859999984852,['n'],0.519362000000001,1.738,3667.437121,,,,,558,19,Woman,Right,
,,,,,,,,,,,,,,,,,558,19,Woman,Right,4,32,0.4,1,0,-,0,0.3000606000005064,['n'],0.503876599999785,1.734,3670.6072083,,,,,558,19,Woman,Right,
,,,,,,,,,,,,,,,,,558,19,Woman,Right,4,7,1,2,180,0,0,0.2819441999999981,['n'],0.32050839999919845,1.734,3673.4932167999996,,,,,558,19,Woman,Right,
,,,,,,,,,,,,,,,,,558,19,Woman,Right,4,20,0.4,1,0,-,0,0.32311589999972057,['n'],0.48051740000028076,1.734,3676.6130759999996,,,,,558,19,Woman,Right,
,,,,,,,,,,,,,,,,,558,19,Woman,Right,4,15,0.4,2,180,0,0,0.3723472000001493,['n'],0.4169707000000926,1.734,3679.7158535,,,,,558,19,Woman,Right,
,,,,,,,,,,,,,,,,,558,19,Woman,Right,4,50,0.15,1,180,-,0,0.1651582000004055,['n'],0.33689119999962713,1.734,3682.5353274,,,,,558,19,Woman,Right,
,,,,,,,,,,,,,,,,,558,19,Woman,Right,4,76,0.15,1,0,-,0,0.024531600000045728,['n'],0.4498100999999224,1.734,3685.4052129,,,,,558,19,Woman,Right,
,,,,,,,,,,,,,,,,,558,19,Woman,Right,4,68,0.15,1,0,-,180,0.39366599999993923,['y'],1.2023277999996935,1.734,3689.2920157999997,,,,,558,19,Woman,Right,
,,,,,,,,,,,,,,,,,558,19,Woman,Right,5,4,1,1,0,-,0,0.32037119999949937,['y'],0.6828798000005918,1.734,3693.8134862999996,53.75,15.0,77.5,,558,19,Woman,Right,
,,,,,,,,,,,,,,,,,558,19,Woman,Right,5,34,0.4,1,180,-,0,0.15620320000016363,['n'],0.7073299000003317,1.734,3696.9331451999997,,,,,558,19,Woman,Right,
,,,,,,,,,,,,,,,,,558,19,Woman,Right,5,38,0.4,1,180,-,180,1.18302870000025,['n'],0.8439597999995385,1.734,3701.1872802,,,,,558,19,Woman,Right,
,,,,,,,,,,,,,,,,,558,19,Woman,Right,5,62,0.15,1,180,-,0,0.16597400000046036,['n'],0.476187199999913,1.734,3704.0067206000003,,,,,558,19,Woman,Right,
,,,,,,,,,,,,,,,,,558,19,Woman,Right,5,15,0.4,2,180,0,0,0.016534999999748834,['y'],2.2269274000000223,1.734,3708.3277173999995,,,,,558,19,Woman,Right,
,,,,,,,,,,,,,,,,,558,19,Woman,Right,5,75,0.15,2,180,0,0,0.7121232999998028,['y'],0.5891922999999224,1.734,3711.8645264999996,,,,,558,19,Woman,Right,
,,,,,,,,,,,,,,,,,558,19,Woman,Right,5,13,0.4,2,0,180,0,0.1544594999995752,['y'],0.5334032000000661,1.73,3714.7509849,,,,,558,19,Woman,Right,
,,,,,,,,,,,,,,,,,558,19,Woman,Right,5,58,0.15,1,180,-,0,0.2505559999999605,['y'],0.48856310000064695,1.974,3718.1377360999995,,,,,558,19,Woman,Right,
,,,,,,,,,,,,,,,,,558,19,Woman,Right,5,68,0.15,1,0,-,180,0.27910220000012487,['y'],1.2708638000003702,1.556,3721.9081355999997,,,,,558,19,Woman,Right,
,,,,,,,,,,,,,,,,,558,19,Woman,Right,5,27,0.4,2,180,0,0,0.666585799999666,['y'],0.6227459000001545,1.562,3725.7284079,,,,,558,19,Woman,Right,
,,,,,,,,,,,,,,,,,558,19,Woman,Right,5,18,0.4,1,180,-,0,0.45975889999954234,['y'],0.5834842000003846,1.604,3728.9149035,,,,,558,19,Woman,Right,
,,,,,,,,,,,,,,,,,558,19,Woman,Right,5,52,0.15,1,0,-,180,0.26648999999997613,['y'],0.6558759999998074,1.604,3732.2014307,,,,,558,19,Woman,Right,
,,,,,,,,,,,,,,,,,558,19,Woman,Right,5,53,0.15,2,0,180,180,0.46383050000076764,['y'],0.6643485000004148,1.604,3735.5214803,,,,,558,19,Woman,Right,
,,,,,,,,,,,,,,,,,558,19,Woman,Right,5,9,0.4,2,0,180,180,0.644637899999907,['y'],0.8327853999999206,1.6099999999999999,3739.3089236999995,,,,,558,19,Woman,Right,
,,,,,,,,,,,,,,,,,558,19,Woman,Right,5,64,0.15,1,0,-,0,0.516085700000076,['y'],0.5689006000002337,1.612,3742.6619966999997,,,,,558,19,Woman,Right,
,,,,,,,,,,,,,,,,,558,19,Woman,Right,5,14,0.4,1,180,-,0,0.12223610000000917,['y'],1.4580342000008386,1.756,3746.9832017,,,,,558,19,Woman,Right,
,,,,,,,,,,,,,,,,,558,19,Woman,Right,5,77,0.15,2,0,180,0,0.3166689999998198,['y'],0.3624276999998983,1.712,3750.0026078,,,,,558,19,Woman,Right,
,,,,,,,,,,,,,,,,,558,19,Woman,Right,5,16,0.4,1,0,-,0,0.47299419999944803,['n'],0.8750101000005088,1.708,3753.4736725000002,,,,,558,19,Woman,Right,
,,,,,,,,,,,,,,,,,558,19,Woman,Right,5,56,0.15,1,0,-,0,0.2953661000001375,['n'],0.4909332999995968,1.708,3756.6760495999997,,,,,558,19,Woman,Right,
,,,,,,,,,,,,,,,,,558,19,Woman,Right,5,55,0.15,2,180,0,0,0.30534849999912694,['n'],0.3791739999996935,1.708,3760.1294944,,,,,558,19,Woman,Right,
,,,,,,,,,,,,,,,,,558,19,Woman,Right,5,44,0.15,1,0,-,0,0.4254049000001032,['n'],0.6278733999997712,1.71,3763.5661235,,,,,558,19,Woman,Right,
,,,,,,,,,,,,,,,,,558,19,Woman,Right,5,39,0.4,2,180,0,0,0.20097139999961655,['n'],0.5164084999996703,1.704,3766.5691465,,,,,558,19,Woman,Right,
,,,,,,,,,,,,,,,,,558,19,Woman,Right,5,7,1,2,180,0,180,0.3916685000003781,['n'],0.4607682999994722,1.704,3769.5553779,,,,,558,19,Woman,Right,
,,,,,,,,,,,,,,,,,558,19,Woman,Right,5,69,0.15,2,0,180,0,0.5241943000000902,['n'],0.5894656999998915,1.7,3772.892296,,,,,558,19,Woman,Right,
