p_block,p_section,p_coherence,p_direction1,p_direction2,p_direction_response,p_direction_RT,p_change_response,p_change_RT,p_confidence,p_full_correct,p_without5_correct,p_full_total,p_without5_total,p_full_avg,p_witout5_avg,p_total_time,sub,age,sex,handedness,loop,trial randomization,coherence,condition,direction1,direction2,direction_response,direction_RT,change_response,change_RT,change_confidence,change_confidence_RT,block_direction_avg,block_stable_avg,block_change_avg,total_time,sub,age,sex,handedness,
1,1,1.0,180,-,180,0.5320286999995005,-,-,-,,,,,,,,54064,20,Woman,Right,,,,,,,,,,,,,,,,,54064,20,Woman,Right,
1,1,1.0,180,-,180,1.5279363000008743,-,-,-,,,,,,,,54064,20,Woman,Right,,,,,,,,,,,,,,,,,54064,20,Woman,Right,
1,1,1.0,0,-,0,0.31014049999794224,-,-,-,,,,,,,,54064,20,Woman,Right,,,,,,,,,,,,,,,,,54064,20,Woman,Right,
1,1,1.0,0,-,0,0.016963699999905657,-,-,-,,,,,,,,54064,20,Woman,Right,,,,,,,,,,,,,,,,,54064,20,Woman,Right,
1,1,1.0,180,-,180,1.022783000000345,-,-,-,,,,,,,,54064,20,Woman,Right,,,,,,,,,,,,,,,,,54064,20,Woman,Right,
1,1,1.0,180,-,180,0.08809930000279564,-,-,-,,,,,,,,54064,20,Woman,Right,,,,,,,,,,,,,,,,,54064,20,Woman,Right,
1,1,1.0,180,-,180,0.19897820000187494,-,-,-,,,,,,,,54064,20,Woman,Right,,,,,,,,,,,,,,,,,54064,20,Woman,Right,
1,1,1.0,180,-,180,1.01611270000285,-,-,-,,,,,,,,54064,20,Woman,Right,,,,,,,,,,,,,,,,,54064,20,Woman,Right,
1,1,1.0,0,-,0,0.01675499999691965,-,-,-,,,,,,,,54064,20,Woman,Right,,,,,,,,,,,,,,,,,54064,20,Woman,Right,
1,1,1.0,0,-,0,0.016492100003233645,-,-,-,10,10,10,10,1.0,1.0,,54064,20,Woman,Right,,,,,,,,,,,,,,,,,54064,20,Woman,Right,
2,1,0.15,180,-,0,0.49242770000273595,-,-,-,,,,,,,,54064,20,Woman,Right,,,,,,,,,,,,,,,,,54064,20,Woman,Right,
2,1,0.15,0,-,0,0.01656139999977313,-,-,-,,,,,,,,54064,20,Woman,Right,,,,,,,,,,,,,,,,,54064,20,Woman,Right,
2,1,0.15,180,-,180,0.08450440000160597,-,-,-,,,,,,,,54064,20,Woman,Right,,,,,,,,,,,,,,,,,54064,20,Woman,Right,
2,1,0.15,0,-,0,0.11459209999884479,-,-,-,,,,,,,,54064,20,Woman,Right,,,,,,,,,,,,,,,,,54064,20,Woman,Right,
2,1,0.4,180,-,180,0.5051049000030616,-,-,-,,,,,,,,54064,20,Woman,Right,,,,,,,,,,,,,,,,,54064,20,Woman,Right,
2,1,0.4,0,-,0,0.1433827000000747,-,-,-,,,,,,,,54064,20,Woman,Right,,,,,,,,,,,,,,,,,54064,20,Woman,Right,
2,1,0.4,180,-,180,0.2844362000032561,-,-,-,,,,,,,,54064,20,Woman,Right,,,,,,,,,,,,,,,,,54064,20,Woman,Right,
2,1,0.4,0,-,0,0.2908386999988579,-,-,-,,,,,,,,54064,20,Woman,Right,,,,,,,,,,,,,,,,,54064,20,Woman,Right,
2,1,0.15,0,-,180,0.3775136999975075,-,-,-,,,,,,,,54064,20,Woman,Right,,,,,,,,,,,,,,,,,54064,20,Woman,Right,
2,1,0.15,180,-,0,0.2539744999958202,-,-,-,7,4,10,4,0.7,1.0,,54064,20,Woman,Right,,,,,,,,,,,,,,,,,54064,20,Woman,Right,
3,2,1.0,0,180,180,1.1437183000016375,['y'],1.9916964000003645,2.0,,,,,,,,54064,20,Woman,Right,,,,,,,,,,,,,,,,,54064,20,Woman,Right,
3,2,1.0,0,180,180,1.030210500000976,['y'],0.4843983000027947,1.992,,,,,,,,54064,20,Woman,Right,,,,,,,,,,,,,,,,,54064,20,Woman,Right,
3,2,1.0,0,180,180,2.512229499996465,['y'],0.34101940000255127,2.0,,,,,,,,54064,20,Woman,Right,,,,,,,,,,,,,,,,,54064,20,Woman,Right,
3,2,1.0,0,180,180,1.11779530000058,['y'],0.3449627000009059,2.0,,,,,,,,54064,20,Woman,Right,,,,,,,,,,,,,,,,,54064,20,Woman,Right,
3,2,1.0,180,0,0,0.83323129999917,['y'],0.3859133000005386,2.0,,,,,,,,54064,20,Woman,Right,,,,,,,,,,,,,,,,,54064,20,Woman,Right,
3,2,1.0,0,180,180,0.7248646000007284,['y'],0.3550156000055722,2.0,,,,,,,,54064,20,Woman,Right,,,,,,,,,,,,,,,,,54064,20,Woman,Right,
3,2,1.0,0,180,180,0.4796739000012167,['y'],0.4566502000016044,2.0,,,,,,,,54064,20,Woman,Right,,,,,,,,,,,,,,,,,54064,20,Woman,Right,
3,2,1.0,180,0,0,0.7500843000016175,['y'],0.3102290999959223,2.0,,,,,,,,54064,20,Woman,Right,,,,,,,,,,,,,,,,,54064,20,Woman,Right,
3,2,1.0,180,0,0,0.44896809999772813,['y'],0.4762756999989506,2.0,,,,,,,,54064,20,Woman,Right,,,,,,,,,,,,,,,,,54064,20,Woman,Right,
3,2,1.0,180,0,0,1.0068558000057237,['y'],0.3170338999989326,2.0,10,10,10,10,1.0,1.0,,54064,20,Woman,Right,,,,,,,,,,,,,,,,,54064,20,Woman,Right,
4,2,0.4,0,180,180,0.5555606999987504,['y'],0.49316689999977825,2.0,,,,,,,,54064,20,Woman,Right,,,,,,,,,,,,,,,,,54064,20,Woman,Right,
4,2,0.4,0,180,180,0.5428565000038361,['y'],0.8818842999971821,2.0,,,,,,,,54064,20,Woman,Right,,,,,,,,,,,,,,,,,54064,20,Woman,Right,
4,2,0.4,0,180,180,0.618012799997814,['y'],0.31477319999976316,2.0,,,,,,,,54064,20,Woman,Right,,,,,,,,,,,,,,,,,54064,20,Woman,Right,
4,2,0.15,0,180,180,0.3667451000001165,['y'],0.4419188000028953,2.0,,,,,,,,54064,20,Woman,Right,,,,,,,,,,,,,,,,,54064,20,Woman,Right,
4,2,0.15,180,0,0,1.1330654000048526,['n'],0.986208300004364,1.748,,,,,,,,54064,20,Woman,Right,,,,,,,,,,,,,,,,,54064,20,Woman,Right,
4,2,0.4,0,180,180,0.4001607999962289,['y'],0.3963700999956927,2.0,,,,,,,,54064,20,Woman,Right,,,,,,,,,,,,,,,,,54064,20,Woman,Right,
4,2,0.15,180,0,180,0.41649810000672005,['y'],0.301503299997421,1.726,,,,,,,,54064,20,Woman,Right,,,,,,,,,,,,,,,,,54064,20,Woman,Right,
4,2,0.15,180,0,0,0.473077499998908,['y'],0.37281000000075437,1.99,,,,,,,,54064,20,Woman,Right,,,,,,,,,,,,,,,,,54064,20,Woman,Right,
4,2,0.15,0,180,180,0.33329300000332296,['y'],0.3022019999989425,1.988,,,,,,,,54064,20,Woman,Right,,,,,,,,,,,,,,,,,54064,20,Woman,Right,
4,2,0.15,180,0,180,0.774734399994486,['y'],0.8233663999999408,1.988,8,4,10,4,0.8,1.0,,54064,20,Woman,Right,,,,,,,,,,,,,,,,,54064,20,Woman,Right,
5,3,0.15,180,0,0,1.4507580999998027,['y'],0.39259849999507423,1.986,,,,,,,,54064,20,Woman,Right,,,,,,,,,,,,,,,,,54064,20,Woman,Right,
5,3,0.4,0,180,180,0.3342318999930285,['y'],0.4565857999987202,1.986,,,,,,,,54064,20,Woman,Right,,,,,,,,,,,,,,,,,54064,20,Woman,Right,
5,3,0.4,0,-,180,0.3658024000033038,['y'],0.31084289999853354,1.576,,,,,,,,54064,20,Woman,Right,,,,,,,,,,,,,,,,,54064,20,Woman,Right,
5,3,0.15,180,0,0,2.267283799999859,['n'],0.8968489999970188,1.626,,,,,,,,54064,20,Woman,Right,,,,,,,,,,,,,,,,,54064,20,Woman,Right,
5,3,1.0,0,180,180,0.3044817999980296,['y'],0.4924085000020568,2.0,,,,,,,,54064,20,Woman,Right,,,,,,,,,,,,,,,,,54064,20,Woman,Right,
5,3,0.15,0,-,180,0.4235802999974112,['n'],1.879897599996184,1.726,,,,,,,,54064,20,Woman,Right,,,,,,,,,,,,,,,,,54064,20,Woman,Right,
5,3,0.15,180,0,0,1.170698399997491,['n'],0.2709145999979228,1.696,,,,,,,,54064,20,Woman,Right,,,,,,,,,,,,,,,,,54064,20,Woman,Right,
5,3,1.0,180,-,180,0.47498130000167293,['n'],0.33225729999685427,1.986,,,,,,,,54064,20,Woman,Right,,,,,,,,,,,,,,,,,54064,20,Woman,Right,
5,3,1.0,180,0,0,0.6255698000022676,['y'],0.30110810000041965,1.982,,,,,,,,54064,20,Woman,Right,,,,,,,,,,,,,,,,,54064,20,Woman,Right,
5,3,1.0,180,0,0,0.38270319999719504,['y'],0.32485060000180965,1.982,8,5,10,6,0.8,0.8333333333333334,,54064,20,Woman,Right,,,,,,,,,,,,,,,,,54064,20,Woman,Right,
,,,,,,,,,,,,,,,,4.29999636253342e-06,54064,20,Woman,Right,,,,,,,,,,,,,,,,,54064,20,Woman,Right,
,,,,,,,,,,,,,,,,,54064,20,Woman,Right,0,64,0.15,1,0,-,0,1.2563629999931436,['n'],1.673311200000171,1.8519999999999999,306.71950389999984,,,,,54064,20,Woman,Right,
,,,,,,,,,,,,,,,,,54064,20,Woman,Right,0,14,0.4,1,180,-,0,0.4875596999991103,['y'],0.9222353000004659,1.8519999999999999,311.085159000002,,,,,54064,20,Woman,Right,
,,,,,,,,,,,,,,,,,54064,20,Woman,Right,0,49,0.15,2,0,180,180,0.32990300000528805,['n'],0.8180265000046347,1.8519999999999999,315.2517934999996,,,,,54064,20,Woman,Right,
,,,,,,,,,,,,,,,,,54064,20,Woman,Right,0,63,0.15,2,180,0,0,0.40427500000078,['y'],0.8669754000002285,1.8519999999999999,319.76840029999585,,,,,54064,20,Woman,Right,
,,,,,,,,,,,,,,,,,54064,20,Woman,Right,0,31,0.4,2,180,0,0,0.45878250000532717,['y'],0.7871510999975726,2.0,324.3862345000016,,,,,54064,20,Woman,Right,
,,,,,,,,,,,,,,,,,54064,20,Woman,Right,0,10,0.4,1,180,-,180,0.9566161999973701,['n'],0.7397533999974257,1.76,329.1685464999973,,,,,54064,20,Woman,Right,
,,,,,,,,,,,,,,,,,54064,20,Woman,Right,0,70,0.15,1,180,-,0,1.917234799999278,['n'],1.2182986999978311,1.6179999999999999,335.36845699999685,,,,,54064,20,Woman,Right,
,,,,,,,,,,,,,,,,,54064,20,Woman,Right,0,72,0.15,1,0,-,180,1.2117244999972172,['n'],2.3333917999989353,1.624,342.5033706999966,,,,,54064,20,Woman,Right,
,,,,,,,,,,,,,,,,,54064,20,Woman,Right,0,62,0.15,1,180,-,180,1.2195385999948485,['n'],1.422935199996573,1.642,347.85271289999946,,,,,54064,20,Woman,Right,
,,,,,,,,,,,,,,,,,54064,20,Woman,Right,0,13,0.4,2,0,180,180,0.7806771000032313,['y'],0.7507990000012796,1.98,353.01856229999976,,,,,54064,20,Woman,Right,
,,,,,,,,,,,,,,,,,54064,20,Woman,Right,0,0,1,1,0,-,0,0.7366966999979923,['n'],0.8072923999934574,2.0,357.60314310000103,,,,,54064,20,Woman,Right,
,,,,,,,,,,,,,,,,,54064,20,Woman,Right,0,47,0.15,2,180,0,0,0.7999287999991793,['y'],0.7927888999984134,1.778,362.38538459999836,,,,,54064,20,Woman,Right,
,,,,,,,,,,,,,,,,,54064,20,Woman,Right,0,32,0.4,1,0,-,0,0.5766456999990623,['n'],1.1763381999990088,1.776,366.6187188999975,,,,,54064,20,Woman,Right,
,,,,,,,,,,,,,,,,,54064,20,Woman,Right,0,19,0.4,2,180,0,0,0.6064445000010892,['y'],0.736855099996319,1.9060000000000001,371.1689886000022,,,,,54064,20,Woman,Right,
,,,,,,,,,,,,,,,,,54064,20,Woman,Right,0,29,0.4,2,0,180,180,0.3296881999995094,['y'],0.7856060000049183,1.9060000000000001,374.66867900000216,,,,,54064,20,Woman,Right,
,,,,,,,,,,,,,,,,,54064,20,Woman,Right,0,39,0.4,2,180,0,180,2.3295040000011795,['y'],0.6504206000026898,1.9060000000000001,381.2020498999991,,,,,54064,20,Woman,Right,
,,,,,,,,,,,,,,,,,54064,20,Woman,Right,0,33,0.4,2,0,180,180,0.2808031000022311,['y'],0.6111758000042755,1.9060000000000001,384.6687251999974,,,,,54064,20,Woman,Right,
,,,,,,,,,,,,,,,,,54064,20,Woman,Right,0,2,1,1,180,-,180,0.7424047999957111,['n'],0.6992491000055452,1.928,389.48550539999997,,,,,54064,20,Woman,Right,
,,,,,,,,,,,,,,,,,54064,20,Woman,Right,0,6,1,1,180,-,180,0.9499102999980096,['n'],1.2758954000019003,1.922,394.23572799999965,,,,,54064,20,Woman,Right,
,,,,,,,,,,,,,,,,,54064,20,Woman,Right,0,67,0.15,2,180,0,0,0.5708718000023509,['y'],0.5804156000012881,1.8,398.93625359999714,,,,,54064,20,Woman,Right,
,,,,,,,,,,,,,,,,,54064,20,Woman,Right,0,56,0.15,1,0,-,180,1.0271226999975624,['n'],1.0522972000035224,1.79,403.7195728000006,,,,,54064,20,Woman,Right,
,,,,,,,,,,,,,,,,,54064,20,Woman,Right,0,30,0.4,1,180,-,180,0.332581200003915,['n'],0.9337368999986211,1.79,407.31880549999914,,,,,54064,20,Woman,Right,
,,,,,,,,,,,,,,,,,54064,20,Woman,Right,0,15,0.4,2,180,0,0,0.35326679999707267,['y'],0.5423683999979403,1.836,411.41883640000015,,,,,54064,20,Woman,Right,
,,,,,,,,,,,,,,,,,54064,20,Woman,Right,0,45,0.15,2,0,180,180,0.5002032999982475,['y'],0.909008199996606,1.836,415.21885920000204,,,,,54064,20,Woman,Right,
,,,,,,,,,,,,,,,,,54064,20,Woman,Right,0,61,0.15,2,0,180,0,2.3509054000023752,['n'],1.079600199998822,1.836,421.1021133999966,,,,,54064,20,Woman,Right,
,,,,,,,,,,,,,,,,,54064,20,Woman,Right,0,21,0.4,2,0,180,180,0.239015199993446,['y'],2.167846099997405,1.836,426.21884670000145,,,,,54064,20,Woman,Right,
,,,,,,,,,,,,,,,,,54064,20,Woman,Right,0,50,0.15,1,180,-,0,1.395644700001867,['n'],0.6889599999994971,1.836,430.86888709999766,,,,,54064,20,Woman,Right,
,,,,,,,,,,,,,,,,,54064,20,Woman,Right,0,16,0.4,1,0,-,0,0.3243201000004774,['n'],0.7531711000046926,1.836,434.38655370000197,,,,,54064,20,Woman,Right,
,,,,,,,,,,,,,,,,,54064,20,Woman,Right,0,54,0.15,1,180,-,180,0.41467679999914253,['n'],0.9051327999986825,1.836,438.3690296999994,,,,,54064,20,Woman,Right,
,,,,,,,,,,,,,,,,,54064,20,Woman,Right,0,68,0.15,1,0,-,0,0.4183387000011862,['n'],0.6104494000028353,1.71,441.96890419999545,,,,,54064,20,Woman,Right,
,,,,,,,,,,,,,,,,,54064,20,Woman,Right,0,57,0.15,2,0,180,180,0.27818159999878844,['n'],1.274936699999671,1.71,445.9857200999977,,,,,54064,20,Woman,Right,
,,,,,,,,,,,,,,,,,54064,20,Woman,Right,0,76,0.15,1,0,-,0,2.372945399998571,['n'],0.6513696999973035,1.71,451.90234119999513,,,,,54064,20,Woman,Right,
,,,,,,,,,,,,,,,,,54064,20,Woman,Right,0,20,0.4,1,0,-,0,0.2939020999983768,['n'],0.5959793999936664,1.788,455.76901550000184,,,,,54064,20,Woman,Right,
,,,,,,,,,,,,,,,,,54064,20,Woman,Right,0,41,0.4,2,0,180,180,0.467399100001785,['y'],0.6516744000036852,1.774,460.21904129999893,,,,,54064,20,Woman,Right,
,,,,,,,,,,,,,,,,,54064,20,Woman,Right,0,78,0.15,1,180,-,180,1.5986253000010038,['y'],1.5250531999990926,1.774,465.7530736999979,,,,,54064,20,Woman,Right,
,,,,,,,,,,,,,,,,,54064,20,Woman,Right,0,17,0.4,2,0,180,0,0.016709700001229066,['y'],1.8931374000021606,1.774,470.1863388999991,,,,,54064,20,Woman,Right,
,,,,,,,,,,,,,,,,,54064,20,Woman,Right,0,66,0.15,1,180,-,0,0.6391966000010143,['y'],0.7104364999977406,1.774,474.3363337999981,,,,,54064,20,Woman,Right,
,,,,,,,,,,,,,,,,,54064,20,Woman,Right,0,36,0.4,1,0,-,0,0.2743084000030649,['n'],0.6707743000006303,1.758,477.76905109999643,,,,,54064,20,Woman,Right,
,,,,,,,,,,,,,,,,,54064,20,Woman,Right,0,43,0.4,2,180,0,0,0.6831329000051483,['y'],0.43092349999642465,1.85,481.65306069999497,,,,,54064,20,Woman,Right,
,,,,,,,,,,,,,,,,,54064,20,Woman,Right,0,24,0.4,1,0,-,0,0.36618129999988014,['n'],0.6553954999981215,1.85,485.06913299999724,,,,,54064,20,Woman,Right,
,,,,,,,,,,,,,,,,,54064,20,Woman,Right,0,77,0.15,2,0,180,180,0.37238539999816567,['n'],0.9435501999978442,1.734,489.3361623000019,,,,,54064,20,Woman,Right,
,,,,,,,,,,,,,,,,,54064,20,Woman,Right,0,69,0.15,2,0,180,180,1.256564300005266,['y'],0.5846867999935057,1.734,493.68658129999676,,,,,54064,20,Woman,Right,
,,,,,,,,,,,,,,,,,54064,20,Woman,Right,0,37,0.4,2,0,180,180,0.5324362000028486,['y'],0.6570673999958672,1.854,497.6358762999953,,,,,54064,20,Woman,Right,
,,,,,,,,,,,,,,,,,54064,20,Woman,Right,0,25,0.4,2,0,180,180,1.0791000000026543,['y'],0.5611564999999246,1.8559999999999999,501.786617699996,,,,,54064,20,Woman,Right,
,,,,,,,,,,,,,,,,,54064,20,Woman,Right,0,55,0.15,2,180,0,0,0.7271440999975312,['y'],1.0661554999969667,1.8559999999999999,506.2192988999959,,,,,54064,20,Woman,Right,
,,,,,,,,,,,,,,,,,54064,20,Woman,Right,0,7,1,2,180,0,0,0.33442899999499787,['y'],0.7146466999984113,1.892,510.0865954999972,,,,,54064,20,Woman,Right,
,,,,,,,,,,,,,,,,,54064,20,Woman,Right,0,73,0.15,2,0,180,180,0.8177157000027364,['y'],0.5869955000016489,1.78,514.452723800001,,,,,54064,20,Woman,Right,
,,,,,,,,,,,,,,,,,54064,20,Woman,Right,0,26,0.4,1,180,-,180,0.5655779000007897,['n'],0.6274737999992794,1.78,518.1858718000003,,,,,54064,20,Woman,Right,
,,,,,,,,,,,,,,,,,54064,20,Woman,Right,0,74,0.15,1,180,-,180,1.897626099998888,['n'],0.7559658999962267,1.78,523.2867053000009,,,,,54064,20,Woman,Right,
,,,,,,,,,,,,,,,,,54064,20,Woman,Right,0,18,0.4,1,180,-,180,0.8965929000041797,['n'],0.9563194000002113,1.6440000000000001,527.8192750999951,,,,,54064,20,Woman,Right,
,,,,,,,,,,,,,,,,,54064,20,Woman,Right,0,42,0.4,1,180,-,180,0.5680271000019275,['n'],1.3407563000000664,1.804,532.8193650999965,,,,,54064,20,Woman,Right,
,,,,,,,,,,,,,,,,,54064,20,Woman,Right,0,48,0.15,1,0,-,0,0.8711163000043598,['n'],0.8062638999981573,1.792,536.8540705999985,,,,,54064,20,Woman,Right,
,,,,,,,,,,,,,,,,,54064,20,Woman,Right,0,44,0.15,1,0,-,180,0.33991989999776706,['n'],1.014659100001154,1.792,540.9692309999955,,,,,54064,20,Woman,Right,
,,,,,,,,,,,,,,,,,54064,20,Woman,Right,0,38,0.4,1,180,-,180,0.3098701999988407,['n'],0.4307773999971687,1.792,544.4194239999997,,,,,54064,20,Woman,Right,
,,,,,,,,,,,,,,,,,54064,20,Woman,Right,0,79,0.15,2,180,0,0,0.4067656999977771,['n'],0.5278074999951059,1.792,547.9533914999993,,,,,54064,20,Woman,Right,
,,,,,,,,,,,,,,,,,54064,20,Woman,Right,0,11,0.4,2,180,0,0,0.6950906999991275,['y'],0.671869699996023,1.792,551.9034157999995,,,,,54064,20,Woman,Right,
,,,,,,,,,,,,,,,,,54064,20,Woman,Right,0,65,0.15,2,0,180,180,0.9959620000008726,['y'],0.40836940000008326,1.792,556.0701113999967,,,,,54064,20,Woman,Right,
,,,,,,,,,,,,,,,,,54064,20,Woman,Right,0,59,0.15,2,180,0,0,0.48738739999680547,['n'],0.7844216999947093,1.592,560.4536641000013,,,,,54064,20,Woman,Right,
,,,,,,,,,,,,,,,,,54064,20,Woman,Right,0,53,0.15,2,0,180,180,0.9224071000062395,['y'],0.4897121999965748,1.82,564.9376334999979,,,,,54064,20,Woman,Right,
,,,,,,,,,,,,,,,,,54064,20,Woman,Right,0,4,1,1,0,-,0,0.709850400002324,['n'],0.9384665000034147,1.962,569.7368556000001,,,,,54064,20,Woman,Right,
,,,,,,,,,,,,,,,,,54064,20,Woman,Right,0,8,0.4,1,0,-,0,0.94877699999779,['y'],1.178506100004597,1.6480000000000001,574.7369159000009,,,,,54064,20,Woman,Right,
,,,,,,,,,,,,,,,,,54064,20,Woman,Right,0,35,0.4,2,180,0,0,0.5444012000007206,['y'],0.6509178999986034,1.81,579.1861213000011,,,,,54064,20,Woman,Right,
,,,,,,,,,,,,,,,,,54064,20,Woman,Right,0,1,1,2,0,180,180,0.5751600000003236,['y'],0.6430531999940285,1.79,583.2194850000014,,,,,54064,20,Woman,Right,
,,,,,,,,,,,,,,,,,54064,20,Woman,Right,0,52,0.15,1,0,-,180,0.38361820000136504,['y'],0.7075078999987454,1.79,586.8028407999955,,,,,54064,20,Woman,Right,
,,,,,,,,,,,,,,,,,54064,20,Woman,Right,0,34,0.4,1,180,-,180,0.44749679999949876,['n'],0.4764069000011659,1.79,590.2535787000015,,,,,54064,20,Woman,Right,
,,,,,,,,,,,,,,,,,54064,20,Woman,Right,0,40,0.4,1,0,-,0,0.13187379999726545,['y'],0.9970214000059059,1.584,596.2195118000018,,,,,54064,20,Woman,Right,
,,,,,,,,,,,,,,,,,54064,20,Woman,Right,0,51,0.15,2,180,0,0,0.4247434999997495,['y'],0.8776780999978655,1.714,600.6869403999954,,,,,54064,20,Woman,Right,
,,,,,,,,,,,,,,,,,54064,20,Woman,Right,0,27,0.4,2,180,0,0,0.5584473999988404,['y'],0.5415910000010626,1.708,604.3204267999972,,,,,54064,20,Woman,Right,
,,,,,,,,,,,,,,,,,54064,20,Woman,Right,0,9,0.4,2,0,180,180,0.4189171999969403,['y'],0.48654610000085086,1.866,608.2028540999963,,,,,54064,20,Woman,Right,
,,,,,,,,,,,,,,,,,54064,20,Woman,Right,0,22,0.4,1,180,-,180,0.3706621000019368,['n'],1.8871976000009454,1.8639999999999999,613.3037584999984,,,,,54064,20,Woman,Right,
,,,,,,,,,,,,,,,,,54064,20,Woman,Right,0,5,1,2,0,180,180,0.6430882000058773,['y'],0.992040299999644,1.8639999999999999,617.4039185000001,,,,,54064,20,Woman,Right,
,,,,,,,,,,,,,,,,,54064,20,Woman,Right,0,46,0.15,1,180,-,180,3.0603189000030397,['n'],0.9210839999941527,1.8639999999999999,617.4039185000001,,,,,54064,20,Woman,Right,
,,,,,,,,,,,,,,,,,54064,20,Woman,Right,0,60,0.15,1,0,-,0,0.5539896999980556,['n'],1.3212801000045147,1.8439999999999999,630.3533893999993,,,,,54064,20,Woman,Right,
,,,,,,,,,,,,,,,,,54064,20,Woman,Right,0,12,0.4,1,0,-,0,0.13734739999927115,['n'],1.0423365000024205,1.842,633.9699722000005,,,,,54064,20,Woman,Right,
,,,,,,,,,,,,,,,,,54064,20,Woman,Right,0,71,0.15,2,180,0,180,0.5049081999968621,['n'],0.7622113000034005,1.646,638.7371267999988,,,,,54064,20,Woman,Right,
,,,,,,,,,,,,,,,,,54064,20,Woman,Right,0,28,0.4,1,0,-,0,0.368439900004887,['n'],0.6992112000007182,1.646,642.5039288999978,,,,,54064,20,Woman,Right,
,,,,,,,,,,,,,,,,,54064,20,Woman,Right,0,75,0.15,2,180,0,180,2.7412980000008247,['y'],1.2274609000014607,1.736,649.1541291999965,,,,,54064,20,Woman,Right,
,,,,,,,,,,,,,,,,,54064,20,Woman,Right,0,3,1,2,180,0,0,0.5357901999959722,['y'],0.6763686000049347,1.956,653.4872467999958,,,,,54064,20,Woman,Right,
,,,,,,,,,,,,,,,,,54064,20,Woman,Right,0,58,0.15,1,180,-,180,0.987694499999634,['n'],1.4522557000018423,1.834,659.5197992999965,,,,,54064,20,Woman,Right,
,,,,,,,,,,,,,,,,,54064,20,Woman,Right,0,23,0.4,2,180,0,0,0.3168006999985664,['y'],0.5370639999964624,1.834,663.303121500001,,,,,54064,20,Woman,Right,
,,,,,,,,,,,,,,,,,54064,20,Woman,Right,1,18,0.4,1,180,-,180,0.5810824000000139,['n'],1.1943116000038572,1.768,698.0874433999998,83.75,85.0,82.5,,54064,20,Woman,Right,
,,,,,,,,,,,,,,,,,54064,20,Woman,Right,1,65,0.15,2,0,180,180,0.6071742999993148,['y'],0.6103800999990199,1.706,702.0698804999993,,,,,54064,20,Woman,Right,
,,,,,,,,,,,,,,,,,54064,20,Woman,Right,1,45,0.15,2,0,180,180,0.36963380000088364,['y'],0.5711891000028118,1.776,705.9366289999962,,,,,54064,20,Woman,Right,
,,,,,,,,,,,,,,,,,54064,20,Woman,Right,1,61,0.15,2,0,180,180,0.2583530999982031,['y'],0.3869546999994782,1.776,709.0200646000012,,,,,54064,20,Woman,Right,
,,,,,,,,,,,,,,,,,54064,20,Woman,Right,1,55,0.15,2,180,0,0,0.3564297999982955,['y'],0.44365839999954915,1.776,712.2034863000008,,,,,54064,20,Woman,Right,
,,,,,,,,,,,,,,,,,54064,20,Woman,Right,1,71,0.15,2,180,0,0,0.2333615999959875,['y'],0.5214579999956186,1.776,715.7207024000018,,,,,54064,20,Woman,Right,
,,,,,,,,,,,,,,,,,54064,20,Woman,Right,1,6,1,1,180,-,180,0.9527749999979278,['n'],0.8534549000032712,1.776,719.9542937000006,,,,,54064,20,Woman,Right,
,,,,,,,,,,,,,,,,,54064,20,Woman,Right,1,66,0.15,1,180,-,0,0.6001472000061767,['y'],0.985208899997815,1.68,725.0544035999992,,,,,54064,20,Woman,Right,
,,,,,,,,,,,,,,,,,54064,20,Woman,Right,1,42,0.4,1,180,-,180,0.7610955999989528,['n'],0.8303535999948508,1.76,730.2875788999954,,,,,54064,20,Woman,Right,
,,,,,,,,,,,,,,,,,54064,20,Woman,Right,1,23,0.4,2,180,0,0,0.7938120000035269,['y'],0.3425974999991013,1.846,734.3377675000011,,,,,54064,20,Woman,Right,
,,,,,,,,,,,,,,,,,54064,20,Woman,Right,1,22,0.4,1,180,-,180,0.9125860999993165,['n'],0.7590638999972725,1.834,738.4367112999971,,,,,54064,20,Woman,Right,
,,,,,,,,,,,,,,,,,54064,20,Woman,Right,1,69,0.15,2,0,180,180,0.6516339000008884,['y'],0.7195906999986619,1.834,742.7869868999987,,,,,54064,20,Woman,Right,
,,,,,,,,,,,,,,,,,54064,20,Woman,Right,1,20,0.4,1,0,-,0,0.2318262999979197,['n'],0.6804386000003433,1.834,746.2368165000007,,,,,54064,20,Woman,Right,
,,,,,,,,,,,,,,,,,54064,20,Woman,Right,1,39,0.4,2,180,0,0,0.3360917999962112,['y'],0.45655700000497745,1.834,749.7544940000007,,,,,54064,20,Woman,Right,
,,,,,,,,,,,,,,,,,54064,20,Woman,Right,1,38,0.4,1,180,-,0,1.2468310999975074,['y'],0.8491267999997945,1.834,754.6201815999957,,,,,54064,20,Woman,Right,
,,,,,,,,,,,,,,,,,54064,20,Woman,Right,1,77,0.15,2,0,180,180,0.3902841000017361,['y'],0.5774018000010983,1.834,757.8211060999965,,,,,54064,20,Woman,Right,
,,,,,,,,,,,,,,,,,54064,20,Woman,Right,1,11,0.4,2,180,0,0,0.3786303000015323,['y'],0.3940073999983724,1.834,760.871235300001,,,,,54064,20,Woman,Right,
,,,,,,,,,,,,,,,,,54064,20,Woman,Right,1,68,0.15,1,0,-,0,0.33329809999850113,['y'],0.8823725999973249,1.834,765.2201665999964,,,,,54064,20,Woman,Right,
,,,,,,,,,,,,,,,,,54064,20,Woman,Right,1,0,1,1,0,-,0,0.31270069999300176,['n'],0.4349359999978333,1.95,768.9042724999963,,,,,54064,20,Woman,Right,
,,,,,,,,,,,,,,,,,54064,20,Woman,Right,1,30,0.4,1,180,-,180,0.3201868999967701,['n'],0.7153067999970517,1.908,772.4869132000022,,,,,54064,20,Woman,Right,
,,,,,,,,,,,,,,,,,54064,20,Woman,Right,1,2,1,1,180,-,180,0.3170802000022377,['n'],1.7627007999981288,1.964,778.3368555999987,,,,,54064,20,Woman,Right,
,,,,,,,,,,,,,,,,,54064,20,Woman,Right,1,15,0.4,2,180,0,0,0.6167968000008841,['y'],0.3994225999995251,1.9060000000000001,781.9042417999954,,,,,54064,20,Woman,Right,
,,,,,,,,,,,,,,,,,54064,20,Woman,Right,1,52,0.15,1,0,-,0,0.3879402000020491,['y'],2.340819699995336,1.904,787.2704383000018,,,,,54064,20,Woman,Right,
,,,,,,,,,,,,,,,,,54064,20,Woman,Right,1,32,0.4,1,0,-,0,0.7380837000018801,['y'],1.1978903999988688,1.802,792.1203246000005,,,,,54064,20,Woman,Right,
,,,,,,,,,,,,,,,,,54064,20,Woman,Right,1,50,0.15,1,180,-,180,0.3558093000028748,['y'],0.8455212000044412,1.798,795.6877722999998,,,,,54064,20,Woman,Right,
,,,,,,,,,,,,,,,,,54064,20,Woman,Right,1,27,0.4,2,180,0,0,0.5287924000003841,['y'],1.0626132000033977,1.798,799.7702869999994,,,,,54064,20,Woman,Right,
,,,,,,,,,,,,,,,,,54064,20,Woman,Right,1,74,0.15,1,180,-,180,0.5269813000049908,['y'],0.9110537999949884,1.798,804.3043850999966,,,,,54064,20,Woman,Right,
,,,,,,,,,,,,,,,,,54064,20,Woman,Right,1,62,0.15,1,180,-,0,1.0206125999975484,['y'],0.9038400999997975,1.798,808.6370387999996,,,,,54064,20,Woman,Right,
,,,,,,,,,,,,,,,,,54064,20,Woman,Right,1,79,0.15,2,180,0,0,0.37170740000146907,['y'],0.655965500001912,1.798,812.0377924999993,,,,,54064,20,Woman,Right,
,,,,,,,,,,,,,,,,,54064,20,Woman,Right,1,73,0.15,2,0,180,0,0.40901080000185175,['y'],0.5924297000019578,1.798,815.7204372999986,,,,,54064,20,Woman,Right,
,,,,,,,,,,,,,,,,,54064,20,Woman,Right,1,26,0.4,1,180,-,0,0.593601900000067,['y'],0.7931678999957512,1.798,821.721072100001,,,,,54064,20,Woman,Right,
,,,,,,,,,,,,,,,,,54064,20,Woman,Right,1,33,0.4,2,0,180,180,0.707361699998728,['y'],0.5540181999967899,1.874,825.9038520999966,,,,,54064,20,Woman,Right,
,,,,,,,,,,,,,,,,,54064,20,Woman,Right,1,12,0.4,1,0,-,0,0.7746435000008205,['y'],0.5540705000021262,1.774,830.2879390999951,,,,,54064,20,Woman,Right,
,,,,,,,,,,,,,,,,,54064,20,Woman,Right,1,7,1,2,180,0,0,0.47053150000283495,['y'],0.770711899996968,1.77,834.8209061999951,,,,,54064,20,Woman,Right,
,,,,,,,,,,,,,,,,,54064,20,Woman,Right,1,8,0.4,1,0,-,180,1.5829326000020956,['y'],0.9551179999980377,1.77,841.2211687000017,,,,,54064,20,Woman,Right,
,,,,,,,,,,,,,,,,,54064,20,Woman,Right,1,57,0.15,2,0,180,180,0.4343139999982668,['y'],0.5079206000009435,1.77,845.0205464999963,,,,,54064,20,Woman,Right,
,,,,,,,,,,,,,,,,,54064,20,Woman,Right,1,63,0.15,2,180,0,0,0.35922500000015134,['y'],0.9728876999943168,1.768,848.7871993000008,,,,,54064,20,Woman,Right,
,,,,,,,,,,,,,,,,,54064,20,Woman,Right,1,16,0.4,1,0,-,0,0.6682326000009198,['y'],0.7251168000002508,1.768,852.7871711999978,,,,,54064,20,Woman,Right,
,,,,,,,,,,,,,,,,,54064,20,Woman,Right,1,4,1,1,0,-,0,0.5545806000009179,['n'],0.7261515999998664,1.768,856.8205344000016,,,,,54064,20,Woman,Right,
,,,,,,,,,,,,,,,,,54064,20,Woman,Right,1,31,0.4,2,180,0,0,0.5195363999955589,['y'],0.5346791999982088,1.87,860.7706177,,,,,54064,20,Woman,Right,
,,,,,,,,,,,,,,,,,54064,20,Woman,Right,1,59,0.15,2,180,0,0,1.3069209000022965,['y'],1.014823700003035,1.746,866.0871559000007,,,,,54064,20,Woman,Right,
,,,,,,,,,,,,,,,,,54064,20,Woman,Right,1,37,0.4,2,0,180,180,0.569950199998857,['y'],0.4469343000018853,1.746,869.5539542999977,,,,,54064,20,Woman,Right,
,,,,,,,,,,,,,,,,,54064,20,Woman,Right,1,25,0.4,2,0,180,180,0.313948299997719,['y'],0.5512357999978121,1.742,873.0372485999978,,,,,54064,20,Woman,Right,
,,,,,,,,,,,,,,,,,54064,20,Woman,Right,1,60,0.15,1,0,-,180,0.9181816999989678,['y'],0.4960722000032547,1.742,877.1040298000007,,,,,54064,20,Woman,Right,
,,,,,,,,,,,,,,,,,54064,20,Woman,Right,1,19,0.4,2,180,0,0,1.2442869000005885,['y'],0.5767553999976371,1.742,881.4372377999971,,,,,54064,20,Woman,Right,
,,,,,,,,,,,,,,,,,54064,20,Woman,Right,1,40,0.4,1,0,-,0,0.9141155000033905,['y'],0.5054348999983631,1.742,885.437754999999,,,,,54064,20,Woman,Right,
,,,,,,,,,,,,,,,,,54064,20,Woman,Right,1,21,0.4,2,0,180,180,0.7079273000053945,['y'],1.5463721999985864,1.742,890.1377611999997,,,,,54064,20,Woman,Right,
,,,,,,,,,,,,,,,,,54064,20,Woman,Right,1,64,0.15,1,0,-,0,0.37413549999473616,['y'],0.6185822999977972,1.742,893.5214106999993,,,,,54064,20,Woman,Right,
,,,,,,,,,,,,,,,,,54064,20,Woman,Right,1,17,0.4,2,0,180,180,0.8335513999991235,['y'],0.5796669999981532,1.782,898.4038947000008,,,,,54064,20,Woman,Right,
,,,,,,,,,,,,,,,,,54064,20,Woman,Right,1,28,0.4,1,0,-,180,0.4835954000009224,['y'],0.8000331999937771,1.782,902.4378852000009,,,,,54064,20,Woman,Right,
,,,,,,,,,,,,,,,,,54064,20,Woman,Right,1,56,0.15,1,0,-,180,0.9622954000005848,['y'],1.7403112999963923,1.782,907.5706749999954,,,,,54064,20,Woman,Right,
,,,,,,,,,,,,,,,,,54064,20,Woman,Right,1,13,0.4,2,0,180,180,0.4597983999992721,['y'],0.42871480000030715,1.84,911.4880631999986,,,,,54064,20,Woman,Right,
,,,,,,,,,,,,,,,,,54064,20,Woman,Right,1,67,0.15,2,180,0,180,0.6175136000019847,['y'],0.8609798000034061,1.774,915.5874427000017,,,,,54064,20,Woman,Right,
,,,,,,,,,,,,,,,,,54064,20,Woman,Right,1,24,0.4,1,0,-,0,0.28508729999884963,['n'],0.5972613999983878,1.772,918.8877655999968,,,,,54064,20,Woman,Right,
,,,,,,,,,,,,,,,,,54064,20,Woman,Right,1,70,0.15,1,180,-,180,0.38432250000187196,['y'],0.5257648999977391,1.772,922.1206818999999,,,,,54064,20,Woman,Right,
,,,,,,,,,,,,,,,,,54064,20,Woman,Right,1,9,0.4,2,0,180,180,0.45347400000173366,['y'],0.5099829000027967,1.768,925.5556215999968,,,,,54064,20,Woman,Right,
,,,,,,,,,,,,,,,,,54064,20,Woman,Right,1,3,1,2,180,0,0,0.42648280000139493,['y'],0.5031085000009625,1.8559999999999999,929.304175199999,,,,,54064,20,Woman,Right,
,,,,,,,,,,,,,,,,,54064,20,Woman,Right,1,46,0.15,1,180,-,180,0.7835259999992559,['n'],0.9038245999981882,1.8559999999999999,933.5708471999969,,,,,54064,20,Woman,Right,
,,,,,,,,,,,,,,,,,54064,20,Woman,Right,1,36,0.4,1,0,-,180,1.066248800001631,['y'],0.6555268000010983,1.8780000000000001,938.2377428999971,,,,,54064,20,Woman,Right,
,,,,,,,,,,,,,,,,,54064,20,Woman,Right,1,54,0.15,1,180,-,0,0.6440801999997348,['y'],0.6483956999945804,1.876,942.3208407999991,,,,,54064,20,Woman,Right,
,,,,,,,,,,,,,,,,,54064,20,Woman,Right,1,76,0.15,1,0,-,0,1.1788383000020985,['y'],0.4963662000009208,1.8479999999999999,946.338302899996,,,,,54064,20,Woman,Right,
,,,,,,,,,,,,,,,,,54064,20,Woman,Right,1,35,0.4,2,180,0,0,0.3179378999993787,['y'],0.5137188000007882,1.8479999999999999,949.6376105000018,,,,,54064,20,Woman,Right,
,,,,,,,,,,,,,,,,,54064,20,Woman,Right,1,5,1,2,0,180,180,0.6753641000032076,['y'],0.6417189999992843,1.8479999999999999,953.8881593999977,,,,,54064,20,Woman,Right,
,,,,,,,,,,,,,,,,,54064,20,Woman,Right,1,51,0.15,2,180,0,0,1.0222783000062918,['y'],3.250560400003451,1.8479999999999999,960.505072699998,,,,,54064,20,Woman,Right,
,,,,,,,,,,,,,,,,,54064,20,Woman,Right,1,1,1,2,0,180,180,0.34785269999701995,['y'],0.5473738000000594,1.8479999999999999,964.3212466999976,,,,,54064,20,Woman,Right,
,,,,,,,,,,,,,,,,,54064,20,Woman,Right,1,29,0.4,2,0,180,180,0.18427160000283038,['y'],0.5313513000000967,1.8479999999999999,967.5042695000011,,,,,54064,20,Woman,Right,
,,,,,,,,,,,,,,,,,54064,20,Woman,Right,1,41,0.4,2,0,180,180,0.267800100002205,['y'],0.48361360000126297,1.8479999999999999,970.7216200999974,,,,,54064,20,Woman,Right,
,,,,,,,,,,,,,,,,,54064,20,Woman,Right,1,43,0.4,2,180,0,0,0.30009559999598423,['y'],0.6685959999958868,1.8479999999999999,973.9709732999981,,,,,54064,20,Woman,Right,
,,,,,,,,,,,,,,,,,54064,20,Woman,Right,1,72,0.15,1,0,-,0,1.6168936999965808,['y'],0.5735081000020728,1.8479999999999999,978.521931299998,,,,,54064,20,Woman,Right,
,,,,,,,,,,,,,,,,,54064,20,Woman,Right,1,47,0.15,2,180,0,180,0.8606240000008256,['y'],3.0383990999980597,1.5939999999999999,985.6043260000006,,,,,54064,20,Woman,Right,
,,,,,,,,,,,,,,,,,54064,20,Woman,Right,1,78,0.15,1,180,-,0,1.9188777999952435,['y'],4.647102999995695,1.6,996.0877884000001,,,,,54064,20,Woman,Right,
,,,,,,,,,,,,,,,,,54064,20,Woman,Right,1,58,0.15,1,180,-,180,0.6193130999963614,['y'],0.5192844999983208,1.6,999.6878600999989,,,,,54064,20,Woman,Right,
,,,,,,,,,,,,,,,,,54064,20,Woman,Right,1,48,0.15,1,0,-,0,0.974589500001457,['y'],0.7840643000017735,1.6,1003.7220720999976,,,,,54064,20,Woman,Right,
,,,,,,,,,,,,,,,,,54064,20,Woman,Right,1,49,0.15,2,0,180,180,0.4548861000002944,['y'],0.8410529999964638,1.6,1007.4876738999956,,,,,54064,20,Woman,Right,
,,,,,,,,,,,,,,,,,54064,20,Woman,Right,1,44,0.15,1,0,-,0,0.42678370000066934,['y'],1.4730714999968768,1.6,1012.221836699995,,,,,54064,20,Woman,Right,
,,,,,,,,,,,,,,,,,54064,20,Woman,Right,1,34,0.4,1,180,-,180,0.12114039999869419,['y'],0.6738161999965087,1.766,1016.7878291000015,,,,,54064,20,Woman,Right,
,,,,,,,,,,,,,,,,,54064,20,Woman,Right,1,53,0.15,2,0,180,180,0.4256223000047612,['y'],0.8257840000005672,1.7,1021.5879703999963,,,,,54064,20,Woman,Right,
,,,,,,,,,,,,,,,,,54064,20,Woman,Right,1,14,0.4,1,180,-,180,0.19978999999875668,['n'],0.7306018000017502,1.776,1025.9380055000001,,,,,54064,20,Woman,Right,
,,,,,,,,,,,,,,,,,54064,20,Woman,Right,1,10,0.4,1,180,-,180,1.714420299998892,['n'],0.6432831999991322,1.786,1031.1879283000017,,,,,54064,20,Woman,Right,
,,,,,,,,,,,,,,,,,54064,20,Woman,Right,1,75,0.15,2,180,0,180,0.779866699995182,['n'],0.6202445000017178,1.786,1035.0053082000013,,,,,54064,20,Woman,Right,
,,,,,,,,,,,,,,,,,54064,20,Woman,Right,2,49,0.15,2,0,180,0,3.1035937999986345,['y'],0.7929415000035078,1.58,1074.4713579999952,81.25,32.5,97.5,,54064,20,Woman,Right,
,,,,,,,,,,,,,,,,,54064,20,Woman,Right,2,70,0.15,1,180,-,180,0.36738340000010794,['y'],0.582771599998523,1.5819999999999999,1077.6720958000005,,,,,54064,20,Woman,Right,
,,,,,,,,,,,,,,,,,54064,20,Woman,Right,2,23,0.4,2,180,0,0,0.3071274999965681,['y'],0.45767300000443356,1.804,1082.1047958999989,,,,,54064,20,Woman,Right,
,,,,,,,,,,,,,,,,,54064,20,Woman,Right,2,34,0.4,1,180,-,0,0.3953456000017468,['y'],0.6016812000016216,1.802,1085.5715618999966,,,,,54064,20,Woman,Right,
,,,,,,,,,,,,,,,,,54064,20,Woman,Right,2,73,0.15,2,0,180,180,0.3286140000054729,['y'],0.4510454999981448,1.802,1088.8390054999982,,,,,54064,20,Woman,Right,
,,,,,,,,,,,,,,,,,54064,20,Woman,Right,2,37,0.4,2,0,180,180,0.9956328000043868,['y'],0.4114592000041739,1.802,1092.6048628999997,,,,,54064,20,Woman,Right,
,,,,,,,,,,,,,,,,,54064,20,Woman,Right,2,43,0.4,2,180,0,0,0.24496709999948507,['y'],0.4601312999948277,1.802,1095.8380720999994,,,,,54064,20,Woman,Right,
,,,,,,,,,,,,,,,,,54064,20,Woman,Right,2,0,1,1,0,-,0,0.5967142000008607,['y'],3.228053300001193,1.646,1103.571465699999,,,,,54064,20,Woman,Right,
,,,,,,,,,,,,,,,,,54064,20,Woman,Right,2,27,0.4,2,180,0,0,0.2386605000065174,['y'],0.3885991999995895,1.75,1106.9550071999984,,,,,54064,20,Woman,Right,
,,,,,,,,,,,,,,,,,54064,20,Woman,Right,2,19,0.4,2,180,0,0,0.17680880000261823,['y'],0.4048860000038985,1.768,1110.5555797999987,,,,,54064,20,Woman,Right,
,,,,,,,,,,,,,,,,,54064,20,Woman,Right,2,2,1,1,180,-,180,0.4770407999967574,['n'],0.6136475000021164,1.768,1114.121520599998,,,,,54064,20,Woman,Right,
,,,,,,,,,,,,,,,,,54064,20,Woman,Right,2,26,0.4,1,180,-,0,0.8020761000007042,['y'],1.0785757999983616,1.768,1118.3548478000012,,,,,54064,20,Woman,Right,
,,,,,,,,,,,,,,,,,54064,20,Woman,Right,2,41,0.4,2,0,180,180,0.24422860000049695,['y'],0.375036799996451,1.768,1121.4722331000012,,,,,54064,20,Woman,Right,
,,,,,,,,,,,,,,,,,54064,20,Woman,Right,2,16,0.4,1,0,-,0,0.7384355999965919,['y'],0.759535600001982,1.6360000000000001,1126.8882560999991,,,,,54064,20,Woman,Right,
,,,,,,,,,,,,,,,,,54064,20,Woman,Right,2,36,0.4,1,0,-,180,0.4352699000010034,['y'],1.66403540000465,1.6219999999999999,1131.7381565999967,,,,,54064,20,Woman,Right,
,,,,,,,,,,,,,,,,,54064,20,Woman,Right,2,55,0.15,2,180,0,0,0.6987903000044753,['y'],0.5207316000014544,1.676,1136.1883117999969,,,,,54064,20,Woman,Right,
,,,,,,,,,,,,,,,,,54064,20,Woman,Right,2,8,0.4,1,0,-,0,0.262977200000023,['n'],0.8732659999950556,1.68,1139.6722778999974,,,,,54064,20,Woman,Right,
,,,,,,,,,,,,,,,,,54064,20,Woman,Right,2,24,0.4,1,0,-,0,0.32222779999574414,['n'],0.7133793999964837,1.688,1144.7057310999953,,,,,54064,20,Woman,Right,
,,,,,,,,,,,,,,,,,54064,20,Woman,Right,2,57,0.15,2,0,180,0,0.40309150000393856,['n'],1.5703046999988146,1.714,1149.2049828999952,,,,,54064,20,Woman,Right,
,,,,,,,,,,,,,,,,,54064,20,Woman,Right,2,61,0.15,2,0,180,0,0.690561900002649,['y'],0.7709096000035061,1.716,1152.8557468,,,,,54064,20,Woman,Right,
,,,,,,,,,,,,,,,,,54064,20,Woman,Right,2,38,0.4,1,180,-,180,0.08300359999702778,['y'],0.9145721999957459,1.716,1156.1716788999984,,,,,54064,20,Woman,Right,
,,,,,,,,,,,,,,,,,54064,20,Woman,Right,2,18,0.4,1,180,-,180,1.1528486000024714,['y'],0.7870771000016248,1.71,1161.0720220000003,,,,,54064,20,Woman,Right,
,,,,,,,,,,,,,,,,,54064,20,Woman,Right,2,52,0.15,1,0,-,0,0.5267941999991308,['y'],0.4038561000052141,1.69,1164.7058311,,,,,54064,20,Woman,Right,
,,,,,,,,,,,,,,,,,54064,20,Woman,Right,2,65,0.15,2,0,180,0,1.1086441000006744,['y'],0.7487274000013713,1.69,1169.038378600002,,,,,54064,20,Woman,Right,
,,,,,,,,,,,,,,,,,54064,20,Woman,Right,2,69,0.15,2,0,180,0,0.9563336999999592,['y'],1.172548900001857,1.718,1173.8058489999967,,,,,54064,20,Woman,Right,
,,,,,,,,,,,,,,,,,54064,20,Woman,Right,2,67,0.15,2,180,0,0,0.1503900000025169,['y'],0.49388509999698726,1.718,1176.7226700999963,,,,,54064,20,Woman,Right,
,,,,,,,,,,,,,,,,,54064,20,Woman,Right,2,22,0.4,1,180,-,180,0.09724469999491703,['y'],0.5337921999962418,1.722,1179.5883751000001,,,,,54064,20,Woman,Right,
,,,,,,,,,,,,,,,,,54064,20,Woman,Right,2,33,0.4,2,0,180,180,0.8986823000013828,['y'],0.35026539999671513,1.726,1183.2551987999977,,,,,54064,20,Woman,Right,
,,,,,,,,,,,,,,,,,54064,20,Woman,Right,2,3,1,2,180,0,0,0.44322059999831254,['y'],0.47124620000249706,1.8860000000000001,1187.1064202999987,,,,,54064,20,Woman,Right,
,,,,,,,,,,,,,,,,,54064,20,Woman,Right,2,12,0.4,1,0,-,180,1.699002000001201,['y'],0.5112569999982952,1.6219999999999999,1192.0558979999987,,,,,54064,20,Woman,Right,
,,,,,,,,,,,,,,,,,54064,20,Woman,Right,2,5,1,2,0,180,180,2.5946714999954565,['y'],0.9045330000008107,1.91,1199.3718474999987,,,,,54064,20,Woman,Right,
,,,,,,,,,,,,,,,,,54064,20,Woman,Right,2,66,0.15,1,180,-,180,0.3779648000054294,['y'],0.6482414999991306,1.65,1203.0385467000015,,,,,54064,20,Woman,Right,
,,,,,,,,,,,,,,,,,54064,20,Woman,Right,2,62,0.15,1,180,-,0,2.479842100001406,['y'],0.6653390999999829,1.6560000000000001,1208.5225380999982,,,,,54064,20,Woman,Right,
,,,,,,,,,,,,,,,,,54064,20,Woman,Right,2,54,0.15,1,180,-,180,0.33506279999710387,['y'],0.37738309999986086,1.6600000000000001,1211.6726440999992,,,,,54064,20,Woman,Right,
,,,,,,,,,,,,,,,,,54064,20,Woman,Right,2,21,0.4,2,0,180,180,0.35881480000534793,['y'],0.3538918999984162,1.662,1214.7388538000014,,,,,54064,20,Woman,Right,
,,,,,,,,,,,,,,,,,54064,20,Woman,Right,2,15,0.4,2,180,0,0,0.5499612999992678,['y'],0.32231400000455324,1.788,1219.1558417999986,,,,,54064,20,Woman,Right,
,,,,,,,,,,,,,,,,,54064,20,Woman,Right,2,46,0.15,1,180,-,0,0.8246177000037278,['y'],0.4198458999962895,1.596,1223.4727695999973,,,,,54064,20,Woman,Right,
,,,,,,,,,,,,,,,,,54064,20,Woman,Right,2,25,0.4,2,0,180,180,0.8328719999990426,['y'],2.6280191999976523,1.79,1230.006085699999,,,,,54064,20,Woman,Right,
,,,,,,,,,,,,,,,,,54064,20,Woman,Right,2,68,0.15,1,0,-,0,0.8503613000066252,['n'],0.8064446999997017,1.786,1234.155780000001,,,,,54064,20,Woman,Right,
,,,,,,,,,,,,,,,,,54064,20,Woman,Right,2,72,0.15,1,0,-,180,0.706837199999427,['y'],0.5087507999996888,1.782,1238.188882399998,,,,,54064,20,Woman,Right,
,,,,,,,,,,,,,,,,,54064,20,Woman,Right,2,47,0.15,2,180,0,0,0.47826289999648,['y'],0.4697857999999542,1.782,1241.4560855000018,,,,,54064,20,Woman,Right,
,,,,,,,,,,,,,,,,,54064,20,Woman,Right,2,6,1,1,180,-,180,0.38104310000198893,['n'],0.4781600999995135,1.782,1244.572616999998,,,,,54064,20,Woman,Right,
,,,,,,,,,,,,,,,,,54064,20,Woman,Right,2,10,0.4,1,180,-,180,0.3601109000010183,['n'],1.2467211000039242,1.782,1248.7387086999952,,,,,54064,20,Woman,Right,
,,,,,,,,,,,,,,,,,54064,20,Woman,Right,2,51,0.15,2,180,0,0,0.2903212000019266,['y'],0.4874991000033333,1.782,1251.7720894000013,,,,,54064,20,Woman,Right,
,,,,,,,,,,,,,,,,,54064,20,Woman,Right,2,17,0.4,2,0,180,180,0.4643687999996473,['y'],0.5675015000015264,1.83,1255.6553986,,,,,54064,20,Woman,Right,
,,,,,,,,,,,,,,,,,54064,20,Woman,Right,2,64,0.15,1,0,-,180,0.6669048000039766,['n'],0.719449899996107,1.738,1259.8563240000003,,,,,54064,20,Woman,Right,
,,,,,,,,,,,,,,,,,54064,20,Woman,Right,2,60,0.15,1,0,-,0,0.8064443999974173,['n'],0.3681173000004492,1.738,1263.3222491999986,,,,,54064,20,Woman,Right,
,,,,,,,,,,,,,,,,,54064,20,Woman,Right,2,56,0.15,1,0,-,180,0.21673890000238316,['n'],0.5671135000011418,1.738,1266.4057725999955,,,,,54064,20,Woman,Right,
,,,,,,,,,,,,,,,,,54064,20,Woman,Right,2,75,0.15,2,180,0,0,0.42899889999534935,['y'],0.3849647999959416,1.754,1269.9225450000013,,,,,54064,20,Woman,Right,
,,,,,,,,,,,,,,,,,54064,20,Woman,Right,2,29,0.4,2,0,180,180,0.2627809000041452,['n'],0.2654834999993909,1.506,1274.1888296999969,,,,,54064,20,Woman,Right,
,,,,,,,,,,,,,,,,,54064,20,Woman,Right,2,79,0.15,2,180,0,180,0.35161380000499776,['y'],0.41798730000300566,1.682,1278.2387792000009,,,,,54064,20,Woman,Right,
,,,,,,,,,,,,,,,,,54064,20,Woman,Right,2,76,0.15,1,0,-,180,0.4753439999985858,['y'],1.2508126999964588,1.706,1282.6388649,,,,,54064,20,Woman,Right,
,,,,,,,,,,,,,,,,,54064,20,Woman,Right,2,39,0.4,2,180,0,0,0.630075000000943,['y'],0.5232594000044628,1.706,1286.4055834999963,,,,,54064,20,Woman,Right,
,,,,,,,,,,,,,,,,,54064,20,Woman,Right,2,78,0.15,1,180,-,180,0.45593689999805065,['n'],0.6038340000013704,1.704,1289.7888835999984,,,,,54064,20,Woman,Right,
,,,,,,,,,,,,,,,,,54064,20,Woman,Right,2,32,0.4,1,0,-,180,0.264338900000439,['y'],0.6758935999969253,1.724,1292.9722552999956,,,,,54064,20,Woman,Right,
,,,,,,,,,,,,,,,,,54064,20,Woman,Right,2,59,0.15,2,180,0,0,0.29529660000116564,['y'],0.9565762999991421,1.724,1296.5389770999973,,,,,54064,20,Woman,Right,
,,,,,,,,,,,,,,,,,54064,20,Woman,Right,2,45,0.15,2,0,180,180,0.2823419999986072,['y'],1.1167686999979196,1.746,1300.322301799999,,,,,54064,20,Woman,Right,
,,,,,,,,,,,,,,,,,54064,20,Woman,Right,2,77,0.15,2,0,180,180,1.6336480999962077,['y'],0.8455188000007183,1.746,1305.2392682999998,,,,,54064,20,Woman,Right,
,,,,,,,,,,,,,,,,,54064,20,Woman,Right,2,20,0.4,1,0,-,0,0.4868519000010565,['n'],1.1179940000001807,1.746,1309.322414000002,,,,,54064,20,Woman,Right,
,,,,,,,,,,,,,,,,,54064,20,Woman,Right,2,71,0.15,2,180,0,0,1.4418862000020454,['y'],1.8390486999996938,1.714,1315.5389538999952,,,,,54064,20,Woman,Right,
,,,,,,,,,,,,,,,,,54064,20,Woman,Right,2,4,1,1,0,-,0,0.9503901999996742,['n'],1.8091215999957058,1.716,1321.4556383999952,,,,,54064,20,Woman,Right,
,,,,,,,,,,,,,,,,,54064,20,Woman,Right,2,50,0.15,1,180,-,180,1.338126899994677,['n'],0.6961479000019608,1.722,1325.9223155,,,,,54064,20,Woman,Right,
,,,,,,,,,,,,,,,,,54064,20,Woman,Right,2,48,0.15,1,0,-,0,0.4876801999998861,['y'],0.896427899999253,1.722,1330.0889880999966,,,,,54064,20,Woman,Right,
,,,,,,,,,,,,,,,,,54064,20,Woman,Right,2,35,0.4,2,180,0,0,0.5548428000038257,['y'],0.5369769000026281,1.922,1334.6390356999982,,,,,54064,20,Woman,Right,
,,,,,,,,,,,,,,,,,54064,20,Woman,Right,2,1,1,2,0,180,180,0.4809176999988267,['y'],0.6654696999976295,1.918,1338.3233360000013,,,,,54064,20,Woman,Right,
,,,,,,,,,,,,,,,,,54064,20,Woman,Right,2,13,0.4,2,0,180,180,0.30609479999839095,['y'],0.786040500002855,1.8479999999999999,1341.889445599998,,,,,54064,20,Woman,Right,
,,,,,,,,,,,,,,,,,54064,20,Woman,Right,2,28,0.4,1,0,-,0,0.3776192000004812,['n'],0.7386309000066831,1.85,1345.422557400001,,,,,54064,20,Woman,Right,
,,,,,,,,,,,,,,,,,54064,20,Woman,Right,2,40,0.4,1,0,-,0,1.3629300000029616,['n'],0.8753072999970755,1.914,1349.9724401999993,,,,,54064,20,Woman,Right,
,,,,,,,,,,,,,,,,,54064,20,Woman,Right,2,63,0.15,2,180,0,0,1.3410856999980751,['y'],0.7797805000009248,1.738,1357.4058652999956,,,,,54064,20,Woman,Right,
,,,,,,,,,,,,,,,,,54064,20,Woman,Right,2,9,0.4,2,0,180,180,0.5448477999962051,['y'],0.7079999999987194,1.82,1361.439970200001,,,,,54064,20,Woman,Right,
,,,,,,,,,,,,,,,,,54064,20,Woman,Right,2,30,0.4,1,180,-,180,1.2387471999973059,['n'],2.124529699998675,1.756,1367.3567570000014,,,,,54064,20,Woman,Right,
,,,,,,,,,,,,,,,,,54064,20,Woman,Right,2,58,0.15,1,180,-,0,1.0175253999987035,['n'],1.2941536999933305,1.756,1372.5230544000005,,,,,54064,20,Woman,Right,
,,,,,,,,,,,,,,,,,54064,20,Woman,Right,2,31,0.4,2,180,0,0,0.34485969999514055,['y'],0.45438089999515796,1.8479999999999999,1376.405811699995,,,,,54064,20,Woman,Right,
,,,,,,,,,,,,,,,,,54064,20,Woman,Right,2,53,0.15,2,0,180,180,0.8501048999969498,['n'],0.7049165999997058,1.854,1380.3068639999983,,,,,54064,20,Woman,Right,
,,,,,,,,,,,,,,,,,54064,20,Woman,Right,2,44,0.15,1,0,-,180,0.3845934999990277,['n'],1.5991517000002204,1.828,1384.6891715999955,,,,,54064,20,Woman,Right,
,,,,,,,,,,,,,,,,,54064,20,Woman,Right,2,7,1,2,180,0,0,0.3224337999999989,['y'],0.8237950000038836,1.928,1389.1561569999976,,,,,54064,20,Woman,Right,
,,,,,,,,,,,,,,,,,54064,20,Woman,Right,2,14,0.4,1,180,-,180,0.6572095999945304,['y'],1.5524027999999817,1.624,1394.5566092000008,,,,,54064,20,Woman,Right,
,,,,,,,,,,,,,,,,,54064,20,Woman,Right,2,74,0.15,1,180,-,180,3.297399300005054,['n'],1.1847535999986576,1.6400000000000001,1401.9892776999986,,,,,54064,20,Woman,Right,
,,,,,,,,,,,,,,,,,54064,20,Woman,Right,2,11,0.4,2,180,0,0,0.31153289999929257,['y'],0.39392039999802364,1.8599999999999999,1405.939183800001,,,,,54064,20,Woman,Right,
,,,,,,,,,,,,,,,,,54064,20,Woman,Right,2,42,0.4,1,180,-,180,0.38665000000037253,['n'],0.746485900002881,1.794,1409.6565736999983,,,,,54064,20,Woman,Right,
,,,,,,,,,,,,,,,,,54064,20,Woman,Right,3,77,0.15,2,0,180,180,1.0436306999981753,['y'],1.3352535000012722,1.75,1449.8394193999993,76.25,50.0,92.5,,54064,20,Woman,Right,
,,,,,,,,,,,,,,,,,54064,20,Woman,Right,3,5,1,2,0,180,180,0.3285900999981095,['y'],0.42342980000103125,1.938,1453.073542099999,,,,,54064,20,Woman,Right,
,,,,,,,,,,,,,,,,,54064,20,Woman,Right,3,13,0.4,2,0,180,180,0.4026763000001665,['y'],0.4395379999987199,1.806,1456.5068527999974,,,,,54064,20,Woman,Right,
,,,,,,,,,,,,,,,,,54064,20,Woman,Right,3,32,0.4,1,0,-,0,0.5254691000009188,['n'],0.4252284999965923,1.79,1459.590151999997,,,,,54064,20,Woman,Right,
,,,,,,,,,,,,,,,,,54064,20,Woman,Right,3,74,0.15,1,180,-,180,0.4455318999971496,['y'],0.40108129999862285,1.79,1462.7237548999983,,,,,54064,20,Woman,Right,
,,,,,,,,,,,,,,,,,54064,20,Woman,Right,3,38,0.4,1,180,-,180,0.6563373000026331,['y'],0.6661575000034645,1.79,1466.3235639999984,,,,,54064,20,Woman,Right,
,,,,,,,,,,,,,,,,,54064,20,Woman,Right,3,21,0.4,2,0,180,180,0.4245586000033654,['y'],0.32223309999972116,1.79,1469.306138,,,,,54064,20,Woman,Right,
,,,,,,,,,,,,,,,,,54064,20,Woman,Right,3,52,0.15,1,0,-,0,0.38568629999645054,['n'],0.4670022999998764,1.79,1472.423592799998,,,,,54064,20,Woman,Right,
,,,,,,,,,,,,,,,,,54064,20,Woman,Right,3,72,0.15,1,0,-,0,0.4225464999981341,['y'],0.8662211999981082,1.776,1475.9236249999958,,,,,54064,20,Woman,Right,
,,,,,,,,,,,,,,,,,54064,20,Woman,Right,3,50,0.15,1,180,-,180,0.2567390999975032,['n'],0.3146573000049102,1.776,1478.7078669999973,,,,,54064,20,Woman,Right,
,,,,,,,,,,,,,,,,,54064,20,Woman,Right,3,25,0.4,2,0,180,180,0.7070440000024973,['y'],0.6754299999956856,1.776,1482.5895623999968,,,,,54064,20,Woman,Right,
,,,,,,,,,,,,,,,,,54064,20,Woman,Right,3,30,0.4,1,180,-,180,0.2552179999984219,['n'],0.34751800000231015,1.77,1485.4396027999974,,,,,54064,20,Woman,Right,
,,,,,,,,,,,,,,,,,54064,20,Woman,Right,3,57,0.15,2,0,180,0,0.16791139999986626,['n'],0.603891200000362,1.74,1488.2895143999995,,,,,54064,20,Woman,Right,
,,,,,,,,,,,,,,,,,54064,20,Woman,Right,3,7,1,2,180,0,0,0.3300509999971837,['y'],0.3570317999983672,1.74,1491.2235803000003,,,,,54064,20,Woman,Right,
,,,,,,,,,,,,,,,,,54064,20,Woman,Right,3,12,0.4,1,0,-,0,0.3736187999966205,['n'],0.35717099999601487,1.74,1494.1068736000016,,,,,54064,20,Woman,Right,
,,,,,,,,,,,,,,,,,54064,20,Woman,Right,3,41,0.4,2,0,180,180,0.36817010000231676,['y'],0.4452318000039668,1.74,1497.1237471999993,,,,,54064,20,Woman,Right,
,,,,,,,,,,,,,,,,,54064,20,Woman,Right,3,64,0.15,1,0,-,0,0.36025230000086594,['y'],0.3503601999982493,1.74,1500.0062737999979,,,,,54064,20,Woman,Right,
,,,,,,,,,,,,,,,,,54064,20,Woman,Right,3,18,0.4,1,180,-,180,0.4668958999973256,['n'],0.257550700000138,1.74,1502.7896299999993,,,,,54064,20,Woman,Right,
,,,,,,,,,,,,,,,,,54064,20,Woman,Right,3,20,0.4,1,0,-,0,0.3085724000047776,['n'],0.31028279999736696,1.74,1505.6235944,,,,,54064,20,Woman,Right,
,,,,,,,,,,,,,,,,,54064,20,Woman,Right,3,66,0.15,1,180,-,180,1.6280922000005376,['n'],0.39070190000347793,1.74,1510.1235892999975,,,,,54064,20,Woman,Right,
,,,,,,,,,,,,,,,,,54064,20,Woman,Right,3,59,0.15,2,180,0,0,0.5355658000044059,['n'],1.1601112999996985,1.74,1515.740647599996,,,,,54064,20,Woman,Right,
,,,,,,,,,,,,,,,,,54064,20,Woman,Right,3,61,0.15,2,0,180,0,1.0330468000029214,['n'],1.0797661999968113,1.74,1520.1071595999965,,,,,54064,20,Woman,Right,
,,,,,,,,,,,,,,,,,54064,20,Woman,Right,3,24,0.4,1,0,-,180,3.4562575000018114,['y'],1.024996000000101,1.722,1527.8396914999976,,,,,54064,20,Woman,Right,
,,,,,,,,,,,,,,,,,54064,20,Woman,Right,3,76,0.15,1,0,-,0,1.3670099999944796,['y'],0.5144251000019722,1.72,1532.4233439000018,,,,,54064,20,Woman,Right,
,,,,,,,,,,,,,,,,,54064,20,Woman,Right,3,49,0.15,2,0,180,180,0.41366939999716124,['y'],0.3537136000013561,1.714,1536.573412400001,,,,,54064,20,Woman,Right,
,,,,,,,,,,,,,,,,,54064,20,Woman,Right,3,36,0.4,1,0,-,180,0.3759199999985867,['n'],0.3946077000000514,1.716,1539.9064156999957,,,,,54064,20,Woman,Right,
,,,,,,,,,,,,,,,,,54064,20,Woman,Right,3,2,1,1,180,-,180,0.3947706000035396,['n'],0.8108938000004855,1.938,1544.506428599998,,,,,54064,20,Woman,Right,
,,,,,,,,,,,,,,,,,54064,20,Woman,Right,3,56,0.15,1,0,-,0,0.8113789000053657,['y'],0.40356019999308046,1.838,1548.6237354999976,,,,,54064,20,Woman,Right,
,,,,,,,,,,,,,,,,,54064,20,Woman,Right,3,8,0.4,1,0,-,0,0.5149918999959482,['y'],0.8280654000045615,1.722,1552.5897771999953,,,,,54064,20,Woman,Right,
,,,,,,,,,,,,,,,,,54064,20,Woman,Right,3,40,0.4,1,0,-,0,0.9211467000059201,['n'],0.8288973000016995,1.962,1557.0897895000016,,,,,54064,20,Woman,Right,
,,,,,,,,,,,,,,,,,54064,20,Woman,Right,3,39,0.4,2,180,0,0,0.46773489999759477,['y'],0.34094480000203475,1.94,1560.7071958000015,,,,,54064,20,Woman,Right,
,,,,,,,,,,,,,,,,,54064,20,Woman,Right,3,1,1,2,0,180,180,0.6051704999990761,['y'],0.4456369999970775,1.94,1564.4240360999975,,,,,54064,20,Woman,Right,
,,,,,,,,,,,,,,,,,54064,20,Woman,Right,3,10,0.4,1,180,-,0,0.7311839999965741,['y'],0.6062729999976,1.764,1568.9742062000005,,,,,54064,20,Woman,Right,
,,,,,,,,,,,,,,,,,54064,20,Woman,Right,3,53,0.15,2,0,180,180,0.38627589999669,['y'],0.838293300002988,1.78,1572.957341100002,,,,,54064,20,Woman,Right,
,,,,,,,,,,,,,,,,,54064,20,Woman,Right,3,55,0.15,2,180,0,180,0.887762999998813,['y'],0.831036800002039,1.692,1577.9911113999988,,,,,54064,20,Woman,Right,
,,,,,,,,,,,,,,,,,54064,20,Woman,Right,3,75,0.15,2,180,0,0,0.3598015000025043,['y'],0.3997626999989734,1.682,1581.0909428000014,,,,,54064,20,Woman,Right,
,,,,,,,,,,,,,,,,,54064,20,Woman,Right,3,16,0.4,1,0,-,180,0.6451285000002827,['y'],0.31239349999668775,1.682,1584.1907842,,,,,54064,20,Woman,Right,
,,,,,,,,,,,,,,,,,54064,20,Woman,Right,3,22,0.4,1,180,-,180,0.4411940999998478,['n'],0.5608056999990367,1.682,1587.640443999997,,,,,54064,20,Woman,Right,
,,,,,,,,,,,,,,,,,54064,20,Woman,Right,3,68,0.15,1,0,-,0,0.3782891999944695,['n'],0.6329591999965487,1.694,1592.7733188999991,,,,,54064,20,Woman,Right,
,,,,,,,,,,,,,,,,,54064,20,Woman,Right,3,6,1,1,180,-,180,0.017198699999426026,['n'],3.002856299994164,1.91,1598.790036899998,,,,,54064,20,Woman,Right,
,,,,,,,,,,,,,,,,,54064,20,Woman,Right,3,63,0.15,2,180,0,0,0.7203986000022269,['y'],1.5227859000005992,1.6480000000000001,1603.740217599996,,,,,54064,20,Woman,Right,
,,,,,,,,,,,,,,,,,54064,20,Woman,Right,3,31,0.4,2,180,0,0,0.2484924999953364,['y'],0.5385435999996844,1.732,1607.323842699996,,,,,54064,20,Woman,Right,
,,,,,,,,,,,,,,,,,54064,20,Woman,Right,3,26,0.4,1,180,-,180,0.27949079999962123,['n'],0.4919210000007297,1.794,1611.3077572999973,,,,,54064,20,Woman,Right,
,,,,,,,,,,,,,,,,,54064,20,Woman,Right,3,34,0.4,1,180,-,180,0.2617499000043608,['n'],0.499538100004429,1.772,1614.4241187000007,,,,,54064,20,Woman,Right,
,,,,,,,,,,,,,,,,,54064,20,Woman,Right,3,70,0.15,1,180,-,180,0.49794349999865517,['n'],1.4048465000014403,1.772,1619.0903363999969,,,,,54064,20,Woman,Right,
,,,,,,,,,,,,,,,,,54064,20,Woman,Right,3,11,0.4,2,180,0,0,0.3332707999943523,['y'],1.498922800004948,1.772,1623.2074722999969,,,,,54064,20,Woman,Right,
,,,,,,,,,,,,,,,,,54064,20,Woman,Right,3,28,0.4,1,0,-,0,0.4925433000025805,['y'],1.037719300002209,1.726,1627.5567908000012,,,,,54064,20,Woman,Right,
,,,,,,,,,,,,,,,,,54064,20,Woman,Right,3,47,0.15,2,180,0,0,0.7708536999998614,['y'],0.5338234000009834,1.738,1631.0068014999997,,,,,54064,20,Woman,Right,
,,,,,,,,,,,,,,,,,54064,20,Woman,Right,3,9,0.4,2,0,180,180,0.4382188000017777,['y'],0.37365970000246307,1.728,1634.1073811999959,,,,,54064,20,Woman,Right,
,,,,,,,,,,,,,,,,,54064,20,Woman,Right,3,23,0.4,2,180,0,0,0.4853967000017292,['y'],0.39124570000421954,1.728,1637.4900962999964,,,,,54064,20,Woman,Right,
,,,,,,,,,,,,,,,,,54064,20,Woman,Right,3,46,0.15,1,180,-,180,0.7053458000009414,['n'],1.224065900001733,1.728,1642.0743211000008,,,,,54064,20,Woman,Right,
,,,,,,,,,,,,,,,,,54064,20,Woman,Right,3,14,0.4,1,180,-,0,0.3076431000008597,['y'],0.37548290000268025,1.748,1646.5067180999977,,,,,54064,20,Woman,Right,
,,,,,,,,,,,,,,,,,54064,20,Woman,Right,3,3,1,2,180,0,0,0.3566800999979023,['y'],0.6881600000051549,1.892,1649.9067823000005,,,,,54064,20,Woman,Right,
,,,,,,,,,,,,,,,,,54064,20,Woman,Right,3,29,0.4,2,0,180,180,0.3426798000000417,['y'],0.6251212999995914,1.892,1653.090365899996,,,,,54064,20,Woman,Right,
,,,,,,,,,,,,,,,,,54064,20,Woman,Right,3,62,0.15,1,180,-,180,0.4545171999998274,['n'],0.9773819999973057,1.676,1657.1736139999994,,,,,54064,20,Woman,Right,
,,,,,,,,,,,,,,,,,54064,20,Woman,Right,3,65,0.15,2,0,180,180,0.32299849999981234,['y'],1.7931752000004053,1.826,1662.506791300002,,,,,54064,20,Woman,Right,
,,,,,,,,,,,,,,,,,54064,20,Woman,Right,3,33,0.4,2,0,180,180,0.22832150000613183,['y'],1.1944361999994726,1.82,1666.9909305999972,,,,,54064,20,Woman,Right,
,,,,,,,,,,,,,,,,,54064,20,Woman,Right,3,17,0.4,2,0,180,180,0.25637060000008205,['y'],0.6269532000005711,1.818,1670.6901809999981,,,,,54064,20,Woman,Right,
,,,,,,,,,,,,,,,,,54064,20,Woman,Right,3,79,0.15,2,180,0,0,0.47330869999859715,['y'],4.123967799998354,1.768,1677.673692999997,,,,,54064,20,Woman,Right,
,,,,,,,,,,,,,,,,,54064,20,Woman,Right,3,51,0.15,2,180,0,0,0.5173580999980913,['n'],0.635749199995189,1.658,1681.7570546999996,,,,,54064,20,Woman,Right,
,,,,,,,,,,,,,,,,,54064,20,Woman,Right,3,69,0.15,2,0,180,180,0.3126905999961309,['n'],1.3890208000011626,1.658,1685.7902998999998,,,,,54064,20,Woman,Right,
,,,,,,,,,,,,,,,,,54064,20,Woman,Right,3,37,0.4,2,0,180,180,0.30658129999937955,['y'],0.6050862999982201,1.764,1689.5912899999967,,,,,54064,20,Woman,Right,
,,,,,,,,,,,,,,,,,54064,20,Woman,Right,3,19,0.4,2,180,0,0,0.20938159999786876,['y'],0.42982240000128513,1.764,1692.4403108999977,,,,,54064,20,Woman,Right,
,,,,,,,,,,,,,,,,,54064,20,Woman,Right,3,60,0.15,1,0,-,0,0.5259968000027584,['n'],0.774872800000594,1.708,1696.5742249999967,,,,,54064,20,Woman,Right,
,,,,,,,,,,,,,,,,,54064,20,Woman,Right,3,58,0.15,1,180,-,180,0.2082654000041657,['n'],0.9179728999952204,1.776,1700.441025,,,,,54064,20,Woman,Right,
,,,,,,,,,,,,,,,,,54064,20,Woman,Right,3,67,0.15,2,180,0,0,0.7340470999988611,['y'],0.438887700001942,1.778,1703.8574978999968,,,,,54064,20,Woman,Right,
,,,,,,,,,,,,,,,,,54064,20,Woman,Right,3,4,1,1,0,-,0,0.32631490000494523,['n'],0.6074425999977393,1.92,1707.5243283000018,,,,,54064,20,Woman,Right,
,,,,,,,,,,,,,,,,,54064,20,Woman,Right,3,44,0.15,1,0,-,180,0.22840269999869633,['n'],1.047702500000014,1.922,1711.1915440000012,,,,,54064,20,Woman,Right,
,,,,,,,,,,,,,,,,,54064,20,Woman,Right,3,0,1,1,0,-,0,0.7991240000046673,['n'],0.5125889999981155,1.92,1714.8744852999953,,,,,54064,20,Woman,Right,
,,,,,,,,,,,,,,,,,54064,20,Woman,Right,3,35,0.4,2,180,0,0,0.46619030000147177,['y'],0.6412643999938155,1.918,1718.2736951999977,,,,,54064,20,Woman,Right,
,,,,,,,,,,,,,,,,,54064,20,Woman,Right,3,54,0.15,1,180,-,0,0.48862479999661446,['y'],0.6974220000047353,1.736,1722.2080636999963,,,,,54064,20,Woman,Right,
,,,,,,,,,,,,,,,,,54064,20,Woman,Right,3,78,0.15,1,180,-,180,0.36605499999859603,['n'],0.46604240000306163,1.738,1725.3911904999986,,,,,54064,20,Woman,Right,
,,,,,,,,,,,,,,,,,54064,20,Woman,Right,3,45,0.15,2,0,180,180,0.1430015000005369,['n'],0.897721500004991,1.736,1728.724521199998,,,,,54064,20,Woman,Right,
,,,,,,,,,,,,,,,,,54064,20,Woman,Right,3,42,0.4,1,180,-,180,0.13598559999809368,['n'],0.5627070999980788,1.732,1731.708009599999,,,,,54064,20,Woman,Right,
,,,,,,,,,,,,,,,,,54064,20,Woman,Right,3,27,0.4,2,180,0,0,1.2356329999965965,['y'],2.035586300000432,1.728,1739.8907545999973,,,,,54064,20,Woman,Right,
,,,,,,,,,,,,,,,,,54064,20,Woman,Right,3,15,0.4,2,180,0,0,0.4205398999984027,['y'],0.3635625000024447,1.716,1742.908051499995,,,,,54064,20,Woman,Right,
,,,,,,,,,,,,,,,,,54064,20,Woman,Right,3,71,0.15,2,180,0,0,0.5998123999961535,['y'],0.7011757000000216,1.72,1746.4249630999984,,,,,54064,20,Woman,Right,
,,,,,,,,,,,,,,,,,54064,20,Woman,Right,3,73,0.15,2,0,180,180,0.37342960000387393,['y'],0.38062940000236267,1.724,1749.5910185999965,,,,,54064,20,Woman,Right,
,,,,,,,,,,,,,,,,,54064,20,Woman,Right,3,48,0.15,1,0,-,0,0.48722739999357145,['n'],0.5730547000057413,1.728,1753.007280699996,,,,,54064,20,Woman,Right,
,,,,,,,,,,,,,,,,,54064,20,Woman,Right,3,43,0.4,2,180,0,0,0.46397560000332305,['y'],0.30173049999575596,1.73,1755.8749353999956,,,,,54064,20,Woman,Right,
,,,,,,,,,,,,,,,,,54064,20,Woman,Right,4,52,0.15,1,0,-,180,1.4659835999991628,['y'],0.43104809999931604,1.742,1763.6746017999976,87.5,67.5,85.0,,54064,20,Woman,Right,
,,,,,,,,,,,,,,,,,54064,20,Woman,Right,4,18,0.4,1,180,-,180,0.01718560000153957,['n'],0.5613357999973232,1.736,1766.407815999999,,,,,54064,20,Woman,Right,
,,,,,,,,,,,,,,,,,54064,20,Woman,Right,4,23,0.4,2,180,0,0,0.2627254000035464,['y'],0.6236887999984901,1.736,1769.5239183000012,,,,,54064,20,Woman,Right,
,,,,,,,,,,,,,,,,,54064,20,Woman,Right,4,54,0.15,1,180,-,0,0.14552140000159852,['y'],0.3434479999996256,1.736,1772.1913916999983,,,,,54064,20,Woman,Right,
,,,,,,,,,,,,,,,,,54064,20,Woman,Right,4,68,0.15,1,0,-,0,0.3361038000002736,['n'],0.3998403000005055,1.736,1775.007349499996,,,,,54064,20,Woman,Right,
,,,,,,,,,,,,,,,,,54064,20,Woman,Right,4,37,0.4,2,0,180,180,0.4238372000036179,['y'],0.9050161000050139,1.736,1779.0409943999985,,,,,54064,20,Woman,Right,
,,,,,,,,,,,,,,,,,54064,20,Woman,Right,4,33,0.4,2,0,180,180,0.7299969999949099,['y'],0.4649109000019962,1.736,1782.641367199998,,,,,54064,20,Woman,Right,
,,,,,,,,,,,,,,,,,54064,20,Woman,Right,4,16,0.4,1,0,-,0,0.28593589999945834,['n'],0.40124000000650994,1.736,1785.5077947999962,,,,,54064,20,Woman,Right,
,,,,,,,,,,,,,,,,,54064,20,Woman,Right,4,20,0.4,1,0,-,0,0.24219219999940833,['n'],0.7451157999967108,1.69,1788.7414502999964,,,,,54064,20,Woman,Right,
,,,,,,,,,,,,,,,,,54064,20,Woman,Right,4,69,0.15,2,0,180,180,0.49771139999938896,['y'],0.3617357999974047,1.7,1791.774752899997,,,,,54064,20,Woman,Right,
,,,,,,,,,,,,,,,,,54064,20,Woman,Right,4,60,0.15,1,0,-,0,0.1583528999981354,['n'],0.5544919000021764,1.662,1794.6747896000015,,,,,54064,20,Woman,Right,
,,,,,,,,,,,,,,,,,54064,20,Woman,Right,4,13,0.4,2,0,180,180,0.3337307999972836,['y'],0.39457649999530986,1.77,1797.8908916,,,,,54064,20,Woman,Right,
,,,,,,,,,,,,,,,,,54064,20,Woman,Right,4,70,0.15,1,180,-,180,0.4545655000038096,['y'],0.6276300999961677,1.6480000000000001,1801.2578208999985,,,,,54064,20,Woman,Right,
,,,,,,,,,,,,,,,,,54064,20,Woman,Right,4,14,0.4,1,180,-,180,0.47932399999990594,['y'],0.49188329999742564,1.672,1805.3246606999965,,,,,54064,20,Woman,Right,
,,,,,,,,,,,,,,,,,54064,20,Woman,Right,4,65,0.15,2,0,180,180,0.20666860000346787,['y'],0.3553488000034122,1.658,1808.3575417999964,,,,,54064,20,Woman,Right,
,,,,,,,,,,,,,,,,,54064,20,Woman,Right,4,50,0.15,1,180,-,0,0.25532989999919664,['y'],0.6927165999950375,1.658,1811.6748652999959,,,,,54064,20,Woman,Right,
,,,,,,,,,,,,,,,,,54064,20,Woman,Right,4,32,0.4,1,0,-,0,0.2377721000011661,['n'],0.5329302000027383,1.658,1814.7919792999965,,,,,54064,20,Woman,Right,
,,,,,,,,,,,,,,,,,54064,20,Woman,Right,4,9,0.4,2,0,180,180,0.2647062999967602,['y'],0.34918820000166306,1.8719999999999999,1818.557541000002,,,,,54064,20,Woman,Right,
,,,,,,,,,,,,,,,,,54064,20,Woman,Right,4,28,0.4,1,0,-,0,0.5263029999987339,['n'],1.2300340999936452,1.818,1822.6077267,,,,,54064,20,Woman,Right,
,,,,,,,,,,,,,,,,,54064,20,Woman,Right,4,25,0.4,2,0,180,180,0.48846510000294074,['y'],0.49443349999637576,1.752,1825.924909399997,,,,,54064,20,Woman,Right,
,,,,,,,,,,,,,,,,,54064,20,Woman,Right,4,72,0.15,1,0,-,0,0.4817364999980782,['n'],0.9751548999993247,1.752,1830.0914944999968,,,,,54064,20,Woman,Right,
,,,,,,,,,,,,,,,,,54064,20,Woman,Right,4,63,0.15,2,180,0,0,2.1002873000034015,['y'],1.3523485000041546,1.752,1836.0916528000016,,,,,54064,20,Woman,Right,
,,,,,,,,,,,,,,,,,54064,20,Woman,Right,4,51,0.15,2,180,0,0,0.2690550999977859,['n'],1.8319466000029934,1.612,1843.8249052999963,,,,,54064,20,Woman,Right,
,,,,,,,,,,,,,,,,,54064,20,Woman,Right,4,36,0.4,1,0,-,0,0.46433979999710573,['n'],0.39314720000402303,1.654,1846.8075341000003,,,,,54064,20,Woman,Right,
,,,,,,,,,,,,,,,,,54064,20,Woman,Right,4,34,0.4,1,180,-,180,0.0850633999943966,['n'],0.42543319999822415,1.654,1846.8075341000003,,,,,54064,20,Woman,Right,
,,,,,,,,,,,,,,,,,54064,20,Woman,Right,4,79,0.15,2,180,0,0,0.4342449999967357,['n'],0.6578736000010394,1.81,1853.0908605000004,,,,,54064,20,Woman,Right,
,,,,,,,,,,,,,,,,,54064,20,Woman,Right,4,7,1,2,180,0,0,0.628430800003116,['y'],0.346570800000336,1.81,1856.3743442999985,,,,,54064,20,Woman,Right,
,,,,,,,,,,,,,,,,,54064,20,Woman,Right,4,3,1,2,180,0,0,0.28002510000078473,['y'],0.33080340000014985,1.81,1859.1585378999953,,,,,54064,20,Woman,Right,
,,,,,,,,,,,,,,,,,54064,20,Woman,Right,4,0,1,1,0,-,0,0.3167353000026196,['n'],0.32389839999814285,1.81,1862.1083395999958,,,,,54064,20,Woman,Right,
,,,,,,,,,,,,,,,,,54064,20,Woman,Right,4,41,0.4,2,0,180,0,0.12799100000120234,['n'],0.3316728999998304,1.81,1864.8077954999972,,,,,54064,20,Woman,Right,
,,,,,,,,,,,,,,,,,54064,20,Woman,Right,4,75,0.15,2,180,0,180,1.9067374000005657,['y'],1.7399167999974452,1.81,1870.908611699997,,,,,54064,20,Woman,Right,
,,,,,,,,,,,,,,,,,54064,20,Woman,Right,4,40,0.4,1,0,-,0,0.04232170000614133,['n'],0.6836754999967525,1.832,1874.975148999998,,,,,54064,20,Woman,Right,
,,,,,,,,,,,,,,,,,54064,20,Woman,Right,4,5,1,2,0,180,180,0.4634256999997888,['y'],0.35697329999675276,1.832,1877.9747763999985,,,,,54064,20,Woman,Right,
,,,,,,,,,,,,,,,,,54064,20,Woman,Right,4,10,0.4,1,180,-,180,0.4717787000045064,['n'],2.0217766999994637,1.832,1883.2084424999994,,,,,54064,20,Woman,Right,
,,,,,,,,,,,,,,,,,54064,20,Woman,Right,4,21,0.4,2,0,180,180,0.5857001999975182,['n'],1.9902073999983259,1.738,1890.3583041999955,,,,,54064,20,Woman,Right,
,,,,,,,,,,,,,,,,,54064,20,Woman,Right,4,74,0.15,1,180,-,180,0.11723830000119051,['y'],0.6787849999964237,1.706,1893.508942200002,,,,,54064,20,Woman,Right,
,,,,,,,,,,,,,,,,,54064,20,Woman,Right,4,59,0.15,2,180,0,0,0.08880510000017239,['y'],1.111152299999958,1.688,1897.4079813999997,,,,,54064,20,Woman,Right,
,,,,,,,,,,,,,,,,,54064,20,Woman,Right,4,8,0.4,1,0,-,180,0.5629268000047887,['y'],0.6394332999989274,1.694,1901.0077562000006,,,,,54064,20,Woman,Right,
,,,,,,,,,,,,,,,,,54064,20,Woman,Right,4,35,0.4,2,180,0,0,0.26679190000140807,['y'],0.3934424000035506,1.694,1904.0924814999962,,,,,54064,20,Woman,Right,
,,,,,,,,,,,,,,,,,54064,20,Woman,Right,4,1,1,2,0,180,180,0.2867998000001535,['y'],0.3362070000002859,1.696,1906.9581705999954,,,,,54064,20,Woman,Right,
,,,,,,,,,,,,,,,,,54064,20,Woman,Right,4,55,0.15,2,180,0,0,0.4226778000011109,['y'],0.456970100000035,1.8,1910.3423135999983,,,,,54064,20,Woman,Right,
,,,,,,,,,,,,,,,,,54064,20,Woman,Right,4,53,0.15,2,0,180,180,0.6189336999959778,['y'],0.36951390000467654,1.802,1913.4914685999975,,,,,54064,20,Woman,Right,
,,,,,,,,,,,,,,,,,54064,20,Woman,Right,4,29,0.4,2,0,180,180,0.3252658999990672,['n'],0.44961489999695914,1.6400000000000001,1918.0412703999973,,,,,54064,20,Woman,Right,
,,,,,,,,,,,,,,,,,54064,20,Woman,Right,4,76,0.15,1,0,-,180,0.7833649999956833,['y'],0.48807830000441754,1.6320000000000001,1921.9085017999969,,,,,54064,20,Woman,Right,
,,,,,,,,,,,,,,,,,54064,20,Woman,Right,4,43,0.4,2,180,0,0,0.28903900000295835,['y'],0.6987425000043004,1.794,1925.3079639999996,,,,,54064,20,Woman,Right,
,,,,,,,,,,,,,,,,,54064,20,Woman,Right,4,45,0.15,2,0,180,180,0.3820382000048994,['y'],0.56313819999923,1.794,1928.4411799000009,,,,,54064,20,Woman,Right,
,,,,,,,,,,,,,,,,,54064,20,Woman,Right,4,58,0.15,1,180,-,0,0.5165213999935077,['n'],0.5719028999956208,1.8,1934.025274300002,,,,,54064,20,Woman,Right,
,,,,,,,,,,,,,,,,,54064,20,Woman,Right,4,46,0.15,1,180,-,180,0.7216733000022941,['y'],0.4760158999997657,1.716,1938.141628999998,,,,,54064,20,Woman,Right,
,,,,,,,,,,,,,,,,,54064,20,Woman,Right,4,44,0.15,1,0,-,180,1.515009300004749,['n'],0.7088541000048281,1.714,1942.792133899995,,,,,54064,20,Woman,Right,
,,,,,,,,,,,,,,,,,54064,20,Woman,Right,4,64,0.15,1,0,-,0,0.3787538999968092,['y'],1.4213984000016353,1.714,1946.8079190999997,,,,,54064,20,Woman,Right,
,,,,,,,,,,,,,,,,,54064,20,Woman,Right,4,42,0.4,1,180,-,180,3.9015481999958865,['y'],1.310260099999141,1.5979999999999999,1955.0920753999962,,,,,54064,20,Woman,Right,
,,,,,,,,,,,,,,,,,54064,20,Woman,Right,4,71,0.15,2,180,0,180,0.07308049999846844,['y'],0.551442700001644,1.596,1958.3581044999955,,,,,54064,20,Woman,Right,
,,,,,,,,,,,,,,,,,54064,20,Woman,Right,4,77,0.15,2,0,180,180,0.4107222000020556,['n'],0.6153139000016381,1.596,1962.307959699996,,,,,54064,20,Woman,Right,
,,,,,,,,,,,,,,,,,54064,20,Woman,Right,4,61,0.15,2,0,180,180,0.6385480999961146,['y'],0.751495899996371,1.826,1966.308062199998,,,,,54064,20,Woman,Right,
,,,,,,,,,,,,,,,,,54064,20,Woman,Right,4,39,0.4,2,180,0,180,0.6629001999972388,['n'],1.7600856999997632,1.714,1972.0246828999952,,,,,54064,20,Woman,Right,
,,,,,,,,,,,,,,,,,54064,20,Woman,Right,4,73,0.15,2,0,180,0,0.7504906000031042,['n'],1.553648199995223,1.712,1976.5747972999961,,,,,54064,20,Woman,Right,
,,,,,,,,,,,,,,,,,54064,20,Woman,Right,4,19,0.4,2,180,0,0,0.2321596999972826,['y'],0.41002369999478105,1.81,1979.875047499998,,,,,54064,20,Woman,Right,
,,,,,,,,,,,,,,,,,54064,20,Woman,Right,4,57,0.15,2,0,180,180,0.6172487000003457,['y'],0.47317739999562036,1.854,1983.3914425999974,,,,,54064,20,Woman,Right,
,,,,,,,,,,,,,,,,,54064,20,Woman,Right,4,22,0.4,1,180,-,180,0.2154794000016409,['n'],0.5060987000033492,1.858,1986.3747817999974,,,,,54064,20,Woman,Right,
,,,,,,,,,,,,,,,,,54064,20,Woman,Right,4,49,0.15,2,0,180,0,0.5024591999972472,['y'],0.9632634000008693,1.718,1990.6913875999962,,,,,54064,20,Woman,Right,
,,,,,,,,,,,,,,,,,54064,20,Woman,Right,4,6,1,1,180,-,180,0.3165399999998044,['n'],0.2987875999970129,1.874,1994.1755043000012,,,,,54064,20,Woman,Right,
,,,,,,,,,,,,,,,,,54064,20,Woman,Right,4,56,0.15,1,0,-,180,0.7170336999988649,['y'],0.45188620000408264,1.796,1997.9581252999997,,,,,54064,20,Woman,Right,
,,,,,,,,,,,,,,,,,54064,20,Woman,Right,4,11,0.4,2,180,0,0,0.7067502000063541,['y'],1.0280826000016532,1.816,2001.9081510999968,,,,,54064,20,Woman,Right,
,,,,,,,,,,,,,,,,,54064,20,Woman,Right,4,27,0.4,2,180,0,0,0.30719809999573044,['y'],0.3415277000021888,1.816,2004.6580762000012,,,,,54064,20,Woman,Right,
,,,,,,,,,,,,,,,,,54064,20,Woman,Right,4,30,0.4,1,180,-,180,0.3343049999966752,['n'],0.5730401000037091,1.816,2008.3251191999952,,,,,54064,20,Woman,Right,
,,,,,,,,,,,,,,,,,54064,20,Woman,Right,4,2,1,1,180,-,180,0.37308260000281734,['n'],0.46165040000050794,1.816,2011.8581419999973,,,,,54064,20,Woman,Right,
,,,,,,,,,,,,,,,,,54064,20,Woman,Right,4,78,0.15,1,180,-,180,0.43278840000130003,['n'],0.3737209000028088,1.81,2014.9082024999952,,,,,54064,20,Woman,Right,
,,,,,,,,,,,,,,,,,54064,20,Woman,Right,4,38,0.4,1,180,-,180,2.8784310999981244,['n'],2.9748800000015763,1.55,2027.374886599995,,,,,54064,20,Woman,Right,
,,,,,,,,,,,,,,,,,54064,20,Woman,Right,4,17,0.4,2,0,180,180,0.2434962000043015,['y'],0.5198548999978811,1.73,2031.1092501999956,,,,,54064,20,Woman,Right,
,,,,,,,,,,,,,,,,,54064,20,Woman,Right,4,31,0.4,2,180,0,0,0.8183107000004384,['n'],0.5521603000015602,1.5859999999999999,2035.7087375999981,,,,,54064,20,Woman,Right,
,,,,,,,,,,,,,,,,,54064,20,Woman,Right,4,48,0.15,1,0,-,180,0.3072961999932886,['n'],0.4885107000009157,1.584,2039.1582937999992,,,,,54064,20,Woman,Right,
,,,,,,,,,,,,,,,,,54064,20,Woman,Right,4,47,0.15,2,180,0,180,0.31712939999852097,['n'],0.9889771000016481,1.7,2042.7423484999963,,,,,54064,20,Woman,Right,
,,,,,,,,,,,,,,,,,54064,20,Woman,Right,4,4,1,1,0,-,0,0.2952577999967616,['n'],0.32151109999540495,1.88,2045.9582953999998,,,,,54064,20,Woman,Right,
,,,,,,,,,,,,,,,,,54064,20,Woman,Right,4,62,0.15,1,180,-,0,0.9706990999984555,['y'],0.825943499999994,1.754,2050.709289999999,,,,,54064,20,Woman,Right,
,,,,,,,,,,,,,,,,,54064,20,Woman,Right,4,66,0.15,1,180,-,180,0.5555295000012848,['n'],0.3465749000024516,1.752,2054.075044600002,,,,,54064,20,Woman,Right,
,,,,,,,,,,,,,,,,,54064,20,Woman,Right,4,67,0.15,2,180,0,0,0.9085716000045068,['y'],1.9233460999967065,1.728,2059.1086855999965,,,,,54064,20,Woman,Right,
,,,,,,,,,,,,,,,,,54064,20,Woman,Right,4,15,0.4,2,180,0,180,7.240735100000165,['y'],0.7491891000026953,1.532,2070.1419267999954,,,,,54064,20,Woman,Right,
,,,,,,,,,,,,,,,,,54064,20,Woman,Right,4,26,0.4,1,180,-,180,0.2972072999982629,['n'],0.48456850000366103,1.672,2074.042488400002,,,,,54064,20,Woman,Right,
,,,,,,,,,,,,,,,,,54064,20,Woman,Right,4,12,0.4,1,0,-,0,0.4262983000007807,['n'],0.44622399999934714,1.672,2077.5584812000016,,,,,54064,20,Woman,Right,
,,,,,,,,,,,,,,,,,54064,20,Woman,Right,4,24,0.4,1,0,-,0,0.221807699999772,['n'],1.7021166000049561,1.674,2081.7926657999997,,,,,54064,20,Woman,Right,
,,,,,,,,,,,,,,,,,54064,20,Woman,Right,5,31,0.4,2,180,0,0,0.3142855999976746,['y'],0.3592371000049752,1.658,2088.2584558000017,77.5,67.5,75.0,,54064,20,Woman,Right,
,,,,,,,,,,,,,,,,,54064,20,Woman,Right,5,41,0.4,2,0,180,180,0.30709760000172537,['y'],0.3507555999967735,1.712,2091.2421756999975,,,,,54064,20,Woman,Right,
,,,,,,,,,,,,,,,,,54064,20,Woman,Right,5,70,0.15,1,180,-,180,0.6533054999963497,['y'],0.3355048000012175,1.714,2094.4085281000007,,,,,54064,20,Woman,Right,
,,,,,,,,,,,,,,,,,54064,20,Woman,Right,5,78,0.15,1,180,-,0,0.7303291999996873,['n'],0.3367110999970464,1.716,2097.9418584000014,,,,,54064,20,Woman,Right,
,,,,,,,,,,,,,,,,,54064,20,Woman,Right,5,68,0.15,1,0,-,0,0.3836362000001827,['n'],0.4194590000042808,1.838,2101.3751780999955,,,,,54064,20,Woman,Right,
,,,,,,,,,,,,,,,,,54064,20,Woman,Right,5,61,0.15,2,0,180,180,0.44762070000433596,['y'],0.4889980000007199,1.834,2104.458555600002,,,,,54064,20,Woman,Right,
,,,,,,,,,,,,,,,,,54064,20,Woman,Right,5,66,0.15,1,180,-,180,0.8436002999951597,['n'],0.5136306999993394,1.782,2108.342008200001,,,,,54064,20,Woman,Right,
,,,,,,,,,,,,,,,,,54064,20,Woman,Right,5,22,0.4,1,180,-,180,0.02643990000069607,['n'],0.6338462999992771,1.82,2111.525899100001,,,,,54064,20,Woman,Right,
,,,,,,,,,,,,,,,,,54064,20,Woman,Right,5,11,0.4,2,180,0,0,0.3249844999954803,['y'],0.40961780000361614,1.82,2114.675283700002,,,,,54064,20,Woman,Right,
,,,,,,,,,,,,,,,,,54064,20,Woman,Right,5,8,0.4,1,0,-,0,0.4246941000019433,['y'],0.9072863999972469,1.726,2120.642672599999,,,,,54064,20,Woman,Right,
,,,,,,,,,,,,,,,,,54064,20,Woman,Right,5,17,0.4,2,0,180,180,3.1485297000035644,['y'],1.2599709000060102,1.642,2129.4093036999984,,,,,54064,20,Woman,Right,
,,,,,,,,,,,,,,,,,54064,20,Woman,Right,5,5,1,2,0,180,180,0.7005586000013864,['y'],0.878281600002083,1.83,2133.6752811999977,,,,,54064,20,Woman,Right,
,,,,,,,,,,,,,,,,,54064,20,Woman,Right,5,28,0.4,1,0,-,0,0.2908464000065578,['n'],0.4450125000003027,1.8439999999999999,2136.7588313000015,,,,,54064,20,Woman,Right,
,,,,,,,,,,,,,,,,,54064,20,Woman,Right,5,38,0.4,1,180,-,180,0.18730340000183787,['n'],0.821026300000085,1.842,2140.042661499996,,,,,54064,20,Woman,Right,
,,,,,,,,,,,,,,,,,54064,20,Woman,Right,5,56,0.15,1,0,-,180,0.672289299996919,['y'],2.014603600000555,1.84,2145.542035499995,,,,,54064,20,Woman,Right,
,,,,,,,,,,,,,,,,,54064,20,Woman,Right,5,48,0.15,1,0,-,180,0.24833009999565547,['y'],0.5586005000004661,1.78,2148.9762066999974,,,,,54064,20,Woman,Right,
,,,,,,,,,,,,,,,,,54064,20,Woman,Right,5,60,0.15,1,0,-,0,0.4083022999984678,['n'],0.5664974999963306,1.762,2152.1421646000017,,,,,54064,20,Woman,Right,
,,,,,,,,,,,,,,,,,54064,20,Woman,Right,5,36,0.4,1,0,-,0,0.08941870000126073,['n'],0.599052199999278,1.696,2155.6927168999973,,,,,54064,20,Woman,Right,
,,,,,,,,,,,,,,,,,54064,20,Woman,Right,5,29,0.4,2,0,180,0,3.3174512999976287,['y'],0.8054364000054193,1.716,2162.1090417000014,,,,,54064,20,Woman,Right,
,,,,,,,,,,,,,,,,,54064,20,Woman,Right,5,23,0.4,2,180,0,0,0.6655508000039845,['y'],0.496385200000077,1.718,2165.6428260999965,,,,,54064,20,Woman,Right,
,,,,,,,,,,,,,,,,,54064,20,Woman,Right,5,33,0.4,2,0,180,180,0.5005434999984573,['y'],0.7854807999974582,1.718,2169.2927722999957,,,,,54064,20,Woman,Right,
,,,,,,,,,,,,,,,,,54064,20,Woman,Right,5,30,0.4,1,180,-,0,1.5376303999946686,['y'],4.273940599996422,1.718,2177.6262448999987,,,,,54064,20,Woman,Right,
,,,,,,,,,,,,,,,,,54064,20,Woman,Right,5,76,0.15,1,0,-,0,0.24366219999501482,['n'],0.7943273999990197,1.716,2181.292509699997,,,,,54064,20,Woman,Right,
,,,,,,,,,,,,,,,,,54064,20,Woman,Right,5,25,0.4,2,0,180,180,0.44240260000515264,['y'],0.3151877999989665,1.714,2184.1754994000003,,,,,54064,20,Woman,Right,
,,,,,,,,,,,,,,,,,54064,20,Woman,Right,5,37,0.4,2,0,180,180,0.4614540000038687,['y'],0.5951481999945827,1.732,2187.576280399997,,,,,54064,20,Woman,Right,
,,,,,,,,,,,,,,,,,54064,20,Woman,Right,5,79,0.15,2,180,0,0,0.353386100003263,['n'],0.7001360999929602,1.732,2190.7922244,,,,,54064,20,Woman,Right,
,,,,,,,,,,,,,,,,,54064,20,Woman,Right,5,27,0.4,2,180,0,0,0.21195089999673655,['n'],0.348065600002883,1.726,2193.6088785999964,,,,,54064,20,Woman,Right,
,,,,,,,,,,,,,,,,,54064,20,Woman,Right,5,20,0.4,1,0,-,0,0.3531392999939271,['y'],3.068675600006827,1.732,2199.958924999999,,,,,54064,20,Woman,Right,
,,,,,,,,,,,,,,,,,54064,20,Woman,Right,5,63,0.15,2,180,0,0,0.4151122999974177,['n'],0.3572418000039761,1.732,2202.8588721999986,,,,,54064,20,Woman,Right,
,,,,,,,,,,,,,,,,,54064,20,Woman,Right,5,34,0.4,1,180,-,180,0.8585313000003225,['n'],1.3104057999953511,1.726,2207.9264331000013,,,,,54064,20,Woman,Right,
,,,,,,,,,,,,,,,,,54064,20,Woman,Right,5,12,0.4,1,0,-,0,0.040028700001130346,['n'],0.5511234000005061,1.726,2210.7088841000004,,,,,54064,20,Woman,Right,
,,,,,,,,,,,,,,,,,54064,20,Woman,Right,5,19,0.4,2,180,0,0,0.6090630999970017,['y'],0.4631139000048279,1.726,2213.942292699998,,,,,54064,20,Woman,Right,
,,,,,,,,,,,,,,,,,54064,20,Woman,Right,5,74,0.15,1,180,-,0,0.33653400000184774,['y'],0.35113540000020294,1.726,2216.7421713000003,,,,,54064,20,Woman,Right,
,,,,,,,,,,,,,,,,,54064,20,Woman,Right,5,64,0.15,1,0,-,180,0.15201199999864912,['y'],0.3680592000018805,1.72,2219.508893500002,,,,,54064,20,Woman,Right,
,,,,,,,,,,,,,,,,,54064,20,Woman,Right,5,40,0.4,1,0,-,0,0.11877519999688957,['y'],0.33599669999966864,1.71,2222.175667800002,,,,,54064,20,Woman,Right,
,,,,,,,,,,,,,,,,,54064,20,Woman,Right,5,2,1,1,180,-,180,0.4993384000044898,['n'],0.6134106000026804,1.98,2225.9599836999987,,,,,54064,20,Woman,Right,
,,,,,,,,,,,,,,,,,54064,20,Woman,Right,5,32,0.4,1,0,-,0,0.2182500000053551,['n'],0.5769627999980003,1.8940000000000001,2229.792313699996,,,,,54064,20,Woman,Right,
,,,,,,,,,,,,,,,,,54064,20,Woman,Right,5,24,0.4,1,0,-,180,0.85636049999448,['n'],0.5291569000037271,1.676,2234.7931993999955,,,,,54064,20,Woman,Right,
,,,,,,,,,,,,,,,,,54064,20,Woman,Right,5,67,0.15,2,180,0,180,0.47321950000332436,['n'],1.24920509999356,1.674,2238.8430875999984,,,,,54064,20,Woman,Right,
,,,,,,,,,,,,,,,,,54064,20,Woman,Right,5,1,1,2,0,180,180,0.7734662000002572,['y'],0.37754709999717306,1.948,2242.5757656999995,,,,,54064,20,Woman,Right,
,,,,,,,,,,,,,,,,,54064,20,Woman,Right,5,7,1,2,180,0,0,0.8548305999938748,['y'],0.4101840000002994,1.942,2246.2763729,,,,,54064,20,Woman,Right,
,,,,,,,,,,,,,,,,,54064,20,Woman,Right,5,53,0.15,2,0,180,180,0.3802683999965666,['y'],0.819410500000231,1.912,2250.676655999996,,,,,54064,20,Woman,Right,
,,,,,,,,,,,,,,,,,54064,20,Woman,Right,5,58,0.15,1,180,-,180,1.4081518999955733,['n'],0.3715253999980632,1.904,2254.725780499997,,,,,54064,20,Woman,Right,
,,,,,,,,,,,,,,,,,54064,20,Woman,Right,5,73,0.15,2,0,180,180,0.40176019999489654,['y'],0.4277598000044236,1.892,2257.7931574999966,,,,,54064,20,Woman,Right,
,,,,,,,,,,,,,,,,,54064,20,Woman,Right,5,50,0.15,1,180,-,0,1.8577141999994637,['y'],1.180559100001119,1.65,2263.509130599996,,,,,54064,20,Woman,Right,
,,,,,,,,,,,,,,,,,54064,20,Woman,Right,5,16,0.4,1,0,-,0,0.3251534000009997,['n'],1.236707199997909,1.742,2268.093063499997,,,,,54064,20,Woman,Right,
,,,,,,,,,,,,,,,,,54064,20,Woman,Right,5,49,0.15,2,0,180,180,0.6745370999997249,['n'],0.6454129000048852,1.742,2272.475746199998,,,,,54064,20,Woman,Right,
,,,,,,,,,,,,,,,,,54064,20,Woman,Right,5,13,0.4,2,0,180,180,0.5629610000032699,['y'],0.7420412999999826,1.734,2277.509081199998,,,,,54064,20,Woman,Right,
,,,,,,,,,,,,,,,,,54064,20,Woman,Right,5,6,1,1,180,-,180,0.26619840000057593,['n'],0.31895000000076834,1.862,2280.9266105999995,,,,,54064,20,Woman,Right,
,,,,,,,,,,,,,,,,,54064,20,Woman,Right,5,65,0.15,2,0,180,180,1.467007499995816,['y'],0.5280402000062168,1.862,2285.142511099999,,,,,54064,20,Woman,Right,
,,,,,,,,,,,,,,,,,54064,20,Woman,Right,5,52,0.15,1,0,-,0,1.585966599996027,['n'],0.759676199995738,1.8639999999999999,2289.7426340999955,,,,,54064,20,Woman,Right,
,,,,,,,,,,,,,,,,,54064,20,Woman,Right,5,57,0.15,2,0,180,180,0.18125859999418026,['n'],0.39233559999411227,1.8599999999999999,2292.559517599999,,,,,54064,20,Woman,Right,
,,,,,,,,,,,,,,,,,54064,20,Woman,Right,5,15,0.4,2,180,0,0,0.4406447999936063,['y'],0.3928412000022945,1.694,2296.259248299997,,,,,54064,20,Woman,Right,
,,,,,,,,,,,,,,,,,54064,20,Woman,Right,5,3,1,2,180,0,0,0.19040289999975357,['y'],0.4328504000004614,1.688,2299.1426006999973,,,,,54064,20,Woman,Right,
,,,,,,,,,,,,,,,,,54064,20,Woman,Right,5,59,0.15,2,180,0,0,1.3023738999982015,['n'],0.36156130000017583,1.688,2303.259316399999,,,,,54064,20,Woman,Right,
,,,,,,,,,,,,,,,,,54064,20,Woman,Right,5,26,0.4,1,180,-,180,0.2603218000003835,['y'],0.8019540999957826,1.678,2306.8933442999987,,,,,54064,20,Woman,Right,
,,,,,,,,,,,,,,,,,54064,20,Woman,Right,5,54,0.15,1,180,-,0,0.2913348000001861,['y'],0.34651640000083717,1.666,2309.7268387000004,,,,,54064,20,Woman,Right,
,,,,,,,,,,,,,,,,,54064,20,Woman,Right,5,51,0.15,2,180,0,0,0.23882589999993797,['y'],0.44338869999774033,1.666,2313.092644700002,,,,,54064,20,Woman,Right,
,,,,,,,,,,,,,,,,,54064,20,Woman,Right,5,45,0.15,2,0,180,0,0.18600339999829885,['y'],0.4112466000005952,1.666,2316.5260341999965,,,,,54064,20,Woman,Right,
,,,,,,,,,,,,,,,,,54064,20,Woman,Right,5,47,0.15,2,180,0,180,0.5533646999974735,['y'],0.9556770999988657,1.666,2320.1934688999972,,,,,54064,20,Woman,Right,
,,,,,,,,,,,,,,,,,54064,20,Woman,Right,5,21,0.4,2,0,180,180,0.9742858000026899,['y'],0.8839220000008936,1.67,2325.3093299999964,,,,,54064,20,Woman,Right,
,,,,,,,,,,,,,,,,,54064,20,Woman,Right,5,4,1,1,0,-,0,0.7363359999944805,['n'],0.5811141000012867,1.888,2329.7427773000018,,,,,54064,20,Woman,Right,
,,,,,,,,,,,,,,,,,54064,20,Woman,Right,5,42,0.4,1,180,-,180,0.4671583000017563,['n'],1.1105244999998831,1.698,2334.0445445000005,,,,,54064,20,Woman,Right,
,,,,,,,,,,,,,,,,,54064,20,Woman,Right,5,71,0.15,2,180,0,0,0.7190048999982537,['n'],2.830692800001998,1.6019999999999999,2340.793790099997,,,,,54064,20,Woman,Right,
,,,,,,,,,,,,,,,,,54064,20,Woman,Right,5,18,0.4,1,180,-,180,1.7752757999987807,['n'],0.4222890000019106,1.5779999999999998,2345.2094175999955,,,,,54064,20,Woman,Right,
,,,,,,,,,,,,,,,,,54064,20,Woman,Right,5,75,0.15,2,180,0,0,0.2951591000019107,['n'],1.1198457999998936,1.71,2349.6927856999973,,,,,54064,20,Woman,Right,
,,,,,,,,,,,,,,,,,54064,20,Woman,Right,5,62,0.15,1,180,-,0,0.01667079999606358,['n'],0.6281458999947063,1.706,2352.927201899998,,,,,54064,20,Woman,Right,
,,,,,,,,,,,,,,,,,54064,20,Woman,Right,5,55,0.15,2,180,0,180,0.36811759999545757,['n'],0.7047888000015519,1.704,2356.5094047999955,,,,,54064,20,Woman,Right,
,,,,,,,,,,,,,,,,,54064,20,Woman,Right,5,9,0.4,2,0,180,180,1.4188784999932977,['y'],0.4805854000005638,1.802,2361.5263317999998,,,,,54064,20,Woman,Right,
,,,,,,,,,,,,,,,,,54064,20,Woman,Right,5,43,0.4,2,180,0,0,0.3697911999988719,['y'],0.34602730000187876,1.802,2364.4429191000017,,,,,54064,20,Woman,Right,
,,,,,,,,,,,,,,,,,54064,20,Woman,Right,5,10,0.4,1,180,-,180,0.3150307999967481,['n'],0.3623345000014524,1.802,2367.5761383999998,,,,,54064,20,Woman,Right,
,,,,,,,,,,,,,,,,,54064,20,Woman,Right,5,35,0.4,2,180,0,0,0.3560687000062899,['y'],0.3469725999966613,1.802,2370.4928389999986,,,,,54064,20,Woman,Right,
,,,,,,,,,,,,,,,,,54064,20,Woman,Right,5,14,0.4,1,180,-,180,0.5059793999971589,['n'],0.7069510000001173,1.802,2373.8929653000014,,,,,54064,20,Woman,Right,
,,,,,,,,,,,,,,,,,54064,20,Woman,Right,5,77,0.15,2,0,180,180,0.7992395000037504,['y'],0.3796959999963292,1.802,2377.259535600002,,,,,54064,20,Woman,Right,
,,,,,,,,,,,,,,,,,54064,20,Woman,Right,5,72,0.15,1,0,-,0,0.2973742000031052,['n'],0.43551409999781754,1.77,2380.2596305999978,,,,,54064,20,Woman,Right,
,,,,,,,,,,,,,,,,,54064,20,Woman,Right,5,39,0.4,2,180,0,0,0.4035823000012897,['y'],0.387498099997174,1.77,2383.2929518999954,,,,,54064,20,Woman,Right,
,,,,,,,,,,,,,,,,,54064,20,Woman,Right,5,0,1,1,0,-,0,0.044698400000925176,['y'],0.3077788000009605,1.5979999999999999,2387.126297499999,,,,,54064,20,Woman,Right,
,,,,,,,,,,,,,,,,,54064,20,Woman,Right,5,44,0.15,1,0,-,180,0.2507763000030536,['n'],1.1487667999972473,1.588,2390.6595581,,,,,54064,20,Woman,Right,
,,,,,,,,,,,,,,,,,54064,20,Woman,Right,5,46,0.15,1,180,-,180,0.49935619999450864,['n'],1.3415332000004128,1.678,2394.9263532999976,,,,,54064,20,Woman,Right,
,,,,,,,,,,,,,,,,,54064,20,Woman,Right,5,69,0.15,2,0,180,0,0.5171995000055176,['y'],0.40555180000228574,1.684,2397.9597404000015,,,,,54064,20,Woman,Right,
,,,,,,,,,,,,,,,,,,,,,,,,,,,,,,,,,78.75,67.5,75.0,2103.6590681000016,,,,,
