p_block,p_section,p_coherence,p_direction1,p_direction2,p_direction_response,p_direction_RT,p_change_response,p_change_RT,p_confidence,p_full_correct,p_without5_correct,p_full_total,p_without5_total,p_full_avg,p_witout5_avg,p_total_time,sub,age,sex,handedness,loop,trial randomization,coherence,condition,direction1,direction2,direction_response,direction_RT,change_response,change_RT,change_confidence,change_confidence_RT,block_direction_avg,block_stable_avg,block_change_avg,total_time,sub,age,sex,handedness,
1,1,1.0,0,-,180,2.3761398000001464,-,-,-,,,,,,,,525,19,Woman,Right,,,,,,,,,,,,,,,,,525,19,Woman,Right,
1,1,1.0,0,-,180,1.5568052999999509,-,-,-,,,,,,,,525,19,Woman,Right,,,,,,,,,,,,,,,,,525,19,Woman,Right,
1,1,1.0,180,-,180,0.607661300000018,-,-,-,,,,,,,,525,19,Woman,Right,,,,,,,,,,,,,,,,,525,19,Woman,Right,
1,1,1.0,180,-,180,0.4341537000000244,-,-,-,,,,,,,,525,19,Woman,Right,,,,,,,,,,,,,,,,,525,19,Woman,Right,
1,1,1.0,180,-,180,0.41087179999999535,-,-,-,,,,,,,,525,19,Woman,Right,,,,,,,,,,,,,,,,,525,19,Woman,Right,
1,1,1.0,180,-,180,0.5655658000000585,-,-,-,,,,,,,,525,19,Woman,Right,,,,,,,,,,,,,,,,,525,19,Woman,Right,
1,1,1.0,0,-,180,0.39310939999995753,-,-,-,,,,,,,,525,19,Woman,Right,,,,,,,,,,,,,,,,,525,19,Woman,Right,
1,1,1.0,0,-,180,0.5476648999999725,-,-,-,,,,,,,,525,19,Woman,Right,,,,,,,,,,,,,,,,,525,19,Woman,Right,
1,1,1.0,180,-,180,0.37629440000000614,-,-,-,,,,,,,,525,19,Woman,Right,,,,,,,,,,,,,,,,,525,19,Woman,Right,
1,1,1.0,180,-,180,0.2042146999999659,-,-,-,,,,,,,,525,19,Woman,Right,,,,,,,,,,,,,,,,,525,19,Woman,Right,
1,1,1.0,180,-,180,0.030484200000046258,-,-,-,,,,,,,,525,19,Woman,Right,,,,,,,,,,,,,,,,,525,19,Woman,Right,
1,1,1.0,180,-,180,0.11201370000003408,-,-,-,,,,,,,,525,19,Woman,Right,,,,,,,,,,,,,,,,,525,19,Woman,Right,
1,1,1.0,0,-,0,0.016259699999864097,-,-,-,,,,,,,,525,19,Woman,Right,,,,,,,,,,,,,,,,,525,19,Woman,Right,
1,1,1.0,180,-,180,0.05632719999994151,-,-,-,,,,,,,,525,19,Woman,Right,,,,,,,,,,,,,,,,,525,19,Woman,Right,
1,1,1.0,0,-,0,0.01672010000015689,-,-,-,,,,,,,,525,19,Woman,Right,,,,,,,,,,,,,,,,,525,19,Woman,Right,
1,1,1.0,180,-,180,0.016836300000022675,-,-,-,,,,,,,,525,19,Woman,Right,,,,,,,,,,,,,,,,,525,19,Woman,Right,
1,1,1.0,180,-,180,0.09140370000000075,-,-,-,,,,,,,,525,19,Woman,Right,,,,,,,,,,,,,,,,,525,19,Woman,Right,
1,1,1.0,0,-,0,0.01692800000000716,-,-,-,,,,,,,,525,19,Woman,Right,,,,,,,,,,,,,,,,,525,19,Woman,Right,
1,1,1.0,0,-,0,0.6118235000001278,-,-,-,,,,,,,,525,19,Woman,Right,,,,,,,,,,,,,,,,,525,19,Woman,Right,
1,1,1.0,180,-,180,0.061769899999944755,-,-,-,10,10,10,10,1.0,1.0,,525,19,Woman,Right,,,,,,,,,,,,,,,,,525,19,Woman,Right,
2,1,0.15,0,-,180,1.2168987000000016,-,-,-,,,,,,,,525,19,Woman,Right,,,,,,,,,,,,,,,,,525,19,Woman,Right,
2,1,0.15,180,-,0,2.051105600000028,-,-,-,,,,,,,,525,19,Woman,Right,,,,,,,,,,,,,,,,,525,19,Woman,Right,
2,1,0.4,180,-,0,1.4332767000000786,-,-,-,,,,,,,,525,19,Woman,Right,,,,,,,,,,,,,,,,,525,19,Woman,Right,
2,1,0.4,0,-,0,0.47577739999996993,-,-,-,,,,,,,,525,19,Woman,Right,,,,,,,,,,,,,,,,,525,19,Woman,Right,
2,1,0.15,0,-,180,0.7636681999999837,-,-,-,,,,,,,,525,19,Woman,Right,,,,,,,,,,,,,,,,,525,19,Woman,Right,
2,1,0.15,180,-,180,1.0872091000001092,-,-,-,,,,,,,,525,19,Woman,Right,,,,,,,,,,,,,,,,,525,19,Woman,Right,
2,1,0.15,180,-,180,1.3029437999998663,-,-,-,,,,,,,,525,19,Woman,Right,,,,,,,,,,,,,,,,,525,19,Woman,Right,
2,1,0.15,0,-,0,0.4929498000001331,-,-,-,,,,,,,,525,19,Woman,Right,,,,,,,,,,,,,,,,,525,19,Woman,Right,
2,1,0.15,0,-,180,1.780275500000016,-,-,-,,,,,,,,525,19,Woman,Right,,,,,,,,,,,,,,,,,525,19,Woman,Right,
2,1,0.4,0,-,0,0.7839916000000358,-,-,-,,,,,,,,525,19,Woman,Right,,,,,,,,,,,,,,,,,525,19,Woman,Right,
2,1,0.4,0,-,0,0.522547300000042,-,-,-,,,,,,,,525,19,Woman,Right,,,,,,,,,,,,,,,,,525,19,Woman,Right,
2,1,0.15,180,-,180,0.8476617999999689,-,-,-,,,,,,,,525,19,Woman,Right,,,,,,,,,,,,,,,,,525,19,Woman,Right,
2,1,0.15,180,-,180,1.0970824000000903,-,-,-,,,,,,,,525,19,Woman,Right,,,,,,,,,,,,,,,,,525,19,Woman,Right,
2,1,0.15,180,-,0,0.400601800000004,-,-,-,,,,,,,,525,19,Woman,Right,,,,,,,,,,,,,,,,,525,19,Woman,Right,
2,1,0.15,0,-,180,1.4663711000000603,-,-,-,,,,,,,,525,19,Woman,Right,,,,,,,,,,,,,,,,,525,19,Woman,Right,
2,1,0.4,0,-,0,0.41020210000010593,-,-,-,,,,,,,,525,19,Woman,Right,,,,,,,,,,,,,,,,,525,19,Woman,Right,
2,1,0.15,0,-,180,0.771201499999961,-,-,-,,,,,,,,525,19,Woman,Right,,,,,,,,,,,,,,,,,525,19,Woman,Right,
2,1,0.4,0,-,0,0.6829549999999927,-,-,-,,,,,,,,525,19,Woman,Right,,,,,,,,,,,,,,,,,525,19,Woman,Right,
2,1,0.15,180,-,180,1.2069218000001456,-,-,-,,,,,,,,525,19,Woman,Right,,,,,,,,,,,,,,,,,525,19,Woman,Right,
2,1,0.4,180,-,0,0.45646990000000187,-,-,-,,,,,,,,525,19,Woman,Right,,,,,,,,,,,,,,,,,525,19,Woman,Right,
2,1,0.15,180,-,180,0.6964963999998872,-,-,-,,,,,,,,525,19,Woman,Right,,,,,,,,,,,,,,,,,525,19,Woman,Right,
2,1,0.15,180,-,0,0.3677359000000706,-,-,-,,,,,,,,525,19,Woman,Right,,,,,,,,,,,,,,,,,525,19,Woman,Right,
2,1,0.15,0,-,0,0.6029802000000473,-,-,-,,,,,,,,525,19,Woman,Right,,,,,,,,,,,,,,,,,525,19,Woman,Right,
2,1,0.4,0,-,0,0.3735466999999062,-,-,-,,,,,,,,525,19,Woman,Right,,,,,,,,,,,,,,,,,525,19,Woman,Right,
2,1,0.4,180,-,180,0.33763599999997496,-,-,-,,,,,,,,525,19,Woman,Right,,,,,,,,,,,,,,,,,525,19,Woman,Right,
2,1,0.4,180,-,0,0.4998511999999664,-,-,-,,,,,,,,525,19,Woman,Right,,,,,,,,,,,,,,,,,525,19,Woman,Right,
2,1,0.15,0,-,0,0.437009499999931,-,-,-,,,,,,,,525,19,Woman,Right,,,,,,,,,,,,,,,,,525,19,Woman,Right,
2,1,0.15,0,-,180,1.0301524000001336,-,-,-,,,,,,,,525,19,Woman,Right,,,,,,,,,,,,,,,,,525,19,Woman,Right,
2,1,0.4,180,-,180,0.3041416000000936,-,-,-,,,,,,,,525,19,Woman,Right,,,,,,,,,,,,,,,,,525,19,Woman,Right,
2,1,0.4,0,-,0,0.35856509999985064,-,-,-,7,4,10,5,0.7,0.8,,525,19,Woman,Right,,,,,,,,,,,,,,,,,525,19,Woman,Right,
3,2,1.0,0,180,180,4.832162599999947,['y'],1.1019729000001917,1.942,,,,,,,,525,19,Woman,Right,,,,,,,,,,,,,,,,,525,19,Woman,Right,
3,2,1.0,0,180,180,2.403822999999875,['y'],1.3555907999998453,1.962,,,,,,,,525,19,Woman,Right,,,,,,,,,,,,,,,,,525,19,Woman,Right,
3,2,1.0,180,0,0,1.1249996999999894,['y'],0.7233708999999635,2.0,,,,,,,,525,19,Woman,Right,,,,,,,,,,,,,,,,,525,19,Woman,Right,
3,2,1.0,0,180,180,0.98334890000001,['y'],0.6110022000000299,1.962,,,,,,,,525,19,Woman,Right,,,,,,,,,,,,,,,,,525,19,Woman,Right,
3,2,1.0,0,180,180,0.8675135999999384,['y'],1.9333120999999664,2.0,,,,,,,,525,19,Woman,Right,,,,,,,,,,,,,,,,,525,19,Woman,Right,
3,2,1.0,180,0,0,0.5666266000000633,['y'],0.9191352000000279,1.968,,,,,,,,525,19,Woman,Right,,,,,,,,,,,,,,,,,525,19,Woman,Right,
3,2,1.0,180,0,0,0.7477808999999525,['y'],0.525594799999908,1.942,,,,,,,,525,19,Woman,Right,,,,,,,,,,,,,,,,,525,19,Woman,Right,
3,2,1.0,180,0,0,0.8705410000000029,['y'],0.4683261999998649,1.952,,,,,,,,525,19,Woman,Right,,,,,,,,,,,,,,,,,525,19,Woman,Right,
3,2,1.0,0,180,180,0.5486823999999615,['y'],0.4488361999999597,1.978,,,,,,,,525,19,Woman,Right,,,,,,,,,,,,,,,,,525,19,Woman,Right,
3,2,1.0,180,0,0,0.3636767000000418,['y'],0.35160439999981463,1.966,10,10,10,10,1.0,1.0,,525,19,Woman,Right,,,,,,,,,,,,,,,,,525,19,Woman,Right,
4,2,0.15,180,0,180,1.8075886000001447,['n'],0.8674074000000473,1.168,,,,,,,,525,19,Woman,Right,,,,,,,,,,,,,,,,,525,19,Woman,Right,
4,2,0.15,0,180,0,0.6098532000000887,['y'],0.6641598999999587,1.6360000000000001,,,,,,,,525,19,Woman,Right,,,,,,,,,,,,,,,,,525,19,Woman,Right,
4,2,0.4,180,0,0,0.5279527999998663,['y'],0.45110010000007605,1.6360000000000001,,,,,,,,525,19,Woman,Right,,,,,,,,,,,,,,,,,525,19,Woman,Right,
4,2,0.4,0,180,180,0.5509331999999176,['y'],0.8840806000000612,1.738,,,,,,,,525,19,Woman,Right,,,,,,,,,,,,,,,,,525,19,Woman,Right,
4,2,0.15,180,0,0,0.8502132999999503,['n'],3.891012099999898,1.576,,,,,,,,525,19,Woman,Right,,,,,,,,,,,,,,,,,525,19,Woman,Right,
4,2,0.15,180,0,180,1.6990270000001146,['y'],0.8373630000000958,1.124,,,,,,,,525,19,Woman,Right,,,,,,,,,,,,,,,,,525,19,Woman,Right,
4,2,0.15,0,180,0,0.5150406000000203,['n'],1.789772399999947,1.086,,,,,,,,525,19,Woman,Right,,,,,,,,,,,,,,,,,525,19,Woman,Right,
4,2,0.15,180,0,180,1.8678540999999313,['y'],0.7939506999998684,1.26,,,,,,,,525,19,Woman,Right,,,,,,,,,,,,,,,,,525,19,Woman,Right,
4,2,0.15,180,0,0,0.3646665999999641,['y'],0.36826579999979003,1.514,,,,,,,,525,19,Woman,Right,,,,,,,,,,,,,,,,,525,19,Woman,Right,
4,2,0.15,0,180,0,0.7168229000001247,['y'],0.5625683999999183,1.55,,,,,,,,525,19,Woman,Right,,,,,,,,,,,,,,,,,525,19,Woman,Right,
4,2,0.15,180,0,0,0.35217050000005656,['y'],0.37375109999993583,1.7,,,,,,,,525,19,Woman,Right,,,,,,,,,,,,,,,,,525,19,Woman,Right,
4,2,0.4,0,180,180,0.4052867000000333,['y'],0.38537320000000364,1.8439999999999999,,,,,,,,525,19,Woman,Right,,,,,,,,,,,,,,,,,525,19,Woman,Right,
4,2,0.4,180,0,0,0.30783210000004146,['y'],0.4065743000001021,1.892,,,,,,,,525,19,Woman,Right,,,,,,,,,,,,,,,,,525,19,Woman,Right,
4,2,0.15,180,0,0,0.3845966999999746,['y'],0.3756844999998066,1.938,,,,,,,,525,19,Woman,Right,,,,,,,,,,,,,,,,,525,19,Woman,Right,
4,2,0.15,0,180,180,0.36499419999972815,['y'],0.3265756999999212,1.576,,,,,,,,525,19,Woman,Right,,,,,,,,,,,,,,,,,525,19,Woman,Right,
4,2,0.4,180,0,0,0.46792139999979554,['y'],0.3620607000002565,1.742,,,,,,,,525,19,Woman,Right,,,,,,,,,,,,,,,,,525,19,Woman,Right,
4,2,0.15,0,180,180,0.28176140000005034,['y'],0.536376300000029,1.772,,,,,,,,525,19,Woman,Right,,,,,,,,,,,,,,,,,525,19,Woman,Right,
4,2,0.4,180,0,0,0.471273900000142,['y'],0.6242219000000659,1.8559999999999999,,,,,,,,525,19,Woman,Right,,,,,,,,,,,,,,,,,525,19,Woman,Right,
4,2,0.4,180,0,0,0.2811703000002126,['y'],0.7944336000000476,1.938,,,,,,,,525,19,Woman,Right,,,,,,,,,,,,,,,,,525,19,Woman,Right,
4,2,0.15,180,0,0,0.23112029999992956,['y'],1.013104199999816,1.942,10,5,10,5,1.0,1.0,,525,19,Woman,Right,,,,,,,,,,,,,,,,,525,19,Woman,Right,
5,3,0.4,180,-,0,0.8926801000002342,['y'],1.2199933000001693,1.658,,,,,,,,525,19,Woman,Right,,,,,,,,,,,,,,,,,525,19,Woman,Right,
5,3,1.0,0,-,180,1.781794699999864,['y'],0.6583697000000939,1.67,,,,,,,,525,19,Woman,Right,,,,,,,,,,,,,,,,,525,19,Woman,Right,
5,3,0.15,180,-,180,1.191928900000221,['n'],0.65114259999973,1.6019999999999999,,,,,,,,525,19,Woman,Right,,,,,,,,,,,,,,,,,525,19,Woman,Right,
5,3,1.0,180,0,0,0.6546072999999524,['y'],0.4495971000001191,1.8439999999999999,,,,,,,,525,19,Woman,Right,,,,,,,,,,,,,,,,,525,19,Woman,Right,
5,3,0.4,180,-,180,0.8891490000000886,['n'],0.4054442999999992,1.846,,,,,,,,525,19,Woman,Right,,,,,,,,,,,,,,,,,525,19,Woman,Right,
5,3,1.0,0,180,180,0.719441800000368,['y'],0.3787572999999611,1.938,,,,,,,,525,19,Woman,Right,,,,,,,,,,,,,,,,,525,19,Woman,Right,
5,3,0.15,180,-,180,0.8537630999999237,['n'],0.3472092000001794,1.5939999999999999,,,,,,,,525,19,Woman,Right,,,,,,,,,,,,,,,,,525,19,Woman,Right,
5,3,0.4,0,180,180,0.4615478000000621,['y'],0.5813866000003145,1.9060000000000001,,,,,,,,525,19,Woman,Right,,,,,,,,,,,,,,,,,525,19,Woman,Right,
5,3,0.15,0,-,180,0.8951836000001094,['n'],0.6940304999998261,1.596,,,,,,,,525,19,Woman,Right,,,,,,,,,,,,,,,,,525,19,Woman,Right,
5,3,0.15,0,-,0,1.6897689000002174,['n'],0.37902230000008785,1.762,,,,,,,,525,19,Woman,Right,,,,,,,,,,,,,,,,,525,19,Woman,Right,
5,3,0.4,180,-,180,1.3954946999997446,['n'],0.618303300000207,1.9,,,,,,,,525,19,Woman,Right,,,,,,,,,,,,,,,,,525,19,Woman,Right,
5,3,0.15,180,-,0,0.7044547000000421,['n'],0.3795598000001519,1.6520000000000001,,,,,,,,525,19,Woman,Right,,,,,,,,,,,,,,,,,525,19,Woman,Right,
5,3,0.4,180,-,180,0.36412419999987833,['n'],0.42421250000006694,1.8900000000000001,,,,,,,,525,19,Woman,Right,,,,,,,,,,,,,,,,,525,19,Woman,Right,
5,3,0.4,0,180,180,0.748750299999756,['y'],0.3531202999997731,1.946,,,,,,,,525,19,Woman,Right,,,,,,,,,,,,,,,,,525,19,Woman,Right,
5,3,0.4,180,-,0,0.7675427999997737,['y'],0.38060639999957857,1.6560000000000001,,,,,,,,525,19,Woman,Right,,,,,,,,,,,,,,,,,525,19,Woman,Right,
5,3,0.4,0,180,180,0.6578487000001587,['y'],0.46689489999971556,1.916,,,,,,,,525,19,Woman,Right,,,,,,,,,,,,,,,,,525,19,Woman,Right,
5,3,0.15,180,0,0,0.5920963999997184,['y'],0.38211309999996956,1.854,,,,,,,,525,19,Woman,Right,,,,,,,,,,,,,,,,,525,19,Woman,Right,
5,3,0.4,0,180,180,0.70974729999989,['y'],0.39276939999990645,1.8980000000000001,,,,,,,,525,19,Woman,Right,,,,,,,,,,,,,,,,,525,19,Woman,Right,
5,3,0.4,180,0,0,0.5751498999998148,['y'],0.4487604000000829,1.954,,,,,,,,525,19,Woman,Right,,,,,,,,,,,,,,,,,525,19,Woman,Right,
5,3,0.4,180,-,180,0.768739000000096,['n'],0.35472410000011223,1.6520000000000001,8,7,10,8,0.8,0.875,,525,19,Woman,Right,,,,,,,,,,,,,,,,,525,19,Woman,Right,
,,,,,,,,,,,,,,,,4.399999852466863e-06,525,19,Woman,Right,,,,,,,,,,,,,,,,,525,19,Woman,Right,
,,,,,,,,,,,,,,,,,525,19,Woman,Right,0,53,0.15,2,0,180,180,0.6269807000003311,['n'],2.010201099999904,1.6360000000000001,531.1492862999999,,,,,525,19,Woman,Right,
,,,,,,,,,,,,,,,,,525,19,Woman,Right,0,15,0.4,2,180,0,0,0.46664370000007693,['y'],0.8632900000002337,1.794,537.2840192999997,,,,,525,19,Woman,Right,
,,,,,,,,,,,,,,,,,525,19,Woman,Right,0,77,0.15,2,0,180,180,0.5667545000001155,['y'],0.9402142999997523,1.794,542.6993069999999,,,,,525,19,Woman,Right,
,,,,,,,,,,,,,,,,,525,19,Woman,Right,0,45,0.15,2,0,180,180,1.2089286000000357,['y'],0.7964827999999216,1.914,548.6160381999998,,,,,525,19,Woman,Right,
,,,,,,,,,,,,,,,,,525,19,Woman,Right,0,5,1,2,0,180,180,0.40381239999987883,['y'],1.1652847999998812,2.0,553.7659826999998,,,,,525,19,Woman,Right,
,,,,,,,,,,,,,,,,,525,19,Woman,Right,0,76,0.15,1,0,-,0,0.5661903000000166,['n'],0.8703535999998167,1.28,560.0167290999998,,,,,525,19,Woman,Right,
,,,,,,,,,,,,,,,,,525,19,Woman,Right,0,43,0.4,2,180,0,0,0.5268820999999662,['y'],0.8231022999998459,1.892,564.8166361999997,,,,,525,19,Woman,Right,
,,,,,,,,,,,,,,,,,525,19,Woman,Right,0,34,0.4,1,180,-,0,2.005486199999723,['y'],0.5759620999997423,1.276,570.9330033000001,,,,,525,19,Woman,Right,
,,,,,,,,,,,,,,,,,525,19,Woman,Right,0,65,0.15,2,0,180,180,1.6552537000002303,['n'],0.7539467000001423,1.3559999999999999,578.3166401999997,,,,,525,19,Woman,Right,
,,,,,,,,,,,,,,,,,525,19,Woman,Right,0,79,0.15,2,180,0,0,2.028070200000002,['n'],1.0265567999999803,1.186,585.1665187999997,,,,,525,19,Woman,Right,
,,,,,,,,,,,,,,,,,525,19,Woman,Right,0,19,0.4,2,180,0,0,0.4349128999997447,['y'],1.346952599999895,1.924,591.6658183999998,,,,,525,19,Woman,Right,
,,,,,,,,,,,,,,,,,525,19,Woman,Right,0,31,0.4,2,180,0,0,0.3668806999999106,['y'],0.974212599999646,1.964,596.9831918,,,,,525,19,Woman,Right,
,,,,,,,,,,,,,,,,,525,19,Woman,Right,0,1,1,2,0,180,180,0.6792513000000326,['y'],0.6440363000001526,1.962,602.6324565999998,,,,,525,19,Woman,Right,
,,,,,,,,,,,,,,,,,525,19,Woman,Right,0,22,0.4,1,180,-,0,2.576595300000008,['n'],1.0129249999999956,1.23,611.6323985999998,,,,,525,19,Woman,Right,
,,,,,,,,,,,,,,,,,525,19,Woman,Right,0,8,0.4,1,0,-,0,0.5614707999998245,['n'],1.230474299999969,1.826,617.0165231000001,,,,,525,19,Woman,Right,
,,,,,,,,,,,,,,,,,525,19,Woman,Right,0,75,0.15,2,180,0,180,3.6895794000001843,['n'],0.4392404999998689,1.316,624.6990654000001,,,,,525,19,Woman,Right,
,,,,,,,,,,,,,,,,,525,19,Woman,Right,0,37,0.4,2,0,180,180,0.7755800999998428,['y'],0.799805699999979,1.9020000000000001,629.9996997999997,,,,,525,19,Woman,Right,
,,,,,,,,,,,,,,,,,525,19,Woman,Right,0,62,0.15,1,180,-,0,1.0036594000002879,['y'],0.8886093999999503,1.5819999999999999,636.6490850999999,,,,,525,19,Woman,Right,
,,,,,,,,,,,,,,,,,525,19,Woman,Right,0,41,0.4,2,0,180,180,0.4194253000000572,['y'],0.9773976000001312,1.812,641.7997941999997,,,,,525,19,Woman,Right,
,,,,,,,,,,,,,,,,,525,19,Woman,Right,0,54,0.15,1,180,-,0,0.8590671000001748,['y'],0.9864477000000988,1.6360000000000001,647.0162725999999,,,,,525,19,Woman,Right,
,,,,,,,,,,,,,,,,,525,19,Woman,Right,0,49,0.15,2,0,180,180,0.4700153000003411,['y'],0.6425758000000314,1.682,651.3830287999999,,,,,525,19,Woman,Right,
,,,,,,,,,,,,,,,,,525,19,Woman,Right,0,69,0.15,2,0,180,0,1.3000096999999187,['n'],0.5383421999999882,1.262,656.4323359,,,,,525,19,Woman,Right,
,,,,,,,,,,,,,,,,,525,19,Woman,Right,0,2,1,1,180,-,180,0.4790154000002076,['n'],1.092586400000073,2.0,662.6655867999998,,,,,525,19,Woman,Right,
,,,,,,,,,,,,,,,,,525,19,Woman,Right,0,68,0.15,1,0,-,0,1.481171699999777,['n'],0.7010635999999977,1.17,668.4326820000001,,,,,525,19,Woman,Right,
,,,,,,,,,,,,,,,,,525,19,Woman,Right,0,58,0.15,1,180,-,180,0.4395257000001038,['n'],0.6852723000001788,1.718,672.9823438999997,,,,,525,19,Woman,Right,
,,,,,,,,,,,,,,,,,525,19,Woman,Right,0,9,0.4,2,0,180,180,1.185908500000096,['n'],0.6701198999999178,1.756,678.2329433,,,,,525,19,Woman,Right,
,,,,,,,,,,,,,,,,,525,19,Woman,Right,0,55,0.15,2,180,0,0,1.6292809999999918,['y'],1.687597299999652,1.3479999999999999,685.2656747000001,,,,,525,19,Woman,Right,
,,,,,,,,,,,,,,,,,525,19,Woman,Right,0,48,0.15,1,0,-,180,0.5215690999998515,['y'],1.0554646000000503,1.776,690.6822444,,,,,525,19,Woman,Right,
,,,,,,,,,,,,,,,,,525,19,Woman,Right,0,25,0.4,2,0,180,180,0.3857231000001775,['y'],2.016999399999804,1.93,696.7489713,,,,,525,19,Woman,Right,
,,,,,,,,,,,,,,,,,525,19,Woman,Right,0,17,0.4,2,0,180,180,0.648074500000348,['y'],0.8410649000002195,1.93,701.6822755999997,,,,,525,19,Woman,Right,
,,,,,,,,,,,,,,,,,525,19,Woman,Right,0,72,0.15,1,0,-,180,0.7657218000003922,['y'],0.7785023999999794,1.806,706.7655549000001,,,,,525,19,Woman,Right,
,,,,,,,,,,,,,,,,,525,19,Woman,Right,0,38,0.4,1,180,-,0,0.39317860000028304,['y'],1.2432082999998784,1.922,711.6655575,,,,,525,19,Woman,Right,
,,,,,,,,,,,,,,,,,525,19,Woman,Right,0,23,0.4,2,180,0,0,0.4134837999999945,['y'],0.8674687999996422,1.976,716.5828806,,,,,525,19,Woman,Right,
,,,,,,,,,,,,,,,,,525,19,Woman,Right,0,47,0.15,2,180,0,0,0.5330478000000767,['y'],0.8518183999999565,1.9060000000000001,721.3994365999997,,,,,525,19,Woman,Right,
,,,,,,,,,,,,,,,,,525,19,Woman,Right,0,20,0.4,1,0,-,0,1.3295358999998825,['n'],0.5810084999998253,1.924,726.9662450000001,,,,,525,19,Woman,Right,
,,,,,,,,,,,,,,,,,525,19,Woman,Right,0,73,0.15,2,0,180,0,0.9704775000000154,['n'],0.42954610000015236,1.534,732.9495114000001,,,,,525,19,Woman,Right,
,,,,,,,,,,,,,,,,,525,19,Woman,Right,0,13,0.4,2,0,180,180,0.3317586000002848,['y'],1.310106700000233,1.896,738.4821044,,,,,525,19,Woman,Right,
,,,,,,,,,,,,,,,,,525,19,Woman,Right,0,51,0.15,2,180,0,180,2.0256945000000997,['n'],0.7507165000001805,1.5899999999999999,744.4155403,,,,,525,19,Woman,Right,
,,,,,,,,,,,,,,,,,525,19,Woman,Right,0,26,0.4,1,180,-,0,0.38508920000003855,['y'],1.4802169999998114,1.634,750.9827531999999,,,,,525,19,Woman,Right,
,,,,,,,,,,,,,,,,,525,19,Woman,Right,0,64,0.15,1,0,-,180,0.8834074999999757,['n'],0.5604441999998926,1.608,755.8996297999997,,,,,525,19,Woman,Right,
,,,,,,,,,,,,,,,,,525,19,Woman,Right,0,3,1,2,180,0,0,0.4453230000003714,['y'],0.985670300000038,2.0,760.382611,,,,,525,19,Woman,Right,
,,,,,,,,,,,,,,,,,525,19,Woman,Right,0,6,1,1,180,-,180,1.0366955999998027,['n'],0.7053317999998399,1.8679999999999999,765.3495607,,,,,525,19,Woman,Right,
,,,,,,,,,,,,,,,,,525,19,Woman,Right,0,12,0.4,1,0,-,0,0.9080134000000726,['n'],0.7142515000000458,1.646,770.0486351,,,,,525,19,Woman,Right,
,,,,,,,,,,,,,,,,,525,19,Woman,Right,0,24,0.4,1,0,-,0,0.5876769000001332,['n'],0.8665979000002153,1.796,774.5659961000001,,,,,525,19,Woman,Right,
,,,,,,,,,,,,,,,,,525,19,Woman,Right,0,16,0.4,1,0,-,0,0.5758064999999988,['n'],0.6196718999999575,1.754,779.0326983999998,,,,,525,19,Woman,Right,
,,,,,,,,,,,,,,,,,525,19,Woman,Right,0,59,0.15,2,180,0,0,0.7838397999998961,['y'],0.7163156000001436,1.6680000000000001,783.6820204,,,,,525,19,Woman,Right,
,,,,,,,,,,,,,,,,,525,19,Woman,Right,0,42,0.4,1,180,-,0,3.087637900000118,['n'],1.0694210999999996,1.3940000000000001,791.6653222999998,,,,,525,19,Woman,Right,
,,,,,,,,,,,,,,,,,525,19,Woman,Right,0,57,0.15,2,0,180,180,0.6065798999998151,['y'],0.9340290999998615,1.888,798.0493025999999,,,,,525,19,Woman,Right,
,,,,,,,,,,,,,,,,,525,19,Woman,Right,0,61,0.15,2,0,180,180,0.5646916999999121,['y'],0.5184177000001,1.768,802.4986009999998,,,,,525,19,Woman,Right,
,,,,,,,,,,,,,,,,,525,19,Woman,Right,0,30,0.4,1,180,-,0,0.3725524999999834,['n'],0.7832621000002291,1.752,807.2318596,,,,,525,19,Woman,Right,
,,,,,,,,,,,,,,,,,525,19,Woman,Right,0,78,0.15,1,180,-,0,0.4601892000000589,['n'],0.7919084999998631,1.434,811.5319064999999,,,,,525,19,Woman,Right,
,,,,,,,,,,,,,,,,,525,19,Woman,Right,0,56,0.15,1,0,-,0,0.4557264000000032,['n'],0.744269499999973,1.638,815.4319599999999,,,,,525,19,Woman,Right,
,,,,,,,,,,,,,,,,,525,19,Woman,Right,0,36,0.4,1,0,-,0,0.7788491999999678,['n'],0.7845428999999058,1.674,819.8318986999998,,,,,525,19,Woman,Right,
,,,,,,,,,,,,,,,,,525,19,Woman,Right,0,4,1,1,0,-,0,0.365869499999917,['y'],1.5466975999997885,1.798,828.6820935999999,,,,,525,19,Woman,Right,
,,,,,,,,,,,,,,,,,525,19,Woman,Right,0,14,0.4,1,180,-,180,0.322776900000008,['n'],1.546819400000004,1.846,834.6819443999998,,,,,525,19,Woman,Right,
,,,,,,,,,,,,,,,,,525,19,Woman,Right,0,0,1,1,0,-,0,0.6048676000000341,['n'],2.00453379999999,1.824,841.2483665,,,,,525,19,Woman,Right,
,,,,,,,,,,,,,,,,,525,19,Woman,Right,0,50,0.15,1,180,-,180,0.8495781999999963,['n'],0.4685424999997849,1.31,846.2317601999998,,,,,525,19,Woman,Right,
,,,,,,,,,,,,,,,,,525,19,Woman,Right,0,32,0.4,1,0,-,0,0.3846859999998742,['n'],0.8450842000002012,1.5779999999999998,850.9818317999998,,,,,525,19,Woman,Right,
,,,,,,,,,,,,,,,,,525,19,Woman,Right,0,7,1,2,180,0,0,0.8154764000000796,['y'],1.0540750999998636,2.0,856.0489195999999,,,,,525,19,Woman,Right,
,,,,,,,,,,,,,,,,,525,19,Woman,Right,0,63,0.15,2,180,0,0,2.514069500000005,['n'],1.4939503999999033,1.292,863.9817475999998,,,,,525,19,Woman,Right,
,,,,,,,,,,,,,,,,,525,19,Woman,Right,0,39,0.4,2,180,0,0,1.484885899999881,['y'],0.7997712999999749,1.516,869.0990121999998,,,,,525,19,Woman,Right,
,,,,,,,,,,,,,,,,,525,19,Woman,Right,0,52,0.15,1,0,-,0,1.1831387000001996,['n'],0.8782286000000568,1.0,874.9658196999999,,,,,525,19,Woman,Right,
,,,,,,,,,,,,,,,,,525,19,Woman,Right,0,10,0.4,1,180,-,180,1.1516105000000607,['n'],0.6889796999998907,1.422,879.9316312999999,,,,,525,19,Woman,Right,
,,,,,,,,,,,,,,,,,525,19,Woman,Right,0,21,0.4,2,0,180,180,0.49346809999997276,['y'],0.8101432999997087,1.928,884.2984312999997,,,,,525,19,Woman,Right,
,,,,,,,,,,,,,,,,,525,19,Woman,Right,0,33,0.4,2,0,180,180,0.6321877999998833,['y'],1.066444600000068,2.0,889.3317314000001,,,,,525,19,Woman,Right,
,,,,,,,,,,,,,,,,,525,19,Woman,Right,0,67,0.15,2,180,0,180,1.364374400000088,['y'],0.7473054000001866,1.302,894.9151071000001,,,,,525,19,Woman,Right,
,,,,,,,,,,,,,,,,,525,19,Woman,Right,0,60,0.15,1,0,-,180,0.499254800000017,['y'],1.6275555000001987,1.174,899.9491617999997,,,,,525,19,Woman,Right,
,,,,,,,,,,,,,,,,,525,19,Woman,Right,0,70,0.15,1,180,-,180,1.3321334999995997,['n'],1.4122411999996984,1.198,906.0826060999998,,,,,525,19,Woman,Right,
,,,,,,,,,,,,,,,,,525,19,Woman,Right,0,46,0.15,1,180,-,0,0.7292828999998164,['n'],1.7171884999997928,1.162,911.5993430999997,,,,,525,19,Woman,Right,
,,,,,,,,,,,,,,,,,525,19,Woman,Right,0,35,0.4,2,180,0,0,0.8067467000000761,['y'],1.2859470000003057,1.69,917.0314921999998,,,,,525,19,Woman,Right,
,,,,,,,,,,,,,,,,,525,19,Woman,Right,0,28,0.4,1,0,-,180,1.8772134000000733,['n'],2.095216199999868,1.42,924.0815714,,,,,525,19,Woman,Right,
,,,,,,,,,,,,,,,,,525,19,Woman,Right,0,71,0.15,2,180,0,0,1.7231525000001966,['y'],1.1595341000002009,1.362,930.1653572999999,,,,,525,19,Woman,Right,
,,,,,,,,,,,,,,,,,525,19,Woman,Right,0,44,0.15,1,0,-,0,1.9667395000001306,['n'],1.1264524999996866,1.234,936.5648093,,,,,525,19,Woman,Right,
,,,,,,,,,,,,,,,,,525,19,Woman,Right,0,18,0.4,1,180,-,180,0.5893208000002232,['n'],1.3459351999999853,1.536,942.2483371999997,,,,,525,19,Woman,Right,
,,,,,,,,,,,,,,,,,525,19,Woman,Right,0,11,0.4,2,180,0,0,0.7152425999997831,['y'],1.8742502999998578,1.8940000000000001,948.3148296999998,,,,,525,19,Woman,Right,
,,,,,,,,,,,,,,,,,525,19,Woman,Right,0,40,0.4,1,0,-,0,0.4645509000001766,['n'],1.4103139000003466,1.87,954.2981939000001,,,,,525,19,Woman,Right,
,,,,,,,,,,,,,,,,,525,19,Woman,Right,0,66,0.15,1,180,-,180,0.5338412000000972,['n'],0.7584732999998778,1.782,958.9985953999999,,,,,525,19,Woman,Right,
,,,,,,,,,,,,,,,,,525,19,Woman,Right,0,74,0.15,1,180,-,180,1.0136663000002955,['y'],0.8283974000000853,1.3820000000000001,964.1648589000001,,,,,525,19,Woman,Right,
,,,,,,,,,,,,,,,,,525,19,Woman,Right,0,27,0.4,2,180,0,0,2.9532098999998198,['y'],0.9491542999999183,1.754,971.3147263000001,,,,,525,19,Woman,Right,
,,,,,,,,,,,,,,,,,525,19,Woman,Right,0,29,0.4,2,0,180,0,3.815443999999843,['n'],1.6790424999999232,1.1400000000000001,979.8497033999997,,,,,525,19,Woman,Right,
,,,,,,,,,,,,,,,,,525,19,Woman,Right,1,35,0.4,2,180,0,0,2.6408810999996604,['y'],1.913659700000153,1.814,1007.2155192999999,73.75,75.0,75.0,,525,19,Woman,Right,
,,,,,,,,,,,,,,,,,525,19,Woman,Right,1,60,0.15,1,0,-,180,1.7247521999997844,['n'],1.1391129999997247,1.3780000000000001,1013.2980321,,,,,525,19,Woman,Right,
,,,,,,,,,,,,,,,,,525,19,Woman,Right,1,56,0.15,1,0,-,0,0.5728601999999228,['n'],0.81175310000026,1.388,1019.0490660999999,,,,,525,19,Woman,Right,
,,,,,,,,,,,,,,,,,525,19,Woman,Right,1,22,0.4,1,180,-,180,0.9822789999998349,['n'],1.1084482000001117,1.772,1024.7322405,,,,,525,19,Woman,Right,
,,,,,,,,,,,,,,,,,525,19,Woman,Right,1,17,0.4,2,0,180,180,0.5368346999998721,['y'],1.6049766000001,1.942,1030.1312589999998,,,,,525,19,Woman,Right,
,,,,,,,,,,,,,,,,,525,19,Woman,Right,1,28,0.4,1,0,-,0,0.4987645999999586,['n'],1.3331166000002668,1.6320000000000001,1034.9812183,,,,,525,19,Woman,Right,
,,,,,,,,,,,,,,,,,525,19,Woman,Right,1,74,0.15,1,180,-,180,0.9574631000000409,['n'],0.6859008999999787,1.8,1039.6154917999997,,,,,525,19,Woman,Right,
,,,,,,,,,,,,,,,,,525,19,Woman,Right,1,32,0.4,1,0,-,0,0.6331903999998758,['n'],0.6386877999998433,1.5979999999999999,1043.7815357,,,,,525,19,Woman,Right,
,,,,,,,,,,,,,,,,,525,19,Woman,Right,1,52,0.15,1,0,-,180,1.9728664999997818,['n'],1.7843259000001126,1.084,1050.815481,,,,,525,19,Woman,Right,
,,,,,,,,,,,,,,,,,525,19,Woman,Right,1,19,0.4,2,180,0,0,0.479527699999835,['y'],1.24837639999987,1.928,1055.8978621,,,,,525,19,Woman,Right,
,,,,,,,,,,,,,,,,,525,19,Woman,Right,1,27,0.4,2,180,0,0,0.4470295000000988,['y'],2.025303399999757,2.0,1061.4654495999998,,,,,525,19,Woman,Right,
,,,,,,,,,,,,,,,,,525,19,Woman,Right,1,6,1,1,180,-,180,1.1784003000002485,['y'],7.562172099999771,1.604,1073.3485864999998,,,,,525,19,Woman,Right,
,,,,,,,,,,,,,,,,,525,19,Woman,Right,1,72,0.15,1,0,-,180,1.4423558999997113,['y'],0.7957605000001422,1.536,1078.7485044,,,,,525,19,Woman,Right,
,,,,,,,,,,,,,,,,,525,19,Woman,Right,1,7,1,2,180,0,0,0.581298400000378,['y'],0.8686266999998224,2.0,1083.1144196999999,,,,,525,19,Woman,Right,
,,,,,,,,,,,,,,,,,525,19,Woman,Right,1,21,0.4,2,0,180,180,1.9105865000001359,['y'],1.0370626999997512,1.534,1089.1644174999997,,,,,525,19,Woman,Right,
,,,,,,,,,,,,,,,,,525,19,Woman,Right,1,39,0.4,2,180,0,0,0.45514030000003913,['y'],1.029963499999667,1.9020000000000001,1093.3985754,,,,,525,19,Woman,Right,
,,,,,,,,,,,,,,,,,525,19,Woman,Right,1,43,0.4,2,180,0,0,0.5917681999999331,['y'],0.6781496000003244,1.714,1097.4309868,,,,,525,19,Woman,Right,
,,,,,,,,,,,,,,,,,525,19,Woman,Right,1,33,0.4,2,0,180,180,0.32504700000026787,['y'],1.422854500000085,1.85,1102.0976906,,,,,525,19,Woman,Right,
,,,,,,,,,,,,,,,,,525,19,Woman,Right,1,44,0.15,1,0,-,0,0.7297276999997848,['n'],0.8630410000000666,1.48,1106.9810437,,,,,525,19,Woman,Right,
,,,,,,,,,,,,,,,,,525,19,Woman,Right,1,63,0.15,2,180,0,0,0.8531490000000304,['y'],1.0556141000001844,1.6280000000000001,1113.881491,,,,,525,19,Woman,Right,
,,,,,,,,,,,,,,,,,525,19,Woman,Right,1,45,0.15,2,0,180,180,1.362130999999863,['y'],0.7052148000002489,1.748,1118.9144868999997,,,,,525,19,Woman,Right,
,,,,,,,,,,,,,,,,,525,19,Woman,Right,1,36,0.4,1,0,-,180,1.6090280000003077,['y'],0.8820409999998446,1.762,1125.1310616,,,,,525,19,Woman,Right,
,,,,,,,,,,,,,,,,,525,19,Woman,Right,1,78,0.15,1,180,-,0,2.135171100000207,['n'],0.37058180000030916,1.08,1132.1477827999997,,,,,525,19,Woman,Right,
,,,,,,,,,,,,,,,,,525,19,Woman,Right,1,68,0.15,1,0,-,0,0.9262316000003921,['n'],0.7476670999999442,1.0,1138.0309425,,,,,525,19,Woman,Right,
,,,,,,,,,,,,,,,,,525,19,Woman,Right,1,64,0.15,1,0,-,180,1.449932600000011,['n'],1.1797738000000209,1.354,1143.8486475999998,,,,,525,19,Woman,Right,
,,,,,,,,,,,,,,,,,525,19,Woman,Right,1,26,0.4,1,180,-,180,0.44455569999990985,['n'],0.5964165000000321,1.692,1147.8650407999999,,,,,525,19,Woman,Right,
,,,,,,,,,,,,,,,,,525,19,Woman,Right,1,38,0.4,1,180,-,180,1.0412141000001611,['n'],1.0850140999996256,1.692,1152.9484361999998,,,,,525,19,Woman,Right,
,,,,,,,,,,,,,,,,,525,19,Woman,Right,1,9,0.4,2,0,180,180,0.6799337000002197,['y'],0.7102390000000014,1.846,1157.5642128999998,,,,,525,19,Woman,Right,
,,,,,,,,,,,,,,,,,525,19,Woman,Right,1,70,0.15,1,180,-,180,0.8606665000002067,['n'],0.406576700000187,1.334,1162.214868,,,,,525,19,Woman,Right,
,,,,,,,,,,,,,,,,,525,19,Woman,Right,1,51,0.15,2,180,0,0,0.7929692000002433,['n'],1.190914000000248,1.676,1167.664124,,,,,525,19,Woman,Right,
,,,,,,,,,,,,,,,,,525,19,Woman,Right,1,31,0.4,2,180,0,0,0.4530958999998802,['y'],1.2317195999999058,1.658,1172.3807456,,,,,525,19,Woman,Right,
,,,,,,,,,,,,,,,,,525,19,Woman,Right,1,76,0.15,1,0,-,180,2.7008247999997366,['n'],1.0198077000000012,1.1099999999999999,1178.9140434,,,,,525,19,Woman,Right,
,,,,,,,,,,,,,,,,,525,19,Woman,Right,1,4,1,1,0,-,0,0.5167344999999841,['n'],0.8416975000000093,1.824,1183.7981347999998,,,,,525,19,Woman,Right,
,,,,,,,,,,,,,,,,,525,19,Woman,Right,1,18,0.4,1,180,-,180,0.7976791999999477,['n'],0.826279699999759,1.866,1188.6806686999998,,,,,525,19,Woman,Right,
,,,,,,,,,,,,,,,,,525,19,Woman,Right,1,71,0.15,2,180,0,180,1.232915199999752,['n'],1.4108690000002753,1.384,1194.7307637999997,,,,,525,19,Woman,Right,
,,,,,,,,,,,,,,,,,525,19,Woman,Right,1,75,0.15,2,180,0,180,1.695089299999836,['n'],0.8039929999999913,1.4140000000000001,1200.4648072999998,,,,,525,19,Woman,Right,
,,,,,,,,,,,,,,,,,525,19,Woman,Right,1,47,0.15,2,180,0,0,0.3446924999998373,['y'],0.9721208000000843,1.892,1204.5807909,,,,,525,19,Woman,Right,
,,,,,,,,,,,,,,,,,525,19,Woman,Right,1,34,0.4,1,180,-,0,0.4339241000002403,['y'],0.8207870999999614,1.938,1208.6480616,,,,,525,19,Woman,Right,
,,,,,,,,,,,,,,,,,525,19,Woman,Right,1,20,0.4,1,0,-,0,0.3829894999998942,['n'],0.7012489999997342,1.924,1212.6146212999997,,,,,525,19,Woman,Right,
,,,,,,,,,,,,,,,,,525,19,Woman,Right,1,79,0.15,2,180,0,180,1.3002443000000312,['n'],0.9579454999998234,1.562,1217.9146022,,,,,525,19,Woman,Right,
,,,,,,,,,,,,,,,,,525,19,Woman,Right,1,42,0.4,1,180,-,180,0.8385462000001098,['n'],0.7267325999996501,1.95,1222.6307225,,,,,525,19,Woman,Right,
,,,,,,,,,,,,,,,,,525,19,Woman,Right,1,3,1,2,180,0,0,0.6556210000003375,['y'],1.2711371999998846,2.0,1227.4475518999998,,,,,525,19,Woman,Right,
,,,,,,,,,,,,,,,,,525,19,Woman,Right,1,40,0.4,1,0,-,0,1.2671962000003987,['n'],1.1518135999999686,1.92,1232.7483303999998,,,,,525,19,Woman,Right,
,,,,,,,,,,,,,,,,,525,19,Woman,Right,1,69,0.15,2,0,180,0,1.6234777999998187,['n'],1.912530400000378,1.8980000000000001,1239.130706,,,,,525,19,Woman,Right,
,,,,,,,,,,,,,,,,,525,19,Woman,Right,1,8,0.4,1,0,-,180,2.415567999999894,['n'],0.9613992999998118,1.274,1245.3305725,,,,,525,19,Woman,Right,
,,,,,,,,,,,,,,,,,525,19,Woman,Right,1,61,0.15,2,0,180,0,1.0420382000002064,['n'],0.6429631999999401,1.746,1249.9805956,,,,,525,19,Woman,Right,
,,,,,,,,,,,,,,,,,525,19,Woman,Right,1,24,0.4,1,0,-,0,0.9385713000001488,['n'],0.6268383999999969,1.262,1256.5471779999998,,,,,525,19,Woman,Right,
,,,,,,,,,,,,,,,,,525,19,Woman,Right,1,58,0.15,1,180,-,180,2.2687645999999404,['y'],1.0198672999999872,1.19,1262.998322,,,,,525,19,Woman,Right,
,,,,,,,,,,,,,,,,,525,19,Woman,Right,1,0,1,1,0,-,0,0.5171479999999065,['n'],0.4203468000000612,2.0,1267.0805959,,,,,525,19,Woman,Right,
,,,,,,,,,,,,,,,,,525,19,Woman,Right,1,62,0.15,1,180,-,0,1.3025624000001699,['y'],0.6773591000001034,1.504,1272.380658,,,,,525,19,Woman,Right,
,,,,,,,,,,,,,,,,,525,19,Woman,Right,1,2,1,1,180,-,180,0.9879818999997951,['n'],0.9976376999998138,2.0,1277.1304725,,,,,525,19,Woman,Right,
,,,,,,,,,,,,,,,,,525,19,Woman,Right,1,50,0.15,1,180,-,0,1.116419699999824,['y'],0.6229020999999193,1.5739999999999998,1281.8470397,,,,,525,19,Woman,Right,
,,,,,,,,,,,,,,,,,525,19,Woman,Right,1,13,0.4,2,0,180,180,0.7616396000003078,['y'],0.5671763999998802,1.826,1286.1303896,,,,,525,19,Woman,Right,
,,,,,,,,,,,,,,,,,525,19,Woman,Right,1,53,0.15,2,0,180,180,0.7255303000001732,['y'],0.9922268000000258,1.704,1290.8148231999999,,,,,525,19,Woman,Right,
,,,,,,,,,,,,,,,,,525,19,Woman,Right,1,48,0.15,1,0,-,180,0.44480750000002445,['y'],0.7921676000000843,1.806,1294.8809133999998,,,,,525,19,Woman,Right,
,,,,,,,,,,,,,,,,,525,19,Woman,Right,1,30,0.4,1,180,-,180,1.9826880000000529,['n'],0.872750200000155,1.512,1301.5470913999998,,,,,525,19,Woman,Right,
,,,,,,,,,,,,,,,,,525,19,Woman,Right,1,41,0.4,2,0,180,180,1.321047500000077,['y'],1.0980737999998382,2.0,1306.6137678999999,,,,,525,19,Woman,Right,
,,,,,,,,,,,,,,,,,525,19,Woman,Right,1,65,0.15,2,0,180,180,1.4371532000000116,['y'],0.706278999999995,1.8980000000000001,1311.8814895,,,,,525,19,Woman,Right,
,,,,,,,,,,,,,,,,,525,19,Woman,Right,1,77,0.15,2,0,180,180,1.5002435999999761,['y'],0.9995395000000826,1.5819999999999999,1318.3304180999999,,,,,525,19,Woman,Right,
,,,,,,,,,,,,,,,,,525,19,Woman,Right,1,37,0.4,2,0,180,180,0.4087242000000515,['y'],0.9164376000003358,2.0,1322.3136756,,,,,525,19,Woman,Right,
,,,,,,,,,,,,,,,,,525,19,Woman,Right,1,59,0.15,2,180,0,0,1.0559902999998485,['y'],0.6123585999998795,1.782,1326.7143594999998,,,,,525,19,Woman,Right,
,,,,,,,,,,,,,,,,,525,19,Woman,Right,1,12,0.4,1,0,-,180,3.2970101000000795,['y'],0.5490101000000323,1.876,1333.4303772999997,,,,,525,19,Woman,Right,
,,,,,,,,,,,,,,,,,525,19,Woman,Right,1,16,0.4,1,0,-,0,0.9848879999999554,['n'],0.6623058000000128,1.58,1338.2143228,,,,,525,19,Woman,Right,
,,,,,,,,,,,,,,,,,525,19,Woman,Right,1,15,0.4,2,180,0,0,0.6444000999999844,['y'],0.7186774999995578,1.8860000000000001,1342.6478828999998,,,,,525,19,Woman,Right,
,,,,,,,,,,,,,,,,,525,19,Woman,Right,1,73,0.15,2,0,180,180,0.9495091999997385,['y'],0.6553140999999414,1.686,1348.7643364,,,,,525,19,Woman,Right,
,,,,,,,,,,,,,,,,,525,19,Woman,Right,1,1,1,2,0,180,180,0.7331616999999824,['y'],1.032570300000316,1.842,1353.4634421,,,,,525,19,Woman,Right,
,,,,,,,,,,,,,,,,,525,19,Woman,Right,1,67,0.15,2,180,0,0,1.11684570000034,['n'],0.4996209999999337,1.714,1358.2801547,,,,,525,19,Woman,Right,
,,,,,,,,,,,,,,,,,525,19,Woman,Right,1,11,0.4,2,180,0,0,0.9357082999999875,['y'],1.0734983000002103,1.972,1363.5469662,,,,,525,19,Woman,Right,
,,,,,,,,,,,,,,,,,525,19,Woman,Right,1,55,0.15,2,180,0,180,2.649700400000256,['n'],1.2663720999998986,1.788,1370.3970908000001,,,,,525,19,Woman,Right,
,,,,,,,,,,,,,,,,,525,19,Woman,Right,1,46,0.15,1,180,-,0,1.4830014000003757,['n'],0.36305369999990944,1.262,1376.0303494,,,,,525,19,Woman,Right,
,,,,,,,,,,,,,,,,,525,19,Woman,Right,1,66,0.15,1,180,-,180,0.8531944000001204,['n'],0.4917313999999351,1.078,1380.2302172999998,,,,,525,19,Woman,Right,
,,,,,,,,,,,,,,,,,525,19,Woman,Right,1,49,0.15,2,0,180,180,1.2071335999999064,['y'],0.8284137000000555,1.6320000000000001,1385.2469453999997,,,,,525,19,Woman,Right,
,,,,,,,,,,,,,,,,,525,19,Woman,Right,1,25,0.4,2,0,180,180,0.8771012000001974,['y'],0.8612646999999924,1.5899999999999999,1389.9135679,,,,,525,19,Woman,Right,
,,,,,,,,,,,,,,,,,525,19,Woman,Right,1,14,0.4,1,180,-,180,0.9783630000001722,['n'],1.1890803000001142,1.8479999999999999,1395.0800743999998,,,,,525,19,Woman,Right,
,,,,,,,,,,,,,,,,,525,19,Woman,Right,1,10,0.4,1,180,-,180,0.8294780000001083,['n'],0.8295305000001463,1.834,1399.6801065999998,,,,,525,19,Woman,Right,
,,,,,,,,,,,,,,,,,525,19,Woman,Right,1,5,1,2,0,180,180,0.7190844000001562,['y'],0.6789278999999624,1.8639999999999999,1404.3637048,,,,,525,19,Woman,Right,
,,,,,,,,,,,,,,,,,525,19,Woman,Right,1,23,0.4,2,180,0,0,0.4331901000000471,['y'],0.7271028999998634,2.0,1408.6800665,,,,,525,19,Woman,Right,
,,,,,,,,,,,,,,,,,525,19,Woman,Right,1,29,0.4,2,0,180,180,0.5126838000001044,['y'],0.6723998000002211,1.896,1413.1301785,,,,,525,19,Woman,Right,
,,,,,,,,,,,,,,,,,525,19,Woman,Right,1,54,0.15,1,180,-,180,0.5502211000002717,['n'],0.6452131000000918,1.706,1417.5300659999998,,,,,525,19,Woman,Right,
,,,,,,,,,,,,,,,,,525,19,Woman,Right,1,57,0.15,2,0,180,0,1.4859050000000025,['n'],0.9855461000001924,1.198,1423.1301853999998,,,,,525,19,Woman,Right,
,,,,,,,,,,,,,,,,,525,19,Woman,Right,2,17,0.4,2,0,180,180,0.5124485999999706,['y'],1.04500760000019,1.764,1453.8965663999998,73.75,77.5,77.5,,525,19,Woman,Right,
,,,,,,,,,,,,,,,,,525,19,Woman,Right,2,76,0.15,1,0,-,0,1.2799113999999463,['n'],0.3979927000000316,1.514,1459.1972216,,,,,525,19,Woman,Right,
,,,,,,,,,,,,,,,,,525,19,Woman,Right,2,42,0.4,1,180,-,180,0.8446864000002279,['n'],0.39825820000032763,1.752,1463.9972626999997,,,,,525,19,Woman,Right,
,,,,,,,,,,,,,,,,,525,19,Woman,Right,2,59,0.15,2,180,0,0,0.4702520999999251,['y'],0.5504853000002186,1.766,1467.5799413,,,,,525,19,Woman,Right,
,,,,,,,,,,,,,,,,,525,19,Woman,Right,2,40,0.4,1,0,-,0,1.4151754999998047,['n'],0.38380030000007537,1.8719999999999999,1472.4470876,,,,,525,19,Woman,Right,
,,,,,,,,,,,,,,,,,525,19,Woman,Right,2,34,0.4,1,180,-,0,2.726908000000094,['n'],0.736624799999845,1.616,1479.0647912999998,,,,,525,19,Woman,Right,
,,,,,,,,,,,,,,,,,525,19,Woman,Right,2,45,0.15,2,0,180,0,0.9270363000000543,['n'],0.34493560000009893,1.784,1483.0300026,,,,,525,19,Woman,Right,
,,,,,,,,,,,,,,,,,525,19,Woman,Right,2,74,0.15,1,180,-,0,1.184084200000143,['n'],0.8899062000000413,1.294,1489.1298318999998,,,,,525,19,Woman,Right,
,,,,,,,,,,,,,,,,,525,19,Woman,Right,2,35,0.4,2,180,0,0,1.7852912999996988,['y'],1.3551699999998164,1.912,1496.2470573,,,,,525,19,Woman,Right,
,,,,,,,,,,,,,,,,,525,19,Woman,Right,2,1,1,2,0,180,180,1.0359324000000925,['y'],0.5476085999998759,2.0,1500.7301391,,,,,525,19,Woman,Right,
,,,,,,,,,,,,,,,,,525,19,Woman,Right,2,22,0.4,1,180,-,0,0.9810651000002508,['y'],1.0043024000001424,1.72,1505.6297946999998,,,,,525,19,Woman,Right,
,,,,,,,,,,,,,,,,,525,19,Woman,Right,2,47,0.15,2,180,0,0,0.8074621000000661,['n'],0.40496570000004795,1.874,1509.7147209999998,,,,,525,19,Woman,Right,
,,,,,,,,,,,,,,,,,525,19,Woman,Right,2,56,0.15,1,0,-,0,1.0708444000001691,['y'],1.1175327000000834,1.566,1514.8797297,,,,,525,19,Woman,Right,
,,,,,,,,,,,,,,,,,525,19,Woman,Right,2,46,0.15,1,180,-,0,0.9812112999998135,['n'],0.9431177000001298,1.268,1520.2963608999999,,,,,525,19,Woman,Right,
,,,,,,,,,,,,,,,,,525,19,Woman,Right,2,48,0.15,1,0,-,180,0.5293856999996933,['n'],0.6948843000000124,1.914,1525.0963914999998,,,,,525,19,Woman,Right,
,,,,,,,,,,,,,,,,,525,19,Woman,Right,2,30,0.4,1,180,-,180,0.5875982999996268,['n'],0.5510981000002175,1.698,1529.9974029,,,,,525,19,Woman,Right,
,,,,,,,,,,,,,,,,,525,19,Woman,Right,2,26,0.4,1,180,-,0,0.5175851999997576,['y'],0.8324967000003198,1.338,1534.5130516999998,,,,,525,19,Woman,Right,
,,,,,,,,,,,,,,,,,525,19,Woman,Right,2,31,0.4,2,180,0,0,0.850888599999962,['y'],0.8159376000003249,1.528,1539.3970068999997,,,,,525,19,Woman,Right,
,,,,,,,,,,,,,,,,,525,19,Woman,Right,2,23,0.4,2,180,0,0,1.424069099999997,['n'],0.529468100000031,1.304,1544.8800355999997,,,,,525,19,Woman,Right,
,,,,,,,,,,,,,,,,,525,19,Woman,Right,2,69,0.15,2,0,180,180,1.0200995999998668,['y'],0.5785649999997986,1.3780000000000001,1549.4462178999997,,,,,525,19,Woman,Right,
,,,,,,,,,,,,,,,,,525,19,Woman,Right,2,6,1,1,180,-,180,0.5155321000002004,['n'],1.4752957000000606,1.714,1554.3130154,,,,,525,19,Woman,Right,
,,,,,,,,,,,,,,,,,525,19,Woman,Right,2,64,0.15,1,0,-,180,1.1773498000002292,['y'],1.8591246000000865,1.546,1560.6139940999997,,,,,525,19,Woman,Right,
,,,,,,,,,,,,,,,,,525,19,Woman,Right,2,29,0.4,2,0,180,180,0.5078966000000946,['y'],2.3814164000000346,1.6600000000000001,1566.2631557999998,,,,,525,19,Woman,Right,
,,,,,,,,,,,,,,,,,525,19,Woman,Right,2,58,0.15,1,180,-,180,0.987998399999924,['y'],0.43624610000006214,1.0,1572.563654,,,,,525,19,Woman,Right,
,,,,,,,,,,,,,,,,,525,19,Woman,Right,2,73,0.15,2,0,180,0,0.3702330000000984,['n'],0.6209552999998778,1.516,1576.5967007,,,,,525,19,Woman,Right,
,,,,,,,,,,,,,,,,,525,19,Woman,Right,2,39,0.4,2,180,0,0,0.42693259999987276,['y'],0.9507105999996384,1.832,1581.6636755,,,,,525,19,Woman,Right,
,,,,,,,,,,,,,,,,,525,19,Woman,Right,2,78,0.15,1,180,-,0,0.4942692999998144,['y'],0.4949901999998474,1.714,1585.6462084,,,,,525,19,Woman,Right,
,,,,,,,,,,,,,,,,,525,19,Woman,Right,2,33,0.4,2,0,180,180,0.4237097999998696,['y'],0.6153907000002619,1.792,1589.6970449,,,,,525,19,Woman,Right,
,,,,,,,,,,,,,,,,,525,19,Woman,Right,2,44,0.15,1,0,-,0,0.42652200000020457,['n'],0.567814399999861,1.9060000000000001,1593.5462066999999,,,,,525,19,Woman,Right,
,,,,,,,,,,,,,,,,,525,19,Woman,Right,2,37,0.4,2,0,180,180,0.3364430999999968,['y'],1.2972828999995727,1.84,1598.0638024999998,,,,,525,19,Woman,Right,
,,,,,,,,,,,,,,,,,525,19,Woman,Right,2,49,0.15,2,0,180,0,1.7872341000002052,['n'],0.48131340000009004,1.562,1603.2128801999997,,,,,525,19,Woman,Right,
,,,,,,,,,,,,,,,,,525,19,Woman,Right,2,20,0.4,1,0,-,0,0.9415058999998109,['n'],1.0986925999995947,1.926,1608.396122,,,,,525,19,Woman,Right,
,,,,,,,,,,,,,,,,,525,19,Woman,Right,2,72,0.15,1,0,-,0,1.6816693999999188,['n'],0.9950054000000819,1.0939999999999999,1614.0798049999999,,,,,525,19,Woman,Right,
,,,,,,,,,,,,,,,,,525,19,Woman,Right,2,54,0.15,1,180,-,180,1.4685218999998142,['n'],0.38749660000030417,1.21,1619.1967458,,,,,525,19,Woman,Right,
,,,,,,,,,,,,,,,,,525,19,Woman,Right,2,51,0.15,2,180,0,0,1.9740851000001385,['y'],0.43656609999970897,1.0,1624.4304256,,,,,525,19,Woman,Right,
,,,,,,,,,,,,,,,,,525,19,Woman,Right,2,15,0.4,2,180,0,0,0.5585614999999962,['y'],1.2365866000000096,1.8639999999999999,1630.0295778999998,,,,,525,19,Woman,Right,
,,,,,,,,,,,,,,,,,525,19,Woman,Right,2,10,0.4,1,180,-,180,1.344017299999905,['n'],0.6299386000000595,1.704,1636.4632982999997,,,,,525,19,Woman,Right,
,,,,,,,,,,,,,,,,,525,19,Woman,Right,2,18,0.4,1,180,-,180,0.7998538000001645,['n'],0.7419594000002689,1.776,1640.7461174999999,,,,,525,19,Woman,Right,
,,,,,,,,,,,,,,,,,525,19,Woman,Right,2,41,0.4,2,0,180,180,0.5364030000000639,['y'],1.062988900000164,1.8519999999999999,1645.7962604999998,,,,,525,19,Woman,Right,
,,,,,,,,,,,,,,,,,525,19,Woman,Right,2,71,0.15,2,180,0,180,1.1360242999999173,['n'],0.6709399999999732,1.806,1650.4959558,,,,,525,19,Woman,Right,
,,,,,,,,,,,,,,,,,525,19,Woman,Right,2,61,0.15,2,0,180,180,0.9227645000000848,['y'],0.5358108999998876,1.616,1654.7626550999998,,,,,525,19,Woman,Right,
,,,,,,,,,,,,,,,,,525,19,Woman,Right,2,19,0.4,2,180,0,0,0.31668679999984306,['y'],0.9370610000000852,1.786,1658.6135909999998,,,,,525,19,Woman,Right,
,,,,,,,,,,,,,,,,,525,19,Woman,Right,2,66,0.15,1,180,-,0,1.1310100000000602,['y'],1.2332205000002432,1.04,1664.1626570999997,,,,,525,19,Woman,Right,
,,,,,,,,,,,,,,,,,525,19,Woman,Right,2,43,0.4,2,180,0,0,0.585189100000207,['y'],0.6341302999999243,1.696,1668.9466444,,,,,525,19,Woman,Right,
,,,,,,,,,,,,,,,,,525,19,Woman,Right,2,12,0.4,1,0,-,0,0.49135700000033466,['n'],0.6905148000000736,1.76,1672.7793821999999,,,,,525,19,Woman,Right,
,,,,,,,,,,,,,,,,,525,19,Woman,Right,2,50,0.15,1,180,-,180,1.284260599999925,['y'],0.6527656999996907,1.0,1677.646091,,,,,525,19,Woman,Right,
,,,,,,,,,,,,,,,,,525,19,Woman,Right,2,55,0.15,2,180,0,180,0.8705688999998529,['n'],1.1561860000001616,1.116,1682.7459163999997,,,,,525,19,Woman,Right,
,,,,,,,,,,,,,,,,,525,19,Woman,Right,2,38,0.4,1,180,-,180,1.8919691999999486,['n'],0.5563362000002599,1.154,1688.2465459,,,,,525,19,Woman,Right,
,,,,,,,,,,,,,,,,,525,19,Woman,Right,2,5,1,2,0,180,180,0.3944359000001896,['y'],1.42113449999988,2.0,1693.7968625999997,,,,,525,19,Woman,Right,
,,,,,,,,,,,,,,,,,525,19,Woman,Right,2,62,0.15,1,180,-,0,1.097207900000285,['n'],0.5107192000000396,1.346,1698.7958691,,,,,525,19,Woman,Right,
,,,,,,,,,,,,,,,,,525,19,Woman,Right,2,27,0.4,2,180,0,0,0.6709661999998389,['y'],0.8462805999997727,1.946,1703.0464428,,,,,525,19,Woman,Right,
,,,,,,,,,,,,,,,,,525,19,Woman,Right,2,36,0.4,1,0,-,0,0.44812809999984893,['n'],0.6394740000000638,1.728,1707.0798796999998,,,,,525,19,Woman,Right,
,,,,,,,,,,,,,,,,,525,19,Woman,Right,2,13,0.4,2,0,180,0,0.9049903000000086,['n'],0.566802700000153,1.616,1711.3458406999998,,,,,525,19,Woman,Right,
,,,,,,,,,,,,,,,,,525,19,Woman,Right,2,57,0.15,2,0,180,180,2.028810099999646,['y'],0.8483177999996769,1.384,1717.4467678,,,,,525,19,Woman,Right,
,,,,,,,,,,,,,,,,,525,19,Woman,Right,2,75,0.15,2,180,0,0,1.0282287999998516,['y'],1.3130716000000575,1.366,1723.6624997,,,,,525,19,Woman,Right,
,,,,,,,,,,,,,,,,,525,19,Woman,Right,2,7,1,2,180,0,0,0.821933799999897,['y'],0.5621930999996039,2.0,1728.0463369,,,,,525,19,Woman,Right,
,,,,,,,,,,,,,,,,,525,19,Woman,Right,2,24,0.4,1,0,-,0,0.5081743000000642,['n'],0.5787820999998985,1.634,1731.9624045,,,,,525,19,Woman,Right,
,,,,,,,,,,,,,,,,,525,19,Woman,Right,2,77,0.15,2,0,180,0,3.3166540000001987,['n'],0.7955920999997943,1.32,1740.2631735,,,,,525,19,Woman,Right,
,,,,,,,,,,,,,,,,,525,19,Woman,Right,2,28,0.4,1,0,-,0,0.8385195999999269,['n'],0.42783849999977974,1.728,1744.2456500999997,,,,,525,19,Woman,Right,
,,,,,,,,,,,,,,,,,525,19,Woman,Right,2,16,0.4,1,0,-,0,0.570914900000389,['n'],0.46101409999982934,1.674,1747.9801263999998,,,,,525,19,Woman,Right,
,,,,,,,,,,,,,,,,,525,19,Woman,Right,2,70,0.15,1,180,-,180,0.9046311000001879,['n'],0.49335770000016055,1.728,1752.545666,,,,,525,19,Woman,Right,
,,,,,,,,,,,,,,,,,525,19,Woman,Right,2,8,0.4,1,0,-,0,0.4807626000001619,['n'],0.39824849999968137,1.6520000000000001,1756.3290321999998,,,,,525,19,Woman,Right,
,,,,,,,,,,,,,,,,,525,19,Woman,Right,2,2,1,1,180,-,180,0.6102138999999625,['n'],0.9745342999999593,2.0,1760.7131596999998,,,,,525,19,Woman,Right,
,,,,,,,,,,,,,,,,,525,19,Woman,Right,2,52,0.15,1,0,-,0,1.2813544000000547,['n'],1.2556529000003138,1.514,1765.9961542,,,,,525,19,Woman,Right,
,,,,,,,,,,,,,,,,,525,19,Woman,Right,2,11,0.4,2,180,0,0,1.2921206000000893,['y'],0.9442720000001827,1.68,1771.8629852999998,,,,,525,19,Woman,Right,
,,,,,,,,,,,,,,,,,525,19,Woman,Right,2,4,1,1,0,-,0,0.6458334999997533,['n'],0.7685459999997875,1.974,1776.4295972999998,,,,,525,19,Woman,Right,
,,,,,,,,,,,,,,,,,525,19,Woman,Right,2,65,0.15,2,0,180,180,1.0668993999997838,['y'],0.45555549999971845,1.534,1781.1288829,,,,,525,19,Woman,Right,
,,,,,,,,,,,,,,,,,525,19,Woman,Right,2,60,0.15,1,0,-,0,1.2688532000001942,['n'],0.5533322000001135,1.204,1786.7789435999998,,,,,525,19,Woman,Right,
,,,,,,,,,,,,,,,,,525,19,Woman,Right,2,53,0.15,2,0,180,180,0.9467670999997608,['y'],1.2506751999999324,1.146,1792.4290286,,,,,525,19,Woman,Right,
,,,,,,,,,,,,,,,,,525,19,Woman,Right,2,9,0.4,2,0,180,180,0.662053300000025,['y'],1.059121899999809,1.486,1797.1129449,,,,,525,19,Woman,Right,
,,,,,,,,,,,,,,,,,525,19,Woman,Right,2,3,1,2,180,0,0,0.3858608999998978,['y'],0.8200603999998748,1.926,1801.1788149,,,,,525,19,Woman,Right,
,,,,,,,,,,,,,,,,,525,19,Woman,Right,2,68,0.15,1,0,-,180,1.2237967000000936,['n'],0.6119229999999334,1.172,1806.5622226,,,,,525,19,Woman,Right,
,,,,,,,,,,,,,,,,,525,19,Woman,Right,2,21,0.4,2,0,180,180,1.1218908999999258,['y'],0.548930499999642,1.8439999999999999,1811.2462348,,,,,525,19,Woman,Right,
,,,,,,,,,,,,,,,,,525,19,Woman,Right,2,67,0.15,2,180,0,0,0.7233393999999862,['n'],1.0618147000000135,1.12,1815.9954926,,,,,525,19,Woman,Right,
,,,,,,,,,,,,,,,,,525,19,Woman,Right,2,25,0.4,2,0,180,180,0.6740116999999373,['y'],0.5654316000000108,1.416,1820.3956479999997,,,,,525,19,Woman,Right,
,,,,,,,,,,,,,,,,,525,19,Woman,Right,2,63,0.15,2,180,0,0,0.6613096000000951,['y'],0.7424558000002435,1.3559999999999999,1824.3123996999998,,,,,525,19,Woman,Right,
,,,,,,,,,,,,,,,,,525,19,Woman,Right,2,0,1,1,0,-,0,0.5019540000002962,['n'],1.0954255999999987,1.866,1829.0454437999997,,,,,525,19,Woman,Right,
,,,,,,,,,,,,,,,,,525,19,Woman,Right,2,79,0.15,2,180,0,0,1.0826106999998046,['n'],0.35214589999986856,1.3479999999999999,1833.3132845999999,,,,,525,19,Woman,Right,
,,,,,,,,,,,,,,,,,525,19,Woman,Right,2,14,0.4,1,180,-,180,0.5783605000001444,['n'],0.6331458999998176,1.666,1837.2460671,,,,,525,19,Woman,Right,
,,,,,,,,,,,,,,,,,525,19,Woman,Right,2,32,0.4,1,0,-,0,0.38354789999993955,['n'],0.6742024000000129,1.782,1841.3627831999997,,,,,525,19,Woman,Right,
,,,,,,,,,,,,,,,,,525,19,Woman,Right,3,54,0.15,1,180,-,180,1.7167488000000048,['n'],0.807918299999983,1.288,1861.4786930999999,77.5,80.0,72.5,,525,19,Woman,Right,
,,,,,,,,,,,,,,,,,525,19,Woman,Right,3,49,0.15,2,0,180,0,1.052425299999868,['n'],2.1007262999996783,1.1059999999999999,1867.9961485,,,,,525,19,Woman,Right,
,,,,,,,,,,,,,,,,,525,19,Woman,Right,3,57,0.15,2,0,180,0,0.4078543000000536,['n'],0.36480260000007547,1.452,1871.6127492,,,,,525,19,Woman,Right,
,,,,,,,,,,,,,,,,,525,19,Woman,Right,3,44,0.15,1,0,-,0,1.2466819000001124,['n'],1.2298886999997194,1.226,1877.3786442,,,,,525,19,Woman,Right,
,,,,,,,,,,,,,,,,,525,19,Woman,Right,3,9,0.4,2,0,180,180,0.7698397999997724,['y'],0.7743582999996761,1.744,1881.7285723999998,,,,,525,19,Woman,Right,
,,,,,,,,,,,,,,,,,525,19,Woman,Right,3,52,0.15,1,0,-,180,1.20515290000003,['y'],0.6151076000001012,1.502,1886.4958588,,,,,525,19,Woman,Right,
,,,,,,,,,,,,,,,,,525,19,Woman,Right,3,18,0.4,1,180,-,180,1.036880299999666,['n'],0.5358640999997988,1.588,1891.2454192999999,,,,,525,19,Woman,Right,
,,,,,,,,,,,,,,,,,525,19,Woman,Right,3,38,0.4,1,180,-,180,0.6896057000003566,['n'],0.7601387999998224,1.626,1895.962813,,,,,525,19,Woman,Right,
,,,,,,,,,,,,,,,,,525,19,Woman,Right,3,32,0.4,1,0,-,0,0.6332072999998672,['n'],0.6636933999998291,1.5779999999999998,1900.1296035,,,,,525,19,Woman,Right,
,,,,,,,,,,,,,,,,,525,19,Woman,Right,3,10,0.4,1,180,-,180,1.5514415000002373,['n'],0.5136993000000984,1.196,1905.2452451999998,,,,,525,19,Woman,Right,
,,,,,,,,,,,,,,,,,525,19,Woman,Right,3,59,0.15,2,180,0,0,0.38818899999978385,['n'],0.546065400000316,1.616,1909.1785449,,,,,525,19,Woman,Right,
,,,,,,,,,,,,,,,,,525,19,Woman,Right,3,74,0.15,1,180,-,0,0.3397957000001952,['n'],0.8035079999999653,1.5899999999999999,1913.2797004,,,,,525,19,Woman,Right,
,,,,,,,,,,,,,,,,,525,19,Woman,Right,3,78,0.15,1,180,-,0,1.3177098999999544,['n'],0.4350728999997955,1.55,1917.6624069999998,,,,,525,19,Woman,Right,
,,,,,,,,,,,,,,,,,525,19,Woman,Right,3,7,1,2,180,0,0,1.7959913999998207,['y'],0.9241995000002134,1.92,1923.4785026,,,,,525,19,Woman,Right,
,,,,,,,,,,,,,,,,,525,19,Woman,Right,3,27,0.4,2,180,0,0,1.2168849999998201,['n'],0.6607023000001391,1.264,1930.2628922,,,,,525,19,Woman,Right,
,,,,,,,,,,,,,,,,,525,19,Woman,Right,3,62,0.15,1,180,-,180,1.80509579999989,['y'],0.6454367000001184,1.454,1935.7958106,,,,,525,19,Woman,Right,
,,,,,,,,,,,,,,,,,525,19,Woman,Right,3,29,0.4,2,0,180,180,0.6776948000001539,['y'],0.8542729000000691,1.83,1940.2284046,,,,,525,19,Woman,Right,
,,,,,,,,,,,,,,,,,525,19,Woman,Right,3,31,0.4,2,180,0,0,0.3844984000002114,['y'],0.7009929000000739,2.0,1944.5450842999999,,,,,525,19,Woman,Right,
,,,,,,,,,,,,,,,,,525,19,Woman,Right,3,13,0.4,2,0,180,180,0.39140610000004017,['y'],0.7035276999999951,1.704,1948.3295709999998,,,,,525,19,Woman,Right,
,,,,,,,,,,,,,,,,,525,19,Woman,Right,3,2,1,1,180,-,180,1.1022577999997338,['n'],0.6400942999998733,1.922,1953.4789348,,,,,525,19,Woman,Right,
,,,,,,,,,,,,,,,,,525,19,Woman,Right,3,45,0.15,2,0,180,180,0.9223583999996663,['n'],0.391701699999885,1.604,1957.6283825,,,,,525,19,Woman,Right,
,,,,,,,,,,,,,,,,,525,19,Woman,Right,3,23,0.4,2,180,0,0,0.9504327999998168,['n'],1.3706827999999405,1.634,1962.8788765,,,,,525,19,Woman,Right,
,,,,,,,,,,,,,,,,,525,19,Woman,Right,3,39,0.4,2,180,0,0,0.9399668999999449,['y'],0.4982098999998925,1.8679999999999999,1967.1116600999999,,,,,525,19,Woman,Right,
,,,,,,,,,,,,,,,,,525,19,Woman,Right,3,70,0.15,1,180,-,180,0.7961294000001544,['n'],0.4098671000001559,1.826,1971.1293683999997,,,,,525,19,Woman,Right,
,,,,,,,,,,,,,,,,,525,19,Woman,Right,3,40,0.4,1,0,-,0,0.6396464000004016,['n'],0.659382899999855,1.67,1975.5783821999999,,,,,525,19,Woman,Right,
,,,,,,,,,,,,,,,,,525,19,Woman,Right,3,33,0.4,2,0,180,180,0.6841128000000936,['y'],0.7711633999997503,1.73,1980.0799541000001,,,,,525,19,Woman,Right,
,,,,,,,,,,,,,,,,,525,19,Woman,Right,3,68,0.15,1,0,-,0,0.7555919000001268,['y'],0.42033420000007027,1.0,1984.3616266999998,,,,,525,19,Woman,Right,
,,,,,,,,,,,,,,,,,525,19,Woman,Right,3,61,0.15,2,0,180,180,1.6442630999999892,['y'],0.38067180000007284,1.23,1989.6784755999997,,,,,525,19,Woman,Right,
,,,,,,,,,,,,,,,,,525,19,Woman,Right,3,55,0.15,2,180,0,0,1.1710926000000654,['y'],0.6053085999997165,1.588,1994.3615706,,,,,525,19,Woman,Right,
,,,,,,,,,,,,,,,,,525,19,Woman,Right,3,42,0.4,1,180,-,180,1.0491965000001073,['n'],0.5982364999999845,1.684,1999.3950412,,,,,525,19,Woman,Right,
,,,,,,,,,,,,,,,,,525,19,Woman,Right,3,41,0.4,2,0,180,180,1.1144368999998733,['y'],0.7508380000003854,1.546,2003.9283,,,,,525,19,Woman,Right,
,,,,,,,,,,,,,,,,,525,19,Woman,Right,3,77,0.15,2,0,180,180,2.314130699999623,['y'],0.6876256000000467,1.546,2009.5294817,,,,,525,19,Woman,Right,
,,,,,,,,,,,,,,,,,525,19,Woman,Right,3,76,0.15,1,0,-,0,0.9641166000001249,['y'],0.992070099999637,1.258,2015.0954637,,,,,525,19,Woman,Right,
,,,,,,,,,,,,,,,,,525,19,Woman,Right,3,58,0.15,1,180,-,180,0.8707540999998855,['n'],0.8006143999996311,1.554,2019.661509,,,,,525,19,Woman,Right,
,,,,,,,,,,,,,,,,,525,19,Woman,Right,3,35,0.4,2,180,0,0,0.5163966000000073,['y'],1.7532023999997364,1.854,2025.0447872999998,,,,,525,19,Woman,Right,
,,,,,,,,,,,,,,,,,525,19,Woman,Right,3,0,1,1,0,-,0,0.700180199999977,['n'],1.3862882000003083,2.0,2030.0114671000001,,,,,525,19,Woman,Right,
,,,,,,,,,,,,,,,,,525,19,Woman,Right,3,63,0.15,2,180,0,180,0.9030740000002879,['n'],1.3062708000002203,1.5859999999999999,2035.0457164999998,,,,,525,19,Woman,Right,
,,,,,,,,,,,,,,,,,525,19,Woman,Right,3,51,0.15,2,180,0,0,1.2708746999996947,['y'],0.9078528000000006,1.018,2041.6454590999997,,,,,525,19,Woman,Right,
,,,,,,,,,,,,,,,,,525,19,Woman,Right,3,8,0.4,1,0,-,0,0.40017870000019684,['n'],0.9963529000001472,1.85,2046.2124881999998,,,,,525,19,Woman,Right,
,,,,,,,,,,,,,,,,,525,19,Woman,Right,3,17,0.4,2,0,180,0,0.6731134999999995,['n'],0.7891644000001179,1.862,2050.6793993,,,,,525,19,Woman,Right,
,,,,,,,,,,,,,,,,,525,19,Woman,Right,3,67,0.15,2,180,0,180,0.817121699999916,['n'],0.5893031000000519,1.5819999999999999,2056.6126129,,,,,525,19,Woman,Right,
,,,,,,,,,,,,,,,,,525,19,Woman,Right,3,15,0.4,2,180,0,0,0.6680741000000125,['y'],0.973960100000113,1.718,2062.5614034,,,,,525,19,Woman,Right,
,,,,,,,,,,,,,,,,,525,19,Woman,Right,3,3,1,2,180,0,0,0.7187659999999596,['y'],0.4152518000000782,2.0,2067.0955039,,,,,525,19,Woman,Right,
,,,,,,,,,,,,,,,,,525,19,Woman,Right,3,28,0.4,1,0,-,0,1.329331700000239,['n'],0.4717636999998831,1.682,2071.8952845999997,,,,,525,19,Woman,Right,
,,,,,,,,,,,,,,,,,525,19,Woman,Right,3,50,0.15,1,180,-,0,0.8902930999997807,['n'],0.6959907000000385,1.534,2076.3113475,,,,,525,19,Woman,Right,
,,,,,,,,,,,,,,,,,525,19,Woman,Right,3,66,0.15,1,180,-,180,0.8500275000001238,['y'],0.3296285000001262,1.018,2080.6945708,,,,,525,19,Woman,Right,
,,,,,,,,,,,,,,,,,525,19,Woman,Right,3,60,0.15,1,0,-,0,0.4618811000000278,['n'],0.7609588999998778,1.3679999999999999,2085.1286116,,,,,525,19,Woman,Right,
,,,,,,,,,,,,,,,,,525,19,Woman,Right,3,36,0.4,1,0,-,0,1.5695978000003379,['n'],0.6978949999997894,1.244,2090.47873,,,,,525,19,Woman,Right,
,,,,,,,,,,,,,,,,,525,19,Woman,Right,3,53,0.15,2,0,180,180,0.5417500000003201,['n'],0.4590635999998085,1.408,2094.2613060999997,,,,,525,19,Woman,Right,
,,,,,,,,,,,,,,,,,525,19,Woman,Right,3,22,0.4,1,180,-,180,0.7108957000000373,['n'],0.8589952000002086,1.3,2099.0120646,,,,,525,19,Woman,Right,
,,,,,,,,,,,,,,,,,525,19,Woman,Right,3,46,0.15,1,180,-,180,1.7829529000000548,['n'],0.4923934999997073,1.3719999999999999,2104.4457425,,,,,525,19,Woman,Right,
,,,,,,,,,,,,,,,,,525,19,Woman,Right,3,1,1,2,0,180,180,0.6406630999999834,['y'],0.9247017999996388,2.0,2109.6121746999997,,,,,525,19,Woman,Right,
,,,,,,,,,,,,,,,,,525,19,Woman,Right,3,34,0.4,1,180,-,180,0.5359427000003052,['n'],0.5733474000003298,1.608,2113.4286472999997,,,,,525,19,Woman,Right,
,,,,,,,,,,,,,,,,,525,19,Woman,Right,3,30,0.4,1,180,-,180,0.6550446000001102,['n'],0.35740050000003976,1.436,2117.228615,,,,,525,19,Woman,Right,
,,,,,,,,,,,,,,,,,525,19,Woman,Right,3,26,0.4,1,180,-,180,0.41636349999998856,['n'],0.7340162000000419,1.436,2121.1285909999997,,,,,525,19,Woman,Right,
,,,,,,,,,,,,,,,,,525,19,Woman,Right,3,6,1,1,180,-,180,0.4668968999999379,['n'],0.36671819999992294,1.83,2124.9944582999997,,,,,525,19,Woman,Right,
,,,,,,,,,,,,,,,,,525,19,Woman,Right,3,73,0.15,2,0,180,0,0.5380001999997148,['n'],0.3587468999999146,1.642,2128.4624808999997,,,,,525,19,Woman,Right,
,,,,,,,,,,,,,,,,,525,19,Woman,Right,3,14,0.4,1,180,-,180,0.7735818999999537,['n'],0.7120450999996137,1.532,2132.5784955999998,,,,,525,19,Woman,Right,
,,,,,,,,,,,,,,,,,525,19,Woman,Right,3,20,0.4,1,0,-,0,0.359903900000063,['n'],0.6564825000000383,1.808,2136.4945042,,,,,525,19,Woman,Right,
,,,,,,,,,,,,,,,,,525,19,Woman,Right,3,12,0.4,1,0,-,0,0.8832723000000442,['n'],0.4813395000001037,1.56,2140.7946445,,,,,525,19,Woman,Right,
,,,,,,,,,,,,,,,,,525,19,Woman,Right,3,47,0.15,2,180,0,0,2.142787899999803,['y'],1.345930700000281,1.07,2147.2452326,,,,,525,19,Woman,Right,
,,,,,,,,,,,,,,,,,525,19,Woman,Right,3,25,0.4,2,0,180,180,1.2088829000003898,['y'],0.6345888999999261,1.526,2151.8111063,,,,,525,19,Woman,Right,
,,,,,,,,,,,,,,,,,525,19,Woman,Right,3,65,0.15,2,0,180,180,0.7834246000002167,['n'],0.4342244999998002,1.318,2155.8945049,,,,,525,19,Woman,Right,
,,,,,,,,,,,,,,,,,525,19,Woman,Right,3,56,0.15,1,0,-,0,0.8703276999999616,['n'],0.5957017999999152,1.678,2159.9283992,,,,,525,19,Woman,Right,
,,,,,,,,,,,,,,,,,525,19,Woman,Right,3,37,0.4,2,0,180,180,0.3961003999997956,['y'],0.5638285999998516,1.6179999999999999,2164.4450117,,,,,525,19,Woman,Right,
,,,,,,,,,,,,,,,,,525,19,Woman,Right,3,75,0.15,2,180,0,0,0.7043586999998297,['y'],0.4763984999999593,1.592,2168.3110883,,,,,525,19,Woman,Right,
,,,,,,,,,,,,,,,,,525,19,Woman,Right,3,19,0.4,2,180,0,0,0.46706769999991593,['y'],0.717114699999911,1.524,2172.110991,,,,,525,19,Woman,Right,
,,,,,,,,,,,,,,,,,525,19,Woman,Right,3,71,0.15,2,180,0,180,1.005793199999971,['y'],0.9976492999999209,1.53,2176.7777991,,,,,525,19,Woman,Right,
,,,,,,,,,,,,,,,,,525,19,Woman,Right,3,48,0.15,1,0,-,0,1.272933600000215,['n'],0.5909827000000405,1.454,2182.4110341,,,,,525,19,Woman,Right,
,,,,,,,,,,,,,,,,,525,19,Woman,Right,3,43,0.4,2,180,0,0,1.5017978999999286,['y'],0.6234612999996898,1.7,2188.7949152,,,,,525,19,Woman,Right,
,,,,,,,,,,,,,,,,,525,19,Woman,Right,3,24,0.4,1,0,-,0,0.6176580000001195,['n'],0.6553420999998707,1.8519999999999999,2193.394469,,,,,525,19,Woman,Right,
,,,,,,,,,,,,,,,,,525,19,Woman,Right,3,21,0.4,2,0,180,180,1.1169452999997702,['y'],0.3926382999998168,1.568,2198.2110858,,,,,525,19,Woman,Right,
,,,,,,,,,,,,,,,,,525,19,Woman,Right,3,72,0.15,1,0,-,0,0.6338926000003084,['n'],0.42536599999993996,1.592,2201.9109146,,,,,525,19,Woman,Right,
,,,,,,,,,,,,,,,,,525,19,Woman,Right,3,4,1,1,0,-,0,0.8209772000000157,['n'],0.8576419000000897,1.988,2207.8278182999998,,,,,525,19,Woman,Right,
,,,,,,,,,,,,,,,,,525,19,Woman,Right,3,16,0.4,1,0,-,0,0.34475360000033106,['n'],0.617709399999967,1.912,2212.2285818,,,,,525,19,Woman,Right,
,,,,,,,,,,,,,,,,,525,19,Woman,Right,3,5,1,2,0,180,180,0.5341825999998946,['y'],0.5287485000003471,1.962,2216.2618377999997,,,,,525,19,Woman,Right,
,,,,,,,,,,,,,,,,,525,19,Woman,Right,3,69,0.15,2,0,180,0,0.4102480999999898,['n'],0.5389443000003666,1.684,2220.4110212,,,,,525,19,Woman,Right,
,,,,,,,,,,,,,,,,,525,19,Woman,Right,3,11,0.4,2,180,0,0,1.447600500000135,['y'],0.9566633999997975,1.764,2225.5608534,,,,,525,19,Woman,Right,
,,,,,,,,,,,,,,,,,525,19,Woman,Right,3,79,0.15,2,180,0,180,0.6406102000000828,['n'],0.7083247999999003,1.908,2229.8442999,,,,,525,19,Woman,Right,
,,,,,,,,,,,,,,,,,525,19,Woman,Right,3,64,0.15,1,0,-,0,0.8031953999998223,['n'],0.37299169999960213,1.542,2233.6782853,,,,,525,19,Woman,Right,
,,,,,,,,,,,,,,,,,525,19,Woman,Right,4,70,0.15,1,180,-,180,2.2821548000001712,['n'],1.1353026000001591,1.616,2255.1106701,83.75,87.5,65.0,,525,19,Woman,Right,
,,,,,,,,,,,,,,,,,525,19,Woman,Right,4,22,0.4,1,180,-,180,0.7020634999998947,['n'],0.8964007999998103,1.768,2260.6109165,,,,,525,19,Woman,Right,
,,,,,,,,,,,,,,,,,525,19,Woman,Right,4,48,0.15,1,0,-,180,1.0750472999998237,['y'],0.41772850000006656,1.626,2264.8276687,,,,,525,19,Woman,Right,
,,,,,,,,,,,,,,,,,525,19,Woman,Right,4,55,0.15,2,180,0,180,1.8701452999998764,['y'],1.8977168999999776,1.048,2271.6441577,,,,,525,19,Woman,Right,
,,,,,,,,,,,,,,,,,525,19,Woman,Right,4,59,0.15,2,180,0,0,0.2717171999997845,['y'],0.9627175999999054,1.082,2277.5281201,,,,,525,19,Woman,Right,
,,,,,,,,,,,,,,,,,525,19,Woman,Right,4,12,0.4,1,0,-,0,0.9599704000002021,['n'],0.34722839999994903,1.5939999999999999,2281.7774176,,,,,525,19,Woman,Right,
,,,,,,,,,,,,,,,,,525,19,Woman,Right,4,32,0.4,1,0,-,0,0.3475628000001052,['n'],0.6043095999998513,1.772,2285.660967,,,,,525,19,Woman,Right,
,,,,,,,,,,,,,,,,,525,19,Woman,Right,4,53,0.15,2,0,180,180,0.5377020999999331,['y'],0.7642439000001104,1.728,2289.5940278999997,,,,,525,19,Woman,Right,
,,,,,,,,,,,,,,,,,525,19,Woman,Right,4,2,1,1,180,-,180,0.7708477000005587,['n'],0.5170630000002348,1.998,2294.2439704000003,,,,,525,19,Woman,Right,
,,,,,,,,,,,,,,,,,525,19,Woman,Right,4,39,0.4,2,180,0,0,0.5272292999998172,['y'],0.5415538999995988,1.8479999999999999,2298.0283409999997,,,,,525,19,Woman,Right,
,,,,,,,,,,,,,,,,,525,19,Woman,Right,4,61,0.15,2,0,180,180,1.1736516999999367,['n'],0.5586132000007638,1.536,2302.7449885,,,,,525,19,Woman,Right,
,,,,,,,,,,,,,,,,,525,19,Woman,Right,4,47,0.15,2,180,0,0,0.7021604000001389,['y'],0.4550488000004407,1.706,2307.5272474999997,,,,,525,19,Woman,Right,
,,,,,,,,,,,,,,,,,525,19,Woman,Right,4,72,0.15,1,0,-,0,0.5804349000000002,['n'],1.2556251999994856,1.63,2311.9948914,,,,,525,19,Woman,Right,
,,,,,,,,,,,,,,,,,525,19,Woman,Right,4,74,0.15,1,180,-,180,1.608590599999843,['n'],0.50412199999937,1.33,2317.0105536999995,,,,,525,19,Woman,Right,
,,,,,,,,,,,,,,,,,525,19,Woman,Right,4,76,0.15,1,0,-,0,0.3252989000002344,['n'],1.4248207000000548,1.526,2321.3938759999996,,,,,525,19,Woman,Right,
,,,,,,,,,,,,,,,,,525,19,Woman,Right,4,68,0.15,1,0,-,0,0.46981440000035946,['n'],0.4008206999997128,1.1400000000000001,2325.8105769,,,,,525,19,Woman,Right,
,,,,,,,,,,,,,,,,,525,19,Woman,Right,4,46,0.15,1,180,-,180,1.0464043000001766,['n'],0.7379407999997056,1.526,2331.5107569999996,,,,,525,19,Woman,Right,
,,,,,,,,,,,,,,,,,525,19,Woman,Right,4,57,0.15,2,0,180,180,1.5001776999997674,['n'],0.8042943999998897,1.432,2336.5938948,,,,,525,19,Woman,Right,
,,,,,,,,,,,,,,,,,525,19,Woman,Right,4,36,0.4,1,0,-,0,0.6977663999996366,['n'],2.5563389999997526,1.6480000000000001,2342.6952297000003,,,,,525,19,Woman,Right,
,,,,,,,,,,,,,,,,,525,19,Woman,Right,4,21,0.4,2,0,180,0,0.5233589999998003,['y'],1.6206809000004796,1.514,2348.9276379999997,,,,,525,19,Woman,Right,
,,,,,,,,,,,,,,,,,525,19,Woman,Right,4,9,0.4,2,0,180,180,0.5112071999992622,['y'],0.7177431999998589,1.8639999999999999,2352.8605170999995,,,,,525,19,Woman,Right,
,,,,,,,,,,,,,,,,,525,19,Woman,Right,4,79,0.15,2,180,0,0,1.412367500000073,['n'],0.5256411999998818,1.708,2357.6278454999997,,,,,525,19,Woman,Right,
,,,,,,,,,,,,,,,,,525,19,Woman,Right,4,60,0.15,1,0,-,0,0.9560782000007748,['y'],0.48661949999950593,1.6560000000000001,2361.994765,,,,,525,19,Woman,Right,
,,,,,,,,,,,,,,,,,525,19,Woman,Right,4,18,0.4,1,180,-,180,0.7962663000007524,['n'],0.3903152000002592,1.946,2366.6271506999997,,,,,525,19,Woman,Right,
,,,,,,,,,,,,,,,,,525,19,Woman,Right,4,50,0.15,1,180,-,0,0.5162651000000551,['n'],0.5203139999994164,1.572,2370.2938109,,,,,525,19,Woman,Right,
,,,,,,,,,,,,,,,,,525,19,Woman,Right,4,49,0.15,2,0,180,180,0.824083000000428,['n'],0.35970999999972264,1.422,2374.4277995999996,,,,,525,19,Woman,Right,
,,,,,,,,,,,,,,,,,525,19,Woman,Right,4,37,0.4,2,0,180,180,1.5639752999995835,['y'],0.3603167000001122,1.534,2379.4103321999996,,,,,525,19,Woman,Right,
,,,,,,,,,,,,,,,,,525,19,Woman,Right,4,67,0.15,2,180,0,180,1.1799444999996922,['y'],0.8578933000007964,1.6099999999999999,2384.2939203,,,,,525,19,Woman,Right,
,,,,,,,,,,,,,,,,,525,19,Woman,Right,4,24,0.4,1,0,-,0,1.8777774000000136,['n'],1.1538493999996717,1.366,2390.2603733,,,,,525,19,Woman,Right,
,,,,,,,,,,,,,,,,,525,19,Woman,Right,4,71,0.15,2,180,0,0,0.3375213999997868,['n'],1.3944304000006014,1.698,2394.7275611,,,,,525,19,Woman,Right,
,,,,,,,,,,,,,,,,,525,19,Woman,Right,4,75,0.15,2,180,0,0,0.36866989999998623,['n'],0.595698000000084,1.73,2398.6944639,,,,,525,19,Woman,Right,
,,,,,,,,,,,,,,,,,525,19,Woman,Right,4,44,0.15,1,0,-,0,0.885193199999776,['n'],0.4284456000004866,1.738,2402.9282442,,,,,525,19,Woman,Right,
,,,,,,,,,,,,,,,,,525,19,Woman,Right,4,43,0.4,2,180,0,0,2.0600813999999446,['n'],0.34840489999987767,1.564,2408.944339,,,,,525,19,Woman,Right,
,,,,,,,,,,,,,,,,,525,19,Woman,Right,4,17,0.4,2,0,180,180,1.2016991999998936,['y'],0.6455759999998918,1.93,2414.0276239,,,,,525,19,Woman,Right,
,,,,,,,,,,,,,,,,,525,19,Woman,Right,4,77,0.15,2,0,180,0,0.7712392000003092,['n'],1.2146866000002774,1.3780000000000001,2419.1935682,,,,,525,19,Woman,Right,
,,,,,,,,,,,,,,,,,525,19,Woman,Right,4,58,0.15,1,180,-,180,1.1700453000003108,['y'],0.4539832000000388,1.0,2423.8437049999998,,,,,525,19,Woman,Right,
,,,,,,,,,,,,,,,,,525,19,Woman,Right,4,52,0.15,1,0,-,180,1.8528417000006812,['y'],0.49493970000003173,1.0,2429.4935551000003,,,,,525,19,Woman,Right,
,,,,,,,,,,,,,,,,,525,19,Woman,Right,4,51,0.15,2,180,0,180,2.9079602000001614,['y'],0.9518154000006689,1.006,2436.6944252,,,,,525,19,Woman,Right,
,,,,,,,,,,,,,,,,,525,19,Woman,Right,4,16,0.4,1,0,-,0,0.45409990000007383,['n'],0.5124358000002758,1.728,2440.3269147999995,,,,,525,19,Woman,Right,
,,,,,,,,,,,,,,,,,525,19,Woman,Right,4,31,0.4,2,180,0,0,1.7849574000001667,['y'],0.40123810000022786,1.646,2445.5100758000003,,,,,525,19,Woman,Right,
,,,,,,,,,,,,,,,,,525,19,Woman,Right,4,14,0.4,1,180,-,180,0.7581259999997201,['n'],1.1947199999995064,1.5779999999999998,2452.3601250999996,,,,,525,19,Woman,Right,
,,,,,,,,,,,,,,,,,525,19,Woman,Right,4,45,0.15,2,0,180,0,0.784407199999805,['y'],2.1720867000003636,1.174,2458.2937006999996,,,,,525,19,Woman,Right,
,,,,,,,,,,,,,,,,,525,19,Woman,Right,4,0,1,1,0,-,0,0.4627788999996483,['n'],0.4751356000006126,2.0,2462.0102136,,,,,525,19,Woman,Right,
,,,,,,,,,,,,,,,,,525,19,Woman,Right,4,10,0.4,1,180,-,180,0.9761469999994006,['n'],0.5323286999991979,1.85,2466.9100243999997,,,,,525,19,Woman,Right,
,,,,,,,,,,,,,,,,,525,19,Woman,Right,4,13,0.4,2,0,180,180,1.7038628999998764,['y'],0.43713239999942743,1.638,2472.1943643,,,,,525,19,Woman,Right,
,,,,,,,,,,,,,,,,,525,19,Woman,Right,4,3,1,2,180,0,0,0.39181749999988824,['y'],0.765122099999644,1.8599999999999999,2476.6276458999996,,,,,525,19,Woman,Right,
,,,,,,,,,,,,,,,,,525,19,Woman,Right,4,4,1,1,0,-,0,0.4178563999994367,['n'],1.3822331000001213,1.8900000000000001,2481.8935404,,,,,525,19,Woman,Right,
,,,,,,,,,,,,,,,,,525,19,Woman,Right,4,34,0.4,1,180,-,180,2.021762899999885,['n'],0.3912889000002906,1.6680000000000001,2487.6776236,,,,,525,19,Woman,Right,
,,,,,,,,,,,,,,,,,525,19,Woman,Right,4,63,0.15,2,180,0,180,1.6605695000007472,['n'],0.29519039999922825,1.57,2492.3600021999996,,,,,525,19,Woman,Right,
,,,,,,,,,,,,,,,,,525,19,Woman,Right,4,5,1,2,0,180,180,1.260693799999899,['y'],0.8962717000003977,2.0,2497.2433469000002,,,,,525,19,Woman,Right,
,,,,,,,,,,,,,,,,,525,19,Woman,Right,4,62,0.15,1,180,-,180,1.858037200000581,['y'],0.7446786000000429,1.642,2502.5765675999996,,,,,525,19,Woman,Right,
,,,,,,,,,,,,,,,,,525,19,Woman,Right,4,69,0.15,2,0,180,180,1.4205896000003122,['y'],0.4338330999999016,1.85,2507.2600767999998,,,,,525,19,Woman,Right,
,,,,,,,,,,,,,,,,,525,19,Woman,Right,4,11,0.4,2,180,0,0,0.36082230000010895,['y'],0.6418935000001511,1.788,2511.1099077000003,,,,,525,19,Woman,Right,
,,,,,,,,,,,,,,,,,525,19,Woman,Right,4,54,0.15,1,180,-,180,1.7163053000003856,['n'],0.35877870000058465,1.55,2517.6100094,,,,,525,19,Woman,Right,
,,,,,,,,,,,,,,,,,525,19,Woman,Right,4,27,0.4,2,180,0,0,0.6116116000002876,['y'],0.9319720000003144,1.616,2523.0433086,,,,,525,19,Woman,Right,
,,,,,,,,,,,,,,,,,525,19,Woman,Right,4,64,0.15,1,0,-,0,1.3914076999999452,['n'],0.35572640000009415,1.58,2527.6268921999995,,,,,525,19,Woman,Right,
,,,,,,,,,,,,,,,,,525,19,Woman,Right,4,7,1,2,180,0,0,0.4816827000004196,['y'],1.0131117999999333,2.0,2531.7278052999995,,,,,525,19,Woman,Right,
,,,,,,,,,,,,,,,,,525,19,Woman,Right,4,29,0.4,2,0,180,180,0.6365509000006568,['y'],0.5814231999993353,1.972,2535.6439324,,,,,525,19,Woman,Right,
,,,,,,,,,,,,,,,,,525,19,Woman,Right,4,42,0.4,1,180,-,180,0.6737765999996554,['n'],0.7345400000003792,1.8940000000000001,2540.1767395,,,,,525,19,Woman,Right,
,,,,,,,,,,,,,,,,,525,19,Woman,Right,4,25,0.4,2,0,180,180,0.7663082000008217,['y'],0.9321909000000232,1.706,2544.8937227,,,,,525,19,Woman,Right,
,,,,,,,,,,,,,,,,,525,19,Woman,Right,4,23,0.4,2,180,0,0,0.9765007000005426,['y'],0.5033430999992561,1.9060000000000001,2549.0765847,,,,,525,19,Woman,Right,
,,,,,,,,,,,,,,,,,525,19,Woman,Right,4,33,0.4,2,0,180,180,0.4784515999999712,['y'],0.4634391000008691,1.8599999999999999,2552.7935866000003,,,,,525,19,Woman,Right,
,,,,,,,,,,,,,,,,,525,19,Woman,Right,4,19,0.4,2,180,0,0,0.3295531000003393,['y'],0.8088415000001987,1.842,2556.6938537,,,,,525,19,Woman,Right,
,,,,,,,,,,,,,,,,,525,19,Woman,Right,4,35,0.4,2,180,0,0,0.36823219999951107,['y'],0.9840406000002986,1.946,2560.8271842999998,,,,,525,19,Woman,Right,
,,,,,,,,,,,,,,,,,525,19,Woman,Right,4,26,0.4,1,180,-,180,0.5845841000000291,['n'],0.5212984999998298,1.716,2564.8271266999996,,,,,525,19,Woman,Right,
,,,,,,,,,,,,,,,,,525,19,Woman,Right,4,30,0.4,1,180,-,180,1.0381362999996782,['n'],0.8017614000000322,1.854,2569.6441764999995,,,,,525,19,Woman,Right,
,,,,,,,,,,,,,,,,,525,19,Woman,Right,4,40,0.4,1,0,-,0,0.3692250000003696,['n'],0.7784214000002976,1.82,2574.6437731,,,,,525,19,Woman,Right,
,,,,,,,,,,,,,,,,,525,19,Woman,Right,4,1,1,2,0,180,180,0.5218405000005077,['y'],0.8354699999999866,1.786,2578.9938722,,,,,525,19,Woman,Right,
,,,,,,,,,,,,,,,,,525,19,Woman,Right,4,65,0.15,2,0,180,180,1.0242471000001387,['n'],0.9715043999995032,1.1400000000000001,2584.9931194999995,,,,,525,19,Woman,Right,
,,,,,,,,,,,,,,,,,525,19,Woman,Right,4,20,0.4,1,0,-,180,0.7645865999993475,['n'],0.46038750000025175,1.17,2589.3930453,,,,,525,19,Woman,Right,
,,,,,,,,,,,,,,,,,525,19,Woman,Right,4,38,0.4,1,180,-,180,2.8371139999999286,['n'],0.8772054999999455,1.29,2595.7930905999997,,,,,525,19,Woman,Right,
,,,,,,,,,,,,,,,,,525,19,Woman,Right,4,41,0.4,2,0,180,180,0.5711506999996345,['y'],1.2051621000000523,1.588,2600.2769917,,,,,525,19,Woman,Right,
,,,,,,,,,,,,,,,,,525,19,Woman,Right,4,28,0.4,1,0,-,0,0.5629705999999715,['n'],0.7263456000000588,1.826,2604.6597168000003,,,,,525,19,Woman,Right,
,,,,,,,,,,,,,,,,,525,19,Woman,Right,4,8,0.4,1,0,-,0,1.5827318999999989,['n'],0.4232371999996758,1.646,2609.3270387,,,,,525,19,Woman,Right,
,,,,,,,,,,,,,,,,,525,19,Woman,Right,4,6,1,1,180,-,180,0.6863364999999249,['n'],0.9203004000000874,2.0,2613.7102523999997,,,,,525,19,Woman,Right,
,,,,,,,,,,,,,,,,,525,19,Woman,Right,4,56,0.15,1,0,-,180,2.89993449999929,['n'],0.5445013999997173,1.438,2620.2430923999996,,,,,525,19,Woman,Right,
,,,,,,,,,,,,,,,,,525,19,Woman,Right,4,15,0.4,2,180,0,0,0.6510589999998047,['y'],0.8843660000002274,1.638,2624.4931971,,,,,525,19,Woman,Right,
,,,,,,,,,,,,,,,,,525,19,Woman,Right,4,73,0.15,2,0,180,180,1.2855766000002404,['y'],0.6898960999997144,1.6059999999999999,2629.0599371000003,,,,,525,19,Woman,Right,
,,,,,,,,,,,,,,,,,525,19,Woman,Right,4,78,0.15,1,180,-,0,5.849867300000369,['n'],1.377795999999762,1.246,2639.5603252999995,,,,,525,19,Woman,Right,
,,,,,,,,,,,,,,,,,525,19,Woman,Right,4,66,0.15,1,180,-,180,1.9279097999997248,['y'],1.1885291999997207,1.292,2645.8430055000003,,,,,525,19,Woman,Right,
,,,,,,,,,,,,,,,,,525,19,Woman,Right,5,22,0.4,1,180,-,180,1.3626074000003427,['n'],1.4144993999998405,1.726,2664.7099154,83.75,85.0,75.0,,525,19,Woman,Right,
,,,,,,,,,,,,,,,,,525,19,Woman,Right,5,76,0.15,1,0,-,0,3.9770529999996143,['n'],1.0317438000001857,1.416,2673.376737,,,,,525,19,Woman,Right,
,,,,,,,,,,,,,,,,,525,19,Woman,Right,5,65,0.15,2,0,180,0,0.9137406999998348,['n'],0.8880429999999251,1.564,2678.2942411999998,,,,,525,19,Woman,Right,
,,,,,,,,,,,,,,,,,525,19,Woman,Right,5,61,0.15,2,0,180,0,0.9737304000000222,['n'],0.361374899999646,1.592,2682.3098465,,,,,525,19,Woman,Right,
,,,,,,,,,,,,,,,,,525,19,Woman,Right,5,3,1,2,180,0,0,0.5333246999998664,['y'],0.8352308000003177,1.912,2688.5434079,,,,,525,19,Woman,Right,
,,,,,,,,,,,,,,,,,525,19,Woman,Right,5,34,0.4,1,180,-,180,0.8121147000001656,['n'],0.6582029999999577,1.678,2692.9760546,,,,,525,19,Woman,Right,
,,,,,,,,,,,,,,,,,525,19,Woman,Right,5,40,0.4,1,0,-,0,0.4834175999994841,['n'],0.8466176000001724,1.6320000000000001,2696.8936775999996,,,,,525,19,Woman,Right,
,,,,,,,,,,,,,,,,,525,19,Woman,Right,5,78,0.15,1,180,-,180,1.0722531999999774,['n'],1.2117050999995627,1.0,2702.7268757999996,,,,,525,19,Woman,Right,
,,,,,,,,,,,,,,,,,525,19,Woman,Right,5,66,0.15,1,180,-,0,1.3037335999997595,['n'],1.3567367000005106,1.214,2708.3928216,,,,,525,19,Woman,Right,
,,,,,,,,,,,,,,,,,525,19,Woman,Right,5,62,0.15,1,180,-,0,1.1786465000004682,['n'],1.5889516999995976,1.188,2713.8599305000002,,,,,525,19,Woman,Right,
,,,,,,,,,,,,,,,,,525,19,Woman,Right,5,19,0.4,2,180,0,180,0.7761429000001954,['n'],0.3575579000007565,1.714,2717.5436683000003,,,,,525,19,Woman,Right,
,,,,,,,,,,,,,,,,,525,19,Woman,Right,5,45,0.15,2,0,180,0,0.4890460000005987,['n'],0.4623680000004242,1.742,2721.2100103,,,,,525,19,Woman,Right,
,,,,,,,,,,,,,,,,,525,19,Woman,Right,5,67,0.15,2,180,0,180,1.2425245000003997,['y'],0.655067799999415,1.0,2726.0097867,,,,,525,19,Woman,Right,
,,,,,,,,,,,,,,,,,525,19,Woman,Right,5,5,1,2,0,180,180,1.7366523000000598,['y'],0.44707049999942683,1.974,2731.9765276000003,,,,,525,19,Woman,Right,
,,,,,,,,,,,,,,,,,525,19,Woman,Right,5,28,0.4,1,0,-,0,0.3344680000000153,['y'],0.4083823000000848,1.302,2736.0760110999995,,,,,525,19,Woman,Right,
,,,,,,,,,,,,,,,,,525,19,Woman,Right,5,48,0.15,1,0,-,0,0.5836562000004051,['n'],1.4401066000000355,1.688,2740.6926624000002,,,,,525,19,Woman,Right,
,,,,,,,,,,,,,,,,,525,19,Woman,Right,5,46,0.15,1,180,-,0,1.3500199000000066,['n'],0.3929713999996238,1.6360000000000001,2745.0427801,,,,,525,19,Woman,Right,
,,,,,,,,,,,,,,,,,525,19,Woman,Right,5,55,0.15,2,180,0,0,1.320369699999901,['y'],0.4981173999995008,1.528,2749.6426110999996,,,,,525,19,Woman,Right,
,,,,,,,,,,,,,,,,,525,19,Woman,Right,5,16,0.4,1,0,-,0,0.35183839999990596,['n'],0.7860590999998749,1.6640000000000001,2753.3927332999997,,,,,525,19,Woman,Right,
,,,,,,,,,,,,,,,,,525,19,Woman,Right,5,29,0.4,2,0,180,180,1.2169019000002663,['y'],0.6835023000003275,1.678,2758.9426706,,,,,525,19,Woman,Right,
,,,,,,,,,,,,,,,,,525,19,Woman,Right,5,17,0.4,2,0,180,180,1.1557590000002165,['y'],0.4748626000000513,1.718,2763.8592373999995,,,,,525,19,Woman,Right,
,,,,,,,,,,,,,,,,,525,19,Woman,Right,5,38,0.4,1,180,-,180,1.0978603000003204,['n'],0.924750000000131,1.5819999999999999,2769.4264683999995,,,,,525,19,Woman,Right,
,,,,,,,,,,,,,,,,,525,19,Woman,Right,5,7,1,2,180,0,0,0.7199736000002304,['y'],1.173177499999838,1.98,2775.9594289,,,,,525,19,Woman,Right,
,,,,,,,,,,,,,,,,,525,19,Woman,Right,5,71,0.15,2,180,0,180,3.1295688999998674,['y'],1.2631800999997722,1.37,2783.1102902,,,,,525,19,Woman,Right,
,,,,,,,,,,,,,,,,,525,19,Woman,Right,5,63,0.15,2,180,0,0,3.2057896999995137,['n'],0.8538730000000214,1.31,2790.4101321000003,,,,,525,19,Woman,Right,
,,,,,,,,,,,,,,,,,525,19,Woman,Right,5,59,0.15,2,180,0,0,1.897638299999926,['n'],0.5199634000000515,1.17,2795.7924058000003,,,,,525,19,Woman,Right,
,,,,,,,,,,,,,,,,,525,19,Woman,Right,5,41,0.4,2,0,180,180,1.7508334000003742,['y'],0.7210427999998501,1.534,2801.2925511999997,,,,,525,19,Woman,Right,
,,,,,,,,,,,,,,,,,525,19,Woman,Right,5,57,0.15,2,0,180,180,1.2343571999999767,['y'],0.3900782999999137,1.316,2805.7263306,,,,,525,19,Woman,Right,
,,,,,,,,,,,,,,,,,525,19,Woman,Right,5,53,0.15,2,0,180,180,1.327375399999255,['y'],2.274515600000086,1.446,2812.3590575000003,,,,,525,19,Woman,Right,
,,,,,,,,,,,,,,,,,525,19,Woman,Right,5,30,0.4,1,180,-,180,0.4618260999995982,['n'],0.5704986999999164,1.712,2816.1592167000003,,,,,525,19,Woman,Right,
,,,,,,,,,,,,,,,,,525,19,Woman,Right,5,11,0.4,2,180,0,0,0.5321900999997524,['y'],0.6757388000005449,1.75,2820.1599333999998,,,,,525,19,Woman,Right,
,,,,,,,,,,,,,,,,,525,19,Woman,Right,5,39,0.4,2,180,0,0,0.579475999999886,['y'],0.48357670000041253,1.678,2824.1604463,,,,,525,19,Woman,Right,
,,,,,,,,,,,,,,,,,525,19,Woman,Right,5,54,0.15,1,180,-,0,0.7570700999995097,['n'],0.38822049999998853,1.6560000000000001,2828.1757938999995,,,,,525,19,Woman,Right,
,,,,,,,,,,,,,,,,,525,19,Woman,Right,5,12,0.4,1,0,-,0,0.3458734000005279,['n'],0.49247860000014043,1.796,2831.9264865,,,,,525,19,Woman,Right,
,,,,,,,,,,,,,,,,,525,19,Woman,Right,5,15,0.4,2,180,0,180,2.954236100000344,['y'],1.3013373999992837,1.532,2841.3099342,,,,,525,19,Woman,Right,
,,,,,,,,,,,,,,,,,525,19,Woman,Right,5,8,0.4,1,0,-,0,0.9006810999999288,['n'],0.39718509999966045,1.688,2845.0929776,,,,,525,19,Woman,Right,
,,,,,,,,,,,,,,,,,525,19,Woman,Right,5,70,0.15,1,180,-,180,2.3848152999999,['n'],0.5679152000002432,1.688,2850.8422979,,,,,525,19,Woman,Right,
,,,,,,,,,,,,,,,,,525,19,Woman,Right,5,47,0.15,2,180,0,0,1.4774578000005931,['n'],0.6394186999996236,1.298,2855.9590606999996,,,,,525,19,Woman,Right,
,,,,,,,,,,,,,,,,,525,19,Woman,Right,5,73,0.15,2,0,180,180,0.6256132999997135,['y'],0.65577200000007,1.604,2859.8762087,,,,,525,19,Woman,Right,
,,,,,,,,,,,,,,,,,525,19,Woman,Right,5,14,0.4,1,180,-,180,0.8680090000007112,['n'],0.5208174999997937,1.704,2864.3921901999997,,,,,525,19,Woman,Right,
,,,,,,,,,,,,,,,,,525,19,Woman,Right,5,64,0.15,1,0,-,0,0.9653110999997807,['n'],1.2661041999999725,1.384,2869.7257065,,,,,525,19,Woman,Right,
,,,,,,,,,,,,,,,,,525,19,Woman,Right,5,60,0.15,1,0,-,0,0.6750760999993872,['n'],4.419094399999267,1.274,2877.8264001000002,,,,,525,19,Woman,Right,
,,,,,,,,,,,,,,,,,525,19,Woman,Right,5,9,0.4,2,0,180,180,0.6375065000001996,['y'],0.5387436000000889,1.778,2881.7922092000003,,,,,525,19,Woman,Right,
,,,,,,,,,,,,,,,,,525,19,Woman,Right,5,33,0.4,2,0,180,180,1.055793100000301,['y'],0.43609700000070006,1.772,2886.2588040999995,,,,,525,19,Woman,Right,
,,,,,,,,,,,,,,,,,525,19,Woman,Right,5,10,0.4,1,180,-,180,0.555324599999949,['n'],0.691856800000096,1.782,2890.8432097,,,,,525,19,Woman,Right,
,,,,,,,,,,,,,,,,,525,19,Woman,Right,5,37,0.4,2,0,180,0,0.6315885999993043,['y'],4.477680400000281,1.424,2901.1088081000003,,,,,525,19,Woman,Right,
,,,,,,,,,,,,,,,,,525,19,Woman,Right,5,20,0.4,1,0,-,0,0.563401999999769,['n'],0.3825440000000526,1.846,2905.0593415,,,,,525,19,Woman,Right,
,,,,,,,,,,,,,,,,,525,19,Woman,Right,5,21,0.4,2,0,180,180,1.168018200000006,['y'],2.375155800000357,1.682,2912.3596481,,,,,525,19,Woman,Right,
,,,,,,,,,,,,,,,,,525,19,Woman,Right,5,43,0.4,2,180,0,0,0.7491847999999663,['y'],0.6560694999998304,1.74,2916.3587820999996,,,,,525,19,Woman,Right,
,,,,,,,,,,,,,,,,,525,19,Woman,Right,5,68,0.15,1,0,-,180,0.5993960000005245,['n'],0.704301700000542,1.702,2920.5259582000003,,,,,525,19,Woman,Right,
,,,,,,,,,,,,,,,,,525,19,Woman,Right,5,32,0.4,1,0,-,0,0.41207829999984824,['n'],0.40016409999952884,1.742,2924.1920988999996,,,,,525,19,Woman,Right,
,,,,,,,,,,,,,,,,,525,19,Woman,Right,5,77,0.15,2,0,180,180,1.2267568000006577,['y'],0.45729279999977734,1.1520000000000001,2930.3921417999995,,,,,525,19,Woman,Right,
,,,,,,,,,,,,,,,,,525,19,Woman,Right,5,27,0.4,2,180,0,0,0.8613416999996844,['y'],0.49776050000036776,1.798,2935.0425884,,,,,525,19,Woman,Right,
,,,,,,,,,,,,,,,,,525,19,Woman,Right,5,36,0.4,1,0,-,0,0.7080444000002899,['n'],0.7390319999994972,1.8,2939.6588379,,,,,525,19,Woman,Right,
,,,,,,,,,,,,,,,,,525,19,Woman,Right,5,18,0.4,1,180,-,180,1.652015499999834,['n'],0.5557980999992651,1.33,2945.7255381,,,,,525,19,Woman,Right,
,,,,,,,,,,,,,,,,,525,19,Woman,Right,5,51,0.15,2,180,0,180,1.4732943999997588,['n'],0.8848544000002221,1.658,2951.1920395,,,,,525,19,Woman,Right,
,,,,,,,,,,,,,,,,,525,19,Woman,Right,5,31,0.4,2,180,0,0,1.594423900000038,['y'],0.5973911000000953,1.746,2956.5259115000003,,,,,525,19,Woman,Right,
,,,,,,,,,,,,,,,,,525,19,Woman,Right,5,79,0.15,2,180,0,180,1.0999603000000207,['n'],0.6141700999996829,1.6059999999999999,2961.1263670000003,,,,,525,19,Woman,Right,
,,,,,,,,,,,,,,,,,525,19,Woman,Right,5,56,0.15,1,0,-,0,0.9201080000002548,['y'],0.5109791999993831,1.0,2965.9759757999996,,,,,525,19,Woman,Right,
,,,,,,,,,,,,,,,,,525,19,Woman,Right,5,35,0.4,2,180,0,0,2.002530900000238,['y'],0.45582680000006803,1.342,2971.7260825999997,,,,,525,19,Woman,Right,
,,,,,,,,,,,,,,,,,525,19,Woman,Right,5,1,1,2,0,180,180,1.6714862999997422,['y'],0.5526606999992509,1.8519999999999999,2976.775268,,,,,525,19,Woman,Right,
,,,,,,,,,,,,,,,,,525,19,Woman,Right,5,4,1,1,0,-,0,0.5685029999995095,['n'],0.9045264000005773,2.0,2980.9092385999998,,,,,525,19,Woman,Right,
,,,,,,,,,,,,,,,,,525,19,Woman,Right,5,69,0.15,2,0,180,180,1.6997898999998142,['y'],0.3950512000001254,1.646,2985.5920517,,,,,525,19,Woman,Right,
,,,,,,,,,,,,,,,,,525,19,Woman,Right,5,24,0.4,1,0,-,0,0.39350629999989906,['n'],0.4970041999995374,1.78,2989.2927082,,,,,525,19,Woman,Right,
,,,,,,,,,,,,,,,,,525,19,Woman,Right,5,42,0.4,1,180,-,180,2.2550664999998844,['n'],0.6342929000002187,1.5979999999999999,2995.342472,,,,,525,19,Woman,Right,
,,,,,,,,,,,,,,,,,525,19,Woman,Right,5,75,0.15,2,180,0,180,0.7924188999995749,['n'],0.35455280000041967,1.328,2999.5086420000002,,,,,525,19,Woman,Right,
,,,,,,,,,,,,,,,,,525,19,Woman,Right,5,23,0.4,2,180,0,0,0.5672604000001229,['n'],0.49109930000031454,1.154,3004.7751813,,,,,525,19,Woman,Right,
,,,,,,,,,,,,,,,,,525,19,Woman,Right,5,13,0.4,2,0,180,180,1.629478900000322,['y'],0.4282596000002741,1.738,3009.9918879,,,,,525,19,Woman,Right,
,,,,,,,,,,,,,,,,,525,19,Woman,Right,5,25,0.4,2,0,180,180,2.182419900000241,['y'],0.5336100999993505,1.9020000000000001,3016.1586052999996,,,,,525,19,Woman,Right,
,,,,,,,,,,,,,,,,,525,19,Woman,Right,5,2,1,1,180,-,180,1.4037931000002573,['n'],0.5021037999995315,1.8639999999999999,3021.2258921,,,,,525,19,Woman,Right,
,,,,,,,,,,,,,,,,,525,19,Woman,Right,5,72,0.15,1,0,-,0,2.94379409999965,['n'],1.3187245999997685,1.564,3028.4259526,,,,,525,19,Woman,Right,
,,,,,,,,,,,,,,,,,525,19,Woman,Right,5,6,1,1,180,-,180,1.600220000000263,['n'],1.7116172000005463,1.604,3034.6252461999998,,,,,525,19,Woman,Right,
,,,,,,,,,,,,,,,,,525,19,Woman,Right,5,26,0.4,1,180,-,180,1.995859399999972,['n'],0.5203528000001825,1.566,3039.7758885999997,,,,,525,19,Woman,Right,
,,,,,,,,,,,,,,,,,525,19,Woman,Right,5,44,0.15,1,0,-,180,1.7625205000003916,['y'],0.43290260000048875,1.558,3044.5753343,,,,,525,19,Woman,Right,
,,,,,,,,,,,,,,,,,525,19,Woman,Right,5,52,0.15,1,0,-,0,1.953413900000669,['n'],1.2902819999999338,1.196,3050.7418371,,,,,525,19,Woman,Right,
,,,,,,,,,,,,,,,,,525,19,Woman,Right,5,58,0.15,1,180,-,0,1.148943899999722,['n'],0.4584829000004902,1.216,3055.0418674,,,,,525,19,Woman,Right,
,,,,,,,,,,,,,,,,,525,19,Woman,Right,5,74,0.15,1,180,-,0,1.0512924000004205,['n'],0.4431898999991972,1.168,3059.4091946000003,,,,,525,19,Woman,Right,
,,,,,,,,,,,,,,,,,525,19,Woman,Right,5,0,1,1,0,-,0,0.5538900000001377,['n'],0.6041730999995707,1.916,3063.2585038,,,,,525,19,Woman,Right,
,,,,,,,,,,,,,,,,,525,19,Woman,Right,5,49,0.15,2,0,180,180,1.426163699999961,['y'],0.6674855000001116,1.286,3068.2753688,,,,,525,19,Woman,Right,
,,,,,,,,,,,,,,,,,525,19,Woman,Right,5,50,0.15,1,180,-,180,2.1444539000003715,['n'],3.1330183000000034,1.312,3076.0757774,,,,,525,19,Woman,Right,
,,,,,,,,,,,,,,,,,,,,,,,,,,,,,,,,,76.25,92.5,72.5,2602.7278696000003,,,,,
