p_block,p_section,p_coherence,p_direction1,p_direction2,p_direction_response,p_direction_RT,p_change_response,p_change_RT,p_confidence,p_full_correct,p_without5_correct,p_full_total,p_without5_total,p_full_avg,p_witout5_avg,p_total_time,sub,age,sex,handedness,loop,trial randomization,coherence,condition,direction1,direction2,direction_response,direction_RT,change_response,change_RT,change_confidence,change_confidence_RT,block_direction_avg,block_stable_avg,block_change_avg,total_time,sub,age,sex,handedness,
1,1,1.0,180,-,180,0.5961822999961441,-,-,-,,,,,,,,530,19,Man,Left,,,,,,,,,,,,,,,,,530,19,Man,Left,
1,1,1.0,180,-,180,0.3199516000022413,-,-,-,,,,,,,,530,19,Man,Left,,,,,,,,,,,,,,,,,530,19,Man,Left,
1,1,1.0,0,-,0,0.19072720000258414,-,-,-,,,,,,,,530,19,Man,Left,,,,,,,,,,,,,,,,,530,19,Man,Left,
1,1,1.0,0,-,0,0.21866929999669082,-,-,-,,,,,,,,530,19,Man,Left,,,,,,,,,,,,,,,,,530,19,Man,Left,
1,1,1.0,180,-,180,0.2208907000022009,-,-,-,,,,,,,,530,19,Man,Left,,,,,,,,,,,,,,,,,530,19,Man,Left,
1,1,1.0,0,-,0,0.5660577000016929,-,-,-,,,,,,,,530,19,Man,Left,,,,,,,,,,,,,,,,,530,19,Man,Left,
1,1,1.0,180,-,180,0.2748005999965244,-,-,-,,,,,,,,530,19,Man,Left,,,,,,,,,,,,,,,,,530,19,Man,Left,
1,1,1.0,0,-,0,0.2835445000018808,-,-,-,,,,,,,,530,19,Man,Left,,,,,,,,,,,,,,,,,530,19,Man,Left,
1,1,1.0,180,-,180,0.24197090000234311,-,-,-,,,,,,,,530,19,Man,Left,,,,,,,,,,,,,,,,,530,19,Man,Left,
1,1,1.0,180,-,180,0.01717600000120001,-,-,-,10,10,10,10,1.0,1.0,,530,19,Man,Left,,,,,,,,,,,,,,,,,530,19,Man,Left,
2,1,0.4,0,-,0,0.031282399999327026,-,-,-,,,,,,,,530,19,Man,Left,,,,,,,,,,,,,,,,,530,19,Man,Left,
2,1,0.15,0,-,180,0.34541080000053626,-,-,-,,,,,,,,530,19,Man,Left,,,,,,,,,,,,,,,,,530,19,Man,Left,
2,1,0.4,0,-,0,0.24601239999901736,-,-,-,,,,,,,,530,19,Man,Left,,,,,,,,,,,,,,,,,530,19,Man,Left,
2,1,0.15,180,-,180,0.2875631999995676,-,-,-,,,,,,,,530,19,Man,Left,,,,,,,,,,,,,,,,,530,19,Man,Left,
2,1,0.15,0,-,0,0.35937539999576984,-,-,-,,,,,,,,530,19,Man,Left,,,,,,,,,,,,,,,,,530,19,Man,Left,
2,1,0.4,180,-,0,0.3484745000023395,-,-,-,,,,,,,,530,19,Man,Left,,,,,,,,,,,,,,,,,530,19,Man,Left,
2,1,0.4,180,-,180,0.39301890000206186,-,-,-,,,,,,,,530,19,Man,Left,,,,,,,,,,,,,,,,,530,19,Man,Left,
2,1,0.4,180,-,180,0.4370801999975811,-,-,-,,,,,,,,530,19,Man,Left,,,,,,,,,,,,,,,,,530,19,Man,Left,
2,1,0.4,180,-,180,0.3336462999941432,-,-,-,,,,,,,,530,19,Man,Left,,,,,,,,,,,,,,,,,530,19,Man,Left,
2,1,0.4,180,-,180,0.32401060000120196,-,-,-,8,6,10,7,0.8,0.8571428571428571,,530,19,Man,Left,,,,,,,,,,,,,,,,,530,19,Man,Left,
3,2,1.0,0,180,180,3.375771999999415,['y'],2.2361805999971693,2.0,,,,,,,,530,19,Man,Left,,,,,,,,,,,,,,,,,530,19,Man,Left,
3,2,1.0,0,180,180,1.2336496999996598,['y'],1.690189900000405,2.0,,,,,,,,530,19,Man,Left,,,,,,,,,,,,,,,,,530,19,Man,Left,
3,2,1.0,0,180,180,0.7550861999989138,['y'],1.7588658000022406,2.0,,,,,,,,530,19,Man,Left,,,,,,,,,,,,,,,,,530,19,Man,Left,
3,2,1.0,0,180,180,0.6185785999987274,['y'],1.9318809999967925,2.0,,,,,,,,530,19,Man,Left,,,,,,,,,,,,,,,,,530,19,Man,Left,
3,2,1.0,180,0,0,0.6568506000039633,['y'],0.5134866000007605,2.0,,,,,,,,530,19,Man,Left,,,,,,,,,,,,,,,,,530,19,Man,Left,
3,2,1.0,0,180,180,0.5207200000004377,['y'],1.3435293000002275,2.0,,,,,,,,530,19,Man,Left,,,,,,,,,,,,,,,,,530,19,Man,Left,
3,2,1.0,180,0,0,0.5277287999997498,['y'],0.8145002999954158,2.0,,,,,,,,530,19,Man,Left,,,,,,,,,,,,,,,,,530,19,Man,Left,
3,2,1.0,180,0,0,0.8052147999987938,['y'],0.4718748000013875,2.0,,,,,,,,530,19,Man,Left,,,,,,,,,,,,,,,,,530,19,Man,Left,
3,2,1.0,0,180,180,0.39327459999913117,['y'],1.053130099993723,2.0,,,,,,,,530,19,Man,Left,,,,,,,,,,,,,,,,,530,19,Man,Left,
3,2,1.0,0,180,180,0.29555850000178907,['y'],0.5181526000014856,2.0,10,10,10,10,1.0,1.0,,530,19,Man,Left,,,,,,,,,,,,,,,,,530,19,Man,Left,
4,2,0.4,0,180,180,0.6016546000028029,['y'],0.5724246999961906,2.0,,,,,,,,530,19,Man,Left,,,,,,,,,,,,,,,,,530,19,Man,Left,
4,2,0.15,0,180,180,2.237716100004036,['n'],1.118811199994525,1.006,,,,,,,,530,19,Man,Left,,,,,,,,,,,,,,,,,530,19,Man,Left,
4,2,0.4,180,0,0,0.9240380000046571,['y'],0.9217056999987108,2.0,,,,,,,,530,19,Man,Left,,,,,,,,,,,,,,,,,530,19,Man,Left,
4,2,0.15,180,0,180,3.550486700005422,['n'],3.49328190000233,1.0,,,,,,,,530,19,Man,Left,,,,,,,,,,,,,,,,,530,19,Man,Left,
4,2,0.15,180,0,0,3.5876199000049382,['n'],0.6382609000065713,1.0,,,,,,,,530,19,Man,Left,,,,,,,,,,,,,,,,,530,19,Man,Left,
4,2,0.4,180,0,0,0.838688000003458,['y'],1.790616599995701,2.0,,,,,,,,530,19,Man,Left,,,,,,,,,,,,,,,,,530,19,Man,Left,
4,2,0.4,0,180,180,0.46306929999991553,['y'],0.7913604999994277,2.0,,,,,,,,530,19,Man,Left,,,,,,,,,,,,,,,,,530,19,Man,Left,
4,2,0.4,180,0,0,0.5485684999948717,['y'],0.48868080000102054,2.0,,,,,,,,530,19,Man,Left,,,,,,,,,,,,,,,,,530,19,Man,Left,
4,2,0.15,180,0,0,0.9911165000012261,['y'],0.3065816000016639,2.0,,,,,,,,530,19,Man,Left,,,,,,,,,,,,,,,,,530,19,Man,Left,
4,2,0.4,0,180,180,0.31107650000194553,['y'],0.7104422999982489,2.0,9,6,10,6,0.9,1.0,,530,19,Man,Left,,,,,,,,,,,,,,,,,530,19,Man,Left,
5,3,1.0,0,-,180,0.8873405999984243,['n'],1.2542583999966155,2.0,,,,,,,,530,19,Man,Left,,,,,,,,,,,,,,,,,530,19,Man,Left,
5,3,1.0,0,-,0,0.7403629999971599,['n'],0.3136391000007279,2.0,,,,,,,,530,19,Man,Left,,,,,,,,,,,,,,,,,530,19,Man,Left,
5,3,0.15,180,0,0,1.3197249000004376,['y'],0.75829910000175,1.686,,,,,,,,530,19,Man,Left,,,,,,,,,,,,,,,,,530,19,Man,Left,
5,3,0.4,180,0,0,0.29685159999644384,['y'],0.576013600002625,2.0,,,,,,,,530,19,Man,Left,,,,,,,,,,,,,,,,,530,19,Man,Left,
5,3,0.15,0,180,180,0.3127041000043391,['y'],2.2158155999932205,2.0,,,,,,,,530,19,Man,Left,,,,,,,,,,,,,,,,,530,19,Man,Left,
5,3,0.4,180,0,0,0.34390500000154134,['y'],0.25203249999321997,2.0,,,,,,,,530,19,Man,Left,,,,,,,,,,,,,,,,,530,19,Man,Left,
5,3,1.0,180,0,0,0.253153999998176,['y'],0.44678209999983665,2.0,,,,,,,,530,19,Man,Left,,,,,,,,,,,,,,,,,530,19,Man,Left,
5,3,0.15,180,-,0,0.2827993000028073,['y'],0.7288508999990881,1.0,,,,,,,,530,19,Man,Left,,,,,,,,,,,,,,,,,530,19,Man,Left,
5,3,0.4,180,-,180,0.42836930000339635,['n'],0.253919800001313,2.0,,,,,,,,530,19,Man,Left,,,,,,,,,,,,,,,,,530,19,Man,Left,
5,3,0.4,180,0,0,0.35040469999512425,['y'],0.23732809999637539,2.0,8,6,10,7,0.8,0.8571428571428571,,530,19,Man,Left,,,,,,,,,,,,,,,,,530,19,Man,Left,
,,,,,,,,,,,,,,,,5.000001692678779e-06,530,19,Man,Left,,,,,,,,,,,,,,,,,530,19,Man,Left,
,,,,,,,,,,,,,,,,,530,19,Man,Left,0,67,0.15,2,180,0,0,1.1875138000032166,['y'],3.311660400002438,1.288,270.4667969000002,,,,,530,19,Man,Left,
,,,,,,,,,,,,,,,,,530,19,Man,Left,0,2,1,1,180,-,180,0.4127617999984068,['n'],2.0798735999997007,2.0,276.48471750000317,,,,,530,19,Man,Left,
,,,,,,,,,,,,,,,,,530,19,Man,Left,0,31,0.4,2,180,0,0,0.42578080000384944,['y'],1.1673760999983642,2.0,280.55097090000345,,,,,530,19,Man,Left,
,,,,,,,,,,,,,,,,,530,19,Man,Left,0,27,0.4,2,180,0,0,0.28067530000407714,['y'],0.8235476999980165,2.0,283.9002831999969,,,,,530,19,Man,Left,
,,,,,,,,,,,,,,,,,530,19,Man,Left,0,34,0.4,1,180,-,180,0.49778320000041276,['n'],0.7990216999969562,2.0,287.65023680000013,,,,,530,19,Man,Left,
,,,,,,,,,,,,,,,,,530,19,Man,Left,0,53,0.15,2,0,180,0,1.019701699995494,['n'],0.7589443999968353,1.748,292.7667383000007,,,,,530,19,Man,Left,
,,,,,,,,,,,,,,,,,530,19,Man,Left,0,35,0.4,2,180,0,0,0.28110880000167526,['y'],0.9594684999974561,2.0,296.4340613000022,,,,,530,19,Man,Left,
,,,,,,,,,,,,,,,,,530,19,Man,Left,0,45,0.15,2,0,180,0,1.0364121000020532,['n'],2.056429299998854,1.764,302.31713399999717,,,,,530,19,Man,Left,
,,,,,,,,,,,,,,,,,530,19,Man,Left,0,52,0.15,1,0,-,0,1.988830099995539,['n'],2.5599877999993623,1.0,309.45022020000033,,,,,530,19,Man,Left,
,,,,,,,,,,,,,,,,,530,19,Man,Left,0,50,0.15,1,180,-,0,3.2867561999955797,['n'],0.9757731999998214,1.19,316.61673840000003,,,,,530,19,Man,Left,
,,,,,,,,,,,,,,,,,530,19,Man,Left,0,49,0.15,2,0,180,0,1.2334991999960039,['n'],2.727898600001936,1.1179999999999999,324.3666574000017,,,,,530,19,Man,Left,
,,,,,,,,,,,,,,,,,530,19,Man,Left,0,13,0.4,2,0,180,180,1.0999449000009918,['y'],1.1359949000034248,1.88,330.36746120000316,,,,,530,19,Man,Left,
,,,,,,,,,,,,,,,,,530,19,Man,Left,0,56,0.15,1,0,-,180,2.350358399999095,['n'],1.7755468000032124,1.192,337.95009169999685,,,,,530,19,Man,Left,
,,,,,,,,,,,,,,,,,530,19,Man,Left,0,37,0.4,2,0,180,180,0.7908051999984309,['y'],0.9192925999959698,2.0,342.1672901999991,,,,,530,19,Man,Left,
,,,,,,,,,,,,,,,,,530,19,Man,Left,0,28,0.4,1,0,-,0,0.8506359999955748,['n'],0.7788718000010704,1.626,346.5334561999989,,,,,530,19,Man,Left,
,,,,,,,,,,,,,,,,,530,19,Man,Left,0,48,0.15,1,0,-,0,2.8812905000013416,['n'],2.479995900001086,1.304,354.5500064000007,,,,,530,19,Man,Left,
,,,,,,,,,,,,,,,,,530,19,Man,Left,0,39,0.4,2,180,0,180,0.8502835000035702,['n'],0.8895991000026697,1.992,359.38421209999797,,,,,530,19,Man,Left,
,,,,,,,,,,,,,,,,,530,19,Man,Left,0,43,0.4,2,180,0,180,0.41518250000081025,['n'],2.6318375000046217,1.824,365.4009592000002,,,,,530,19,Man,Left,
,,,,,,,,,,,,,,,,,530,19,Man,Left,0,15,0.4,2,180,0,0,0.5911876000027405,['y'],0.7834688000002643,1.824,369.3838422999979,,,,,530,19,Man,Left,
,,,,,,,,,,,,,,,,,530,19,Man,Left,0,77,0.15,2,0,180,180,1.006683300001896,['n'],2.0392267999995966,1.198,375.6850250999996,,,,,530,19,Man,Left,
,,,,,,,,,,,,,,,,,530,19,Man,Left,0,6,1,1,180,-,180,0.6452408999975887,['n'],0.8634141999937128,2.0,379.5166124000025,,,,,530,19,Man,Left,
,,,,,,,,,,,,,,,,,530,19,Man,Left,0,1,1,2,0,180,180,0.5000807999967947,['y'],1.3036613000003854,2.0,383.63400430000183,,,,,530,19,Man,Left,
,,,,,,,,,,,,,,,,,530,19,Man,Left,0,51,0.15,2,180,0,0,1.20038509999722,['n'],0.7993754999988596,1.162,388.40006020000146,,,,,530,19,Man,Left,
,,,,,,,,,,,,,,,,,530,19,Man,Left,0,21,0.4,2,0,180,180,0.3964161999974749,['y'],0.7831170999997994,2.0,391.9837059999991,,,,,530,19,Man,Left,
,,,,,,,,,,,,,,,,,530,19,Man,Left,0,29,0.4,2,0,180,180,0.47507629999745404,['y'],0.6872316000008141,2.0,395.45013189999736,,,,,530,19,Man,Left,
,,,,,,,,,,,,,,,,,530,19,Man,Left,0,58,0.15,1,180,-,0,1.2644250000012107,['n'],1.5917823999989196,1.154,401.28318910000235,,,,,530,19,Man,Left,
,,,,,,,,,,,,,,,,,530,19,Man,Left,0,8,0.4,1,0,-,0,0.4558041999989655,['y'],0.5907988999970257,1.1280000000000001,406.134017700002,,,,,530,19,Man,Left,
,,,,,,,,,,,,,,,,,530,19,Man,Left,0,7,1,2,180,0,0,0.6546266000004834,['y'],0.8951760999989347,2.0,410.799809600001,,,,,530,19,Man,Left,
,,,,,,,,,,,,,,,,,530,19,Man,Left,0,22,0.4,1,180,-,180,0.5653845999986515,['n'],0.8237457999930484,1.724,414.65012540000316,,,,,530,19,Man,Left,
,,,,,,,,,,,,,,,,,530,19,Man,Left,0,73,0.15,2,0,180,0,0.42040930000075605,['n'],0.7198253000024124,1.808,418.36658120000357,,,,,530,19,Man,Left,
,,,,,,,,,,,,,,,,,530,19,Man,Left,0,14,0.4,1,180,-,180,1.0875311999989208,['n'],0.999559700001555,1.764,423.4338776000004,,,,,530,19,Man,Left,
,,,,,,,,,,,,,,,,,530,19,Man,Left,0,18,0.4,1,180,-,180,0.912010599997302,['n'],1.3836598999987473,1.706,428.2677133000034,,,,,530,19,Man,Left,
,,,,,,,,,,,,,,,,,530,19,Man,Left,0,63,0.15,2,180,0,0,2.8507890999972005,['n'],1.343365000000631,1.0,435.7499953000006,,,,,530,19,Man,Left,
,,,,,,,,,,,,,,,,,530,19,Man,Left,0,64,0.15,1,0,-,0,0.6984349999984261,['n'],0.6396057999954792,1.0,439.4832291999992,,,,,530,19,Man,Left,
,,,,,,,,,,,,,,,,,530,19,Man,Left,0,24,0.4,1,0,-,0,0.41224650000367546,['n'],0.5754920000035781,1.0,442.99993079999695,,,,,530,19,Man,Left,
,,,,,,,,,,,,,,,,,530,19,Man,Left,0,59,0.15,2,180,0,0,2.2938747000007425,['n'],1.6558986000018194,1.0,449.3165353000004,,,,,530,19,Man,Left,
,,,,,,,,,,,,,,,,,530,19,Man,Left,0,44,0.15,1,0,-,0,1.0531551999956719,['n'],0.5681420999972033,1.0,453.3997939999972,,,,,530,19,Man,Left,
,,,,,,,,,,,,,,,,,530,19,Man,Left,0,9,0.4,2,0,180,180,1.0585714999979245,['y'],0.8071033999949577,2.0,457.84987569999794,,,,,530,19,Man,Left,
,,,,,,,,,,,,,,,,,530,19,Man,Left,0,65,0.15,2,0,180,0,0.9135482000056072,['n'],0.7752909000046202,1.17,462.35001159999956,,,,,530,19,Man,Left,
,,,,,,,,,,,,,,,,,530,19,Man,Left,0,36,0.4,1,0,-,0,1.0666669000056572,['n'],0.5888687999977265,1.154,466.79973379999865,,,,,530,19,Man,Left,
,,,,,,,,,,,,,,,,,530,19,Man,Left,0,78,0.15,1,180,-,0,0.692710099996475,['n'],1.3513306000022567,1.1320000000000001,473.96651399999973,,,,,530,19,Man,Left,
,,,,,,,,,,,,,,,,,530,19,Man,Left,0,71,0.15,2,180,0,0,3.1529481999968993,['n'],0.5916403999945032,1.42,482.449806800003,,,,,530,19,Man,Left,
,,,,,,,,,,,,,,,,,530,19,Man,Left,0,30,0.4,1,180,-,180,0.46832540000468725,['n'],0.9833415000030072,1.706,486.99980009999854,,,,,530,19,Man,Left,
,,,,,,,,,,,,,,,,,530,19,Man,Left,0,70,0.15,1,180,-,180,1.3763752999948338,['n'],2.935694300002069,1.302,494.6163772,,,,,530,19,Man,Left,
,,,,,,,,,,,,,,,,,530,19,Man,Left,0,42,0.4,1,180,-,180,0.4879900000014459,['n'],0.5276750999983051,1.908,498.06712870000047,,,,,530,19,Man,Left,
,,,,,,,,,,,,,,,,,530,19,Man,Left,0,79,0.15,2,180,0,180,0.98762639999768,['n'],0.984193199998117,1.748,502.61644060000253,,,,,530,19,Man,Left,
,,,,,,,,,,,,,,,,,530,19,Man,Left,0,69,0.15,2,0,180,0,0.9360222999966936,['n'],1.6727592999959597,1.326,508.01712730000145,,,,,530,19,Man,Left,
,,,,,,,,,,,,,,,,,530,19,Man,Left,0,57,0.15,2,0,180,0,1.5122313000028953,['n'],0.350973000000522,1.206,512.6671163999999,,,,,530,19,Man,Left,
,,,,,,,,,,,,,,,,,530,19,Man,Left,0,55,0.15,2,180,0,0,0.9556145000024117,['n'],0.3743733000010252,1.25,516.5337629999995,,,,,530,19,Man,Left,
,,,,,,,,,,,,,,,,,530,19,Man,Left,0,72,0.15,1,0,-,180,1.4499273999972502,['n'],1.2243822000018554,1.234,522.1670577999976,,,,,530,19,Man,Left,
,,,,,,,,,,,,,,,,,530,19,Man,Left,0,12,0.4,1,0,-,0,1.0168997000000672,['n'],0.7878046999976505,1.616,526.5170843000014,,,,,530,19,Man,Left,
,,,,,,,,,,,,,,,,,530,19,Man,Left,0,66,0.15,1,180,-,180,0.615030699998897,['n'],0.5917029999982333,1.236,530.2830443999992,,,,,530,19,Man,Left,
,,,,,,,,,,,,,,,,,530,19,Man,Left,0,20,0.4,1,0,-,0,0.5520631999970647,['n'],0.7187494999961928,1.69,536.5837238000022,,,,,530,19,Man,Left,
,,,,,,,,,,,,,,,,,530,19,Man,Left,0,76,0.15,1,0,-,0,0.7504059999992023,['n'],0.4639554000023054,1.17,540.4171031000005,,,,,530,19,Man,Left,
,,,,,,,,,,,,,,,,,530,19,Man,Left,0,47,0.15,2,180,0,0,0.8918465000024298,['n'],0.3593276000028709,1.1019999999999999,544.1839760000003,,,,,530,19,Man,Left,
,,,,,,,,,,,,,,,,,530,19,Man,Left,0,41,0.4,2,0,180,180,1.0850556000004872,['y'],0.7993367000017315,2.0,548.5673121,,,,,530,19,Man,Left,
,,,,,,,,,,,,,,,,,530,19,Man,Left,0,0,1,1,0,-,0,0.5049684999976307,['n'],0.48803919999772916,2.0,551.8997833999965,,,,,530,19,Man,Left,
,,,,,,,,,,,,,,,,,530,19,Man,Left,0,74,0.15,1,180,-,180,0.56356329999835,['n'],1.0868362999972305,2.0,555.8670660999996,,,,,530,19,Man,Left,
,,,,,,,,,,,,,,,,,530,19,Man,Left,0,33,0.4,2,0,180,180,0.9742649999971036,['y'],2.167405399995914,2.0,561.2995518000025,,,,,530,19,Man,Left,
,,,,,,,,,,,,,,,,,530,19,Man,Left,0,11,0.4,2,180,0,0,1.8619456999949762,['y'],0.9756801999974414,2.0,566.4334938000029,,,,,530,19,Man,Left,
,,,,,,,,,,,,,,,,,530,19,Man,Left,0,25,0.4,2,0,180,180,0.5690421999970567,['y'],1.4070481000017026,2.0,570.6830167000007,,,,,530,19,Man,Left,
,,,,,,,,,,,,,,,,,530,19,Man,Left,0,75,0.15,2,180,0,180,0.7675944000002346,['n'],2.4474999999947613,1.318,576.6329320000004,,,,,530,19,Man,Left,
,,,,,,,,,,,,,,,,,530,19,Man,Left,0,60,0.15,1,0,-,0,1.0909667000014451,['n'],0.943841500004055,1.234,581.7496610000017,,,,,530,19,Man,Left,
,,,,,,,,,,,,,,,,,530,19,Man,Left,0,54,0.15,1,180,-,180,1.0071984000023804,['n'],0.3998330999966129,1.242,585.6162870999979,,,,,530,19,Man,Left,
,,,,,,,,,,,,,,,,,530,19,Man,Left,0,61,0.15,2,0,180,180,1.6733911999981501,['n'],0.4157861999992747,1.162,590.7669908000025,,,,,530,19,Man,Left,
,,,,,,,,,,,,,,,,,530,19,Man,Left,0,16,0.4,1,0,-,180,3.2090532000001986,['n'],6.15239119999751,1.208,602.9495505000014,,,,,530,19,Man,Left,
,,,,,,,,,,,,,,,,,530,19,Man,Left,0,26,0.4,1,180,-,0,0.8089961000005133,['y'],1.1432043000022531,1.788,607.4996057000026,,,,,530,19,Man,Left,
,,,,,,,,,,,,,,,,,530,19,Man,Left,0,38,0.4,1,180,-,180,0.603791800000181,['n'],0.3592120999965118,1.734,611.3507383999968,,,,,530,19,Man,Left,
,,,,,,,,,,,,,,,,,530,19,Man,Left,0,40,0.4,1,0,-,0,0.4495494000002509,['n'],1.2633638999977848,1.758,615.4004179999974,,,,,530,19,Man,Left,
,,,,,,,,,,,,,,,,,530,19,Man,Left,0,5,1,2,0,180,180,0.4397112000006018,['y'],0.4795209000003524,2.0,618.6163008000003,,,,,530,19,Man,Left,
,,,,,,,,,,,,,,,,,530,19,Man,Left,0,23,0.4,2,180,0,180,1.0318411000043852,['n'],0.6152746999941883,1.256,624.1177307000034,,,,,530,19,Man,Left,
,,,,,,,,,,,,,,,,,530,19,Man,Left,0,4,1,1,0,-,0,0.4180640999984462,['n'],0.951728699998057,2.0,627.7994806999995,,,,,530,19,Man,Left,
,,,,,,,,,,,,,,,,,530,19,Man,Left,0,17,0.4,2,0,180,180,0.8741545000011683,['y'],0.8476926999937859,1.824,632.3996238000036,,,,,530,19,Man,Left,
,,,,,,,,,,,,,,,,,530,19,Man,Left,0,32,0.4,1,0,-,0,0.8243968000024324,['n'],0.5436964000036824,1.236,636.4338115999999,,,,,530,19,Man,Left,
,,,,,,,,,,,,,,,,,530,19,Man,Left,0,3,1,2,180,0,0,1.506105500004196,['y'],2.2242409999962547,2.0,642.4162935999993,,,,,530,19,Man,Left,
,,,,,,,,,,,,,,,,,530,19,Man,Left,0,10,0.4,1,180,-,180,0.8344253999966895,['n'],0.512373799996567,1.792,647.7668032000001,,,,,530,19,Man,Left,
,,,,,,,,,,,,,,,,,530,19,Man,Left,0,62,0.15,1,180,-,180,0.5426405999969575,['n'],0.48691169999801787,1.168,651.184422600003,,,,,530,19,Man,Left,
,,,,,,,,,,,,,,,,,530,19,Man,Left,0,19,0.4,2,180,0,0,3.662638699999661,['y'],1.9996819000007235,1.71,662.567197700002,,,,,530,19,Man,Left,
,,,,,,,,,,,,,,,,,530,19,Man,Left,0,46,0.15,1,180,-,0,2.308907899998303,['y'],1.0163536000036402,1.286,668.9994520000037,,,,,530,19,Man,Left,
,,,,,,,,,,,,,,,,,530,19,Man,Left,0,68,0.15,1,0,-,180,1.153027700005623,['y'],2.104090600005293,1.0,674.7994573999968,,,,,530,19,Man,Left,
,,,,,,,,,,,,,,,,,530,19,Man,Left,1,2,1,1,180,-,180,0.46524630000203615,['n'],1.0075422000008984,2.0,707.7660792000024,73.75,90.0,50.0,,530,19,Man,Left,
,,,,,,,,,,,,,,,,,530,19,Man,Left,1,40,0.4,1,0,-,0,0.4832163000028231,['n'],1.8473110000049928,2.0,712.5826769999985,,,,,530,19,Man,Left,
,,,,,,,,,,,,,,,,,530,19,Man,Left,1,24,0.4,1,0,-,0,0.7826071999952546,['n'],1.079825200002233,2.0,717.0828285000025,,,,,530,19,Man,Left,
,,,,,,,,,,,,,,,,,530,19,Man,Left,1,55,0.15,2,180,0,0,1.4365336999981082,['n'],0.6552297999951406,1.006,722.5333630000023,,,,,530,19,Man,Left,
,,,,,,,,,,,,,,,,,530,19,Man,Left,1,10,0.4,1,180,-,180,0.36173689999850467,['n'],0.6796375000049011,2.0,725.9994450000013,,,,,530,19,Man,Left,
,,,,,,,,,,,,,,,,,530,19,Man,Left,1,66,0.15,1,180,-,180,4.7775854999999865,['n'],7.480028300000413,1.0,741.9994449000005,,,,,530,19,Man,Left,
,,,,,,,,,,,,,,,,,530,19,Man,Left,1,9,0.4,2,0,180,180,0.7701042999979109,['y'],0.5115960000039195,2.0,745.5992541000014,,,,,530,19,Man,Left,
,,,,,,,,,,,,,,,,,530,19,Man,Left,1,6,1,1,180,-,180,0.306817199998477,['n'],0.42382740000175545,2.0,748.5995285000026,,,,,530,19,Man,Left,
,,,,,,,,,,,,,,,,,530,19,Man,Left,1,73,0.15,2,0,180,180,0.9307140999953845,['y'],1.3833258000013302,1.834,753.582822999997,,,,,530,19,Man,Left,
,,,,,,,,,,,,,,,,,530,19,Man,Left,1,48,0.15,1,0,-,0,1.1800963999994565,['n'],0.27158369999960996,1.024,757.4164547000037,,,,,530,19,Man,Left,
,,,,,,,,,,,,,,,,,530,19,Man,Left,1,18,0.4,1,180,-,180,0.4586459999991348,['n'],0.3437586999934865,2.0,760.5333690999978,,,,,530,19,Man,Left,
,,,,,,,,,,,,,,,,,530,19,Man,Left,1,53,0.15,2,0,180,180,6.616952499993204,['n'],4.414811100003135,1.1019999999999999,776.8992820999993,,,,,530,19,Man,Left,
,,,,,,,,,,,,,,,,,530,19,Man,Left,1,50,0.15,1,180,-,0,1.083555700002762,['n'],0.459925100003602,1.13,781.6325161999994,,,,,530,19,Man,Left,
,,,,,,,,,,,,,,,,,530,19,Man,Left,1,17,0.4,2,0,180,180,0.9005698000037228,['y'],0.671745200001169,1.862,785.6664911999978,,,,,530,19,Man,Left,
,,,,,,,,,,,,,,,,,530,19,Man,Left,1,34,0.4,1,180,-,0,1.2529214000023785,['y'],0.8720423000049777,1.6640000000000001,790.3992121999981,,,,,530,19,Man,Left,
,,,,,,,,,,,,,,,,,530,19,Man,Left,1,60,0.15,1,0,-,180,2.288694700000633,['y'],1.9829640999960247,1.694,797.3664930000014,,,,,530,19,Man,Left,
,,,,,,,,,,,,,,,,,530,19,Man,Left,1,74,0.15,1,180,-,180,2.3290720000004512,['y'],1.9275476000038907,1.362,804.732505,,,,,530,19,Man,Left,
,,,,,,,,,,,,,,,,,530,19,Man,Left,1,46,0.15,1,180,-,0,3.165050199997495,['y'],1.039464900000894,1.24,811.865830499999,,,,,530,19,Man,Left,
,,,,,,,,,,,,,,,,,530,19,Man,Left,1,20,0.4,1,0,-,180,0.9018335000000661,['y'],1.3429752000010922,1.7,816.615904600003,,,,,530,19,Man,Left,
,,,,,,,,,,,,,,,,,530,19,Man,Left,1,0,1,1,0,-,0,0.3636160000023665,['n'],1.6234917999972822,2.0,820.9659119999997,,,,,530,19,Man,Left,
,,,,,,,,,,,,,,,,,530,19,Man,Left,1,42,0.4,1,180,-,0,1.940622699999949,['y'],0.759716100001242,1.6320000000000001,826.449225299999,,,,,530,19,Man,Left,
,,,,,,,,,,,,,,,,,530,19,Man,Left,1,27,0.4,2,180,0,0,0.7107571999949869,['y'],1.0477386999991722,1.71,831.399224300003,,,,,530,19,Man,Left,
,,,,,,,,,,,,,,,,,530,19,Man,Left,1,49,0.15,2,0,180,180,1.9243270000006305,['y'],0.287689999997383,1.168,836.6158097000007,,,,,530,19,Man,Left,
,,,,,,,,,,,,,,,,,530,19,Man,Left,1,41,0.4,2,0,180,180,0.7946343999938108,['y'],0.8469781000021612,2.0,840.5324447000021,,,,,530,19,Man,Left,
,,,,,,,,,,,,,,,,,530,19,Man,Left,1,78,0.15,1,180,-,0,0.7282445000018924,['y'],1.2399619999996503,1.73,844.9665042999986,,,,,530,19,Man,Left,
,,,,,,,,,,,,,,,,,530,19,Man,Left,1,8,0.4,1,0,-,180,1.5191126999998232,['y'],0.6871519999986049,1.6400000000000001,849.6489627999981,,,,,530,19,Man,Left,
,,,,,,,,,,,,,,,,,530,19,Man,Left,1,59,0.15,2,180,0,0,0.6691213000012795,['y'],0.7603550999992876,1.6099999999999999,853.5331807999974,,,,,530,19,Man,Left,
,,,,,,,,,,,,,,,,,530,19,Man,Left,1,12,0.4,1,0,-,180,3.793865100000403,['n'],0.4879559999972116,1.278,860.3334547999984,,,,,530,19,Man,Left,
,,,,,,,,,,,,,,,,,530,19,Man,Left,1,45,0.15,2,0,180,180,1.0108108000131324,['y'],0.6477807000046596,1.642,864.3658078000008,,,,,530,19,Man,Left,
,,,,,,,,,,,,,,,,,530,19,Man,Left,1,15,0.4,2,180,0,0,0.3946575000009034,['y'],0.8228383000096073,1.6139999999999999,867.9832813999965,,,,,530,19,Man,Left,
,,,,,,,,,,,,,,,,,530,19,Man,Left,1,35,0.4,2,180,0,0,0.3297714000073029,['y'],1.3281408999901032,1.8599999999999999,873.549053099996,,,,,530,19,Man,Left,
,,,,,,,,,,,,,,,,,530,19,Man,Left,1,44,0.15,1,0,-,0,1.0852239000087138,['y'],0.8065764000057243,1.676,877.9992138999951,,,,,530,19,Man,Left,
,,,,,,,,,,,,,,,,,530,19,Man,Left,1,5,1,2,0,180,180,0.4099677000049269,['y'],0.399366600002395,2.0,881.0663207000034,,,,,530,19,Man,Left,
,,,,,,,,,,,,,,,,,530,19,Man,Left,1,70,0.15,1,180,-,180,1.192240699994727,['y'],0.871644999991986,1.1440000000000001,886.6826370000053,,,,,530,19,Man,Left,
,,,,,,,,,,,,,,,,,530,19,Man,Left,1,61,0.15,2,0,180,180,1.327978700006497,['y'],1.7038185999990674,1.322,892.4990414000058,,,,,530,19,Man,Left,
,,,,,,,,,,,,,,,,,530,19,Man,Left,1,47,0.15,2,180,0,0,1.0555074000003515,['y'],0.4637686000060057,1.292,896.8164848000015,,,,,530,19,Man,Left,
,,,,,,,,,,,,,,,,,530,19,Man,Left,1,63,0.15,2,180,0,180,2.6369344999984605,['y'],2.5437811000010697,1.0,904.5164731999976,,,,,530,19,Man,Left,
,,,,,,,,,,,,,,,,,530,19,Man,Left,1,14,0.4,1,180,-,180,2.0809142000071006,['n'],0.6555262000038056,1.5779999999999998,910.3330606999953,,,,,530,19,Man,Left,
,,,,,,,,,,,,,,,,,530,19,Man,Left,1,52,0.15,1,0,-,0,0.8437094000109937,['y'],0.6388347000029171,1.338,914.4329908000072,,,,,530,19,Man,Left,
,,,,,,,,,,,,,,,,,530,19,Man,Left,1,4,1,1,0,-,0,2.91803919999802,['n'],0.8479083999991417,1.802,922.3830009999947,,,,,530,19,Man,Left,
,,,,,,,,,,,,,,,,,530,19,Man,Left,1,75,0.15,2,180,0,180,2.2585509000055026,['y'],0.27905420000024606,1.186,927.9490647000057,,,,,530,19,Man,Left,
,,,,,,,,,,,,,,,,,530,19,Man,Left,1,26,0.4,1,180,-,180,2.5214889000053518,['n'],1.056214500000351,1.3559999999999999,935.3824523999938,,,,,530,19,Man,Left,
,,,,,,,,,,,,,,,,,530,19,Man,Left,1,69,0.15,2,0,180,180,0.8105414000019664,['y'],0.6557608000002801,1.388,940.3489153999981,,,,,530,19,Man,Left,
,,,,,,,,,,,,,,,,,530,19,Man,Left,1,1,1,2,0,180,180,0.7336836999893421,['y'],0.4397051999985706,2.0,943.715640800001,,,,,530,19,Man,Left,
,,,,,,,,,,,,,,,,,530,19,Man,Left,1,39,0.4,2,180,0,0,0.4167345000023488,['y'],0.562890500004869,2.0,946.9833930000023,,,,,530,19,Man,Left,
,,,,,,,,,,,,,,,,,530,19,Man,Left,1,28,0.4,1,0,-,0,1.7871204999973997,['n'],0.5598424000054365,1.24,952.6833222999994,,,,,530,19,Man,Left,
,,,,,,,,,,,,,,,,,530,19,Man,Left,1,72,0.15,1,0,-,180,1.7517167999903904,['n'],0.31991449999623,1.01,957.9322246999945,,,,,530,19,Man,Left,
,,,,,,,,,,,,,,,,,530,19,Man,Left,1,68,0.15,1,0,-,180,2.4674655999988317,['n'],1.2488755000085803,1.174,964.3663442999969,,,,,530,19,Man,Left,
,,,,,,,,,,,,,,,,,530,19,Man,Left,1,7,1,2,180,0,0,0.5122109000076307,['y'],0.35911879999912344,2.0,967.3488645000034,,,,,530,19,Man,Left,
,,,,,,,,,,,,,,,,,530,19,Man,Left,1,31,0.4,2,180,0,0,0.9526086000114447,['y'],1.8630326000129571,2.0,972.3322640999977,,,,,530,19,Man,Left,
,,,,,,,,,,,,,,,,,530,19,Man,Left,1,11,0.4,2,180,0,0,0.7697097000054782,['y'],0.5109032000036677,2.0,976.4828957999998,,,,,530,19,Man,Left,
,,,,,,,,,,,,,,,,,530,19,Man,Left,1,21,0.4,2,0,180,180,0.4143981000088388,['y'],0.3826459999982035,2.0,979.4822773000051,,,,,530,19,Man,Left,
,,,,,,,,,,,,,,,,,530,19,Man,Left,1,79,0.15,2,180,0,0,0.4208615999959875,['y'],0.43137959999148734,1.802,982.6666568000073,,,,,530,19,Man,Left,
,,,,,,,,,,,,,,,,,530,19,Man,Left,1,62,0.15,1,180,-,180,2.5729176999884658,['y'],1.063765400002012,1.248,989.098856800003,,,,,530,19,Man,Left,
,,,,,,,,,,,,,,,,,530,19,Man,Left,1,36,0.4,1,0,-,0,1.139716399993631,['n'],0.5831385999917984,1.25,993.3327314000053,,,,,530,19,Man,Left,
,,,,,,,,,,,,,,,,,530,19,Man,Left,1,30,0.4,1,180,-,180,0.915099600009853,['n'],0.5834332000085851,1.192,997.2830445,,,,,530,19,Man,Left,
,,,,,,,,,,,,,,,,,530,19,Man,Left,1,3,1,2,180,0,0,0.6237473000073805,['y'],0.2873309999995399,2.0,1000.5162270000001,,,,,530,19,Man,Left,
,,,,,,,,,,,,,,,,,530,19,Man,Left,1,67,0.15,2,180,0,0,1.0204038999945624,['y'],0.943354899995029,1.228,1005.1829129999969,,,,,530,19,Man,Left,
,,,,,,,,,,,,,,,,,530,19,Man,Left,1,71,0.15,2,180,0,0,0.5744488000054844,['y'],0.40788730001077056,1.702,1008.5824409000052,,,,,530,19,Man,Left,
,,,,,,,,,,,,,,,,,530,19,Man,Left,1,16,0.4,1,0,-,180,0.42104219998873305,['y'],0.48751869999978226,1.25,1012.4162251999951,,,,,530,19,Man,Left,
,,,,,,,,,,,,,,,,,530,19,Man,Left,1,76,0.15,1,0,-,180,1.0480518999975175,['n'],1.7999303999968106,1.19,1017.7821224000072,,,,,530,19,Man,Left,
,,,,,,,,,,,,,,,,,530,19,Man,Left,1,43,0.4,2,180,0,180,1.7975833999953466,['y'],0.8079755999933695,1.6139999999999999,1022.832379200001,,,,,530,19,Man,Left,
,,,,,,,,,,,,,,,,,530,19,Man,Left,1,22,0.4,1,180,-,180,0.6850153999985196,['n'],0.23062869999557734,1.266,1026.082793900001,,,,,530,19,Man,Left,
,,,,,,,,,,,,,,,,,530,19,Man,Left,1,65,0.15,2,0,180,180,0.9213249000022188,['y'],1.3590812999900663,1.56,1031.2831321999984,,,,,530,19,Man,Left,
,,,,,,,,,,,,,,,,,530,19,Man,Left,1,29,0.4,2,0,180,180,0.43502630000875797,['y'],0.32003570000233594,2.0,1034.1829312000045,,,,,530,19,Man,Left,
,,,,,,,,,,,,,,,,,530,19,Man,Left,1,19,0.4,2,180,0,0,1.0469250000023749,['y'],0.6314343999983976,2.0,1038.0987910999975,,,,,530,19,Man,Left,
,,,,,,,,,,,,,,,,,530,19,Man,Left,1,32,0.4,1,0,-,180,0.8175294999964535,['y'],1.2720062999869697,1.706,1042.7655235999991,,,,,530,19,Man,Left,
,,,,,,,,,,,,,,,,,530,19,Man,Left,1,25,0.4,2,0,180,0,1.7615508000017144,['y'],0.8396348999958718,1.624,1047.715821699996,,,,,530,19,Man,Left,
,,,,,,,,,,,,,,,,,530,19,Man,Left,1,54,0.15,1,180,-,0,1.6826352999923984,['y'],0.766822300007334,1.3860000000000001,1053.0660376000014,,,,,530,19,Man,Left,
,,,,,,,,,,,,,,,,,530,19,Man,Left,1,77,0.15,2,0,180,0,1.990051400003722,['y'],2.663856199986185,1.0,1059.9993376000057,,,,,530,19,Man,Left,
,,,,,,,,,,,,,,,,,530,19,Man,Left,1,13,0.4,2,0,180,0,2.505183400004171,['y'],3.3596880999975838,1.722,1068.898949800001,,,,,530,19,Man,Left,
,,,,,,,,,,,,,,,,,530,19,Man,Left,1,23,0.4,2,180,0,0,2.3433062999974936,['y'],0.9757366999983788,1.646,1074.5488054000016,,,,,530,19,Man,Left,
,,,,,,,,,,,,,,,,,530,19,Man,Left,1,33,0.4,2,0,180,180,0.3166149999888148,['y'],0.3032590000075288,1.696,1077.599216100003,,,,,530,19,Man,Left,
,,,,,,,,,,,,,,,,,530,19,Man,Left,1,38,0.4,1,180,-,180,1.155329500004882,['n'],0.26269950000278186,1.186,1081.4490742000053,,,,,530,19,Man,Left,
,,,,,,,,,,,,,,,,,530,19,Man,Left,1,37,0.4,2,0,180,180,0.6744078999909107,['y'],0.3036202999937814,1.688,1084.7662369000027,,,,,530,19,Man,Left,
,,,,,,,,,,,,,,,,,530,19,Man,Left,1,51,0.15,2,180,0,0,0.878797500001383,['y'],0.5347595999919577,1.662,1088.5162839999975,,,,,530,19,Man,Left,
,,,,,,,,,,,,,,,,,530,19,Man,Left,1,56,0.15,1,0,-,180,0.9365845000138506,['y'],0.8156519000040134,1.596,1092.9487300000037,,,,,530,19,Man,Left,
,,,,,,,,,,,,,,,,,530,19,Man,Left,1,64,0.15,1,0,-,180,0.9139638999913586,['y'],1.263319899997441,1.0,1097.4828095999983,,,,,530,19,Man,Left,
,,,,,,,,,,,,,,,,,530,19,Man,Left,1,57,0.15,2,0,180,180,1.2671300999936648,['n'],1.0074864000052912,1.0,1102.132015199997,,,,,530,19,Man,Left,
,,,,,,,,,,,,,,,,,530,19,Man,Left,1,58,0.15,1,180,-,180,1.4259416999993846,['n'],0.3195811999903526,1.0,1106.1996649000066,,,,,530,19,Man,Left,
,,,,,,,,,,,,,,,,,530,19,Man,Left,2,77,0.15,2,0,180,180,1.650674299991806,['y'],5.328340100008063,1.3359999999999999,1133.8319555000053,71.25,57.5,92.5,,530,19,Man,Left,
,,,,,,,,,,,,,,,,,530,19,Man,Left,2,34,0.4,1,180,-,180,1.068435799999861,['y'],0.8798406999994768,1.254,1138.1987078999955,,,,,530,19,Man,Left,
,,,,,,,,,,,,,,,,,530,19,Man,Left,2,79,0.15,2,180,0,0,1.598851900009322,['n'],1.1842142999958014,1.276,1143.282426100006,,,,,530,19,Man,Left,
,,,,,,,,,,,,,,,,,530,19,Man,Left,2,76,0.15,1,0,-,0,2.8667788000020664,['y'],1.375480400005472,1.154,1149.8826171999972,,,,,530,19,Man,Left,
,,,,,,,,,,,,,,,,,530,19,Man,Left,2,19,0.4,2,180,0,0,0.907041800004663,['y'],0.7351315000123577,1.716,1153.8652030999947,,,,,530,19,Man,Left,
,,,,,,,,,,,,,,,,,530,19,Man,Left,2,10,0.4,1,180,-,180,0.9002494999876944,['n'],0.4797034000075655,1.238,1157.716247999997,,,,,530,19,Man,Left,
,,,,,,,,,,,,,,,,,530,19,Man,Left,2,7,1,2,180,0,0,0.6974774999980582,['y'],0.4076904000103241,2.0,1160.965935500004,,,,,530,19,Man,Left,
,,,,,,,,,,,,,,,,,530,19,Man,Left,2,72,0.15,1,0,-,0,1.8484267000021646,['y'],1.6394680999947013,1.096,1166.9659885,,,,,530,19,Man,Left,
,,,,,,,,,,,,,,,,,530,19,Man,Left,2,59,0.15,2,180,0,0,0.6034451999876183,['y'],2.2552419999992708,1.674,1172.1659324000066,,,,,530,19,Man,Left,
,,,,,,,,,,,,,,,,,530,19,Man,Left,2,45,0.15,2,0,180,180,5.522696100000758,['y'],0.6638042999984464,1.396,1181.4988755999948,,,,,530,19,Man,Left,
,,,,,,,,,,,,,,,,,530,19,Man,Left,2,22,0.4,1,180,-,180,1.2210042999940924,['n'],0.15130549999594223,1.1560000000000001,1185.5818792000064,,,,,530,19,Man,Left,
,,,,,,,,,,,,,,,,,530,19,Man,Left,2,40,0.4,1,0,-,180,1.739962799998466,['y'],0.7031662000081269,1.6480000000000001,1190.3659138999938,,,,,530,19,Man,Left,
,,,,,,,,,,,,,,,,,530,19,Man,Left,2,0,1,1,0,-,0,0.7560083999997005,['n'],0.6387786000123015,1.99,1194.398695099997,,,,,530,19,Man,Left,
,,,,,,,,,,,,,,,,,530,19,Man,Left,2,66,0.15,1,180,-,0,2.7317877000023145,['n'],0.4715510000096401,1.244,1200.7657334999967,,,,,530,19,Man,Left,
,,,,,,,,,,,,,,,,,530,19,Man,Left,2,20,0.4,1,0,-,0,0.6398490999999922,['n'],0.31193419999908656,1.026,1205.0651444999967,,,,,530,19,Man,Left,
,,,,,,,,,,,,,,,,,530,19,Man,Left,2,33,0.4,2,0,180,180,0.9622584000026109,['y'],0.5748949999979232,1.71,1209.0818403000012,,,,,530,19,Man,Left,
,,,,,,,,,,,,,,,,,530,19,Man,Left,2,55,0.15,2,180,0,180,1.6717254999966826,['n'],0.35130959999514744,1.288,1213.732430899996,,,,,530,19,Man,Left,
,,,,,,,,,,,,,,,,,530,19,Man,Left,2,49,0.15,2,0,180,180,1.649233499992988,['n'],0.2955675999983214,1.1520000000000001,1218.5161253999977,,,,,530,19,Man,Left,
,,,,,,,,,,,,,,,,,530,19,Man,Left,2,39,0.4,2,180,0,0,0.6338935999956448,['y'],0.35206409999227617,2.0,1221.6327858000004,,,,,530,19,Man,Left,
,,,,,,,,,,,,,,,,,530,19,Man,Left,2,61,0.15,2,0,180,0,1.0769354000076419,['n'],0.30323250000947155,1.278,1225.6167197000032,,,,,530,19,Man,Left,
,,,,,,,,,,,,,,,,,530,19,Man,Left,2,6,1,1,180,-,180,0.6442799999931594,['n'],0.7754378999961773,2.0,1229.2659365,,,,,530,19,Man,Left,
,,,,,,,,,,,,,,,,,530,19,Man,Left,2,31,0.4,2,180,0,0,0.7390900000027614,['y'],0.4159403000085149,2.0,1232.915097300007,,,,,530,19,Man,Left,
,,,,,,,,,,,,,,,,,530,19,Man,Left,2,56,0.15,1,0,-,0,1.2736807000037516,['y'],1.3601811999978963,1.6440000000000001,1238.1493743000028,,,,,530,19,Man,Left,
,,,,,,,,,,,,,,,,,530,19,Man,Left,2,68,0.15,1,0,-,0,2.0117942999931984,['y'],2.344359099995927,1.0,1244.8650000000052,,,,,530,19,Man,Left,
,,,,,,,,,,,,,,,,,530,19,Man,Left,2,12,0.4,1,0,-,0,0.796151499991538,['n'],0.5428207999939332,1.27,1249.3993135000055,,,,,530,19,Man,Left,
,,,,,,,,,,,,,,,,,530,19,Man,Left,2,51,0.15,2,180,0,0,2.3800644999864744,['y'],0.6712365999992471,1.604,1254.8324341999978,,,,,530,19,Man,Left,
,,,,,,,,,,,,,,,,,530,19,Man,Left,2,16,0.4,1,0,-,0,1.7647934999986319,['y'],2.2152168000029633,1.298,1261.316688699997,,,,,530,19,Man,Left,
,,,,,,,,,,,,,,,,,530,19,Man,Left,2,32,0.4,1,0,-,0,1.5678470999991987,['n'],0.3108015999896452,1.0,1265.7823244000028,,,,,530,19,Man,Left,
,,,,,,,,,,,,,,,,,530,19,Man,Left,2,8,0.4,1,0,-,0,3.7267562999913935,['y'],0.6231463000003714,1.342,1272.7317221999983,,,,,530,19,Man,Left,
,,,,,,,,,,,,,,,,,530,19,Man,Left,2,44,0.15,1,0,-,180,0.9338232999871252,['n'],1.3836998000042513,1.016,1277.6149519000028,,,,,530,19,Man,Left,
,,,,,,,,,,,,,,,,,530,19,Man,Left,2,48,0.15,1,0,-,0,2.414892700006021,['y'],0.47156900000118185,1.15,1284.481669899993,,,,,530,19,Man,Left,
,,,,,,,,,,,,,,,,,530,19,Man,Left,2,3,1,2,180,0,0,1.9081108000100357,['y'],0.7923752000060631,2.0,1289.3986163999944,,,,,530,19,Man,Left,
,,,,,,,,,,,,,,,,,530,19,Man,Left,2,23,0.4,2,180,0,0,0.6778640999982599,['y'],1.0952518999984022,2.0,1293.864975400007,,,,,530,19,Man,Left,
,,,,,,,,,,,,,,,,,530,19,Man,Left,2,21,0.4,2,0,180,180,1.496435199995176,['y'],0.5195400999946287,1.688,1298.7318098999967,,,,,530,19,Man,Left,
,,,,,,,,,,,,,,,,,530,19,Man,Left,2,47,0.15,2,180,0,0,1.5906380000087665,['y'],0.8956639999960316,1.646,1304.9149594000046,,,,,530,19,Man,Left,
,,,,,,,,,,,,,,,,,530,19,Man,Left,2,29,0.4,2,0,180,180,1.2454489999945508,['y'],0.9682387000066228,1.7,1309.6488378000067,,,,,530,19,Man,Left,
,,,,,,,,,,,,,,,,,530,19,Man,Left,2,38,0.4,1,180,-,180,0.7927632999926573,['n'],0.2869429999991553,1.224,1313.1334839000046,,,,,530,19,Man,Left,
,,,,,,,,,,,,,,,,,530,19,Man,Left,2,57,0.15,2,0,180,0,0.8930026000016369,['y'],3.1603688999894075,1.222,1319.881996600001,,,,,530,19,Man,Left,
,,,,,,,,,,,,,,,,,530,19,Man,Left,2,4,1,1,0,-,0,0.6157740999915404,['n'],1.448185100001865,2.0,1324.2317085999966,,,,,530,19,Man,Left,
,,,,,,,,,,,,,,,,,530,19,Man,Left,2,43,0.4,2,180,0,0,0.9136533999990206,['y'],0.8320128999912413,1.818,1328.5492135999957,,,,,530,19,Man,Left,
,,,,,,,,,,,,,,,,,530,19,Man,Left,2,58,0.15,1,180,-,180,0.9039323000033619,['y'],1.0070968000072753,1.72,1332.8315629999997,,,,,530,19,Man,Left,
,,,,,,,,,,,,,,,,,530,19,Man,Left,2,42,0.4,1,180,-,180,0.6043134000065038,['n'],0.28009520001069177,1.244,1336.0315720999934,,,,,530,19,Man,Left,
,,,,,,,,,,,,,,,,,530,19,Man,Left,2,75,0.15,2,180,0,0,1.6467009999905713,['y'],0.7519227000011597,1.5979999999999999,1341.8323141,,,,,530,19,Man,Left,
,,,,,,,,,,,,,,,,,530,19,Man,Left,2,64,0.15,1,0,-,0,1.1988251000002492,['y'],0.38318199999048375,1.0,1345.8822119999968,,,,,530,19,Man,Left,
,,,,,,,,,,,,,,,,,530,19,Man,Left,2,5,1,2,0,180,180,1.1006579999957466,['y'],0.24799289999646135,2.0,1349.298275699999,,,,,530,19,Man,Left,
,,,,,,,,,,,,,,,,,530,19,Man,Left,2,18,0.4,1,180,-,0,1.332644000009168,['n'],0.6872761999984505,1.246,1353.698111299993,,,,,530,19,Man,Left,
,,,,,,,,,,,,,,,,,530,19,Man,Left,2,11,0.4,2,180,0,0,1.9880581000033999,['y'],0.48774489999050274,2.0,1358.2992058999953,,,,,530,19,Man,Left,
,,,,,,,,,,,,,,,,,530,19,Man,Left,2,17,0.4,2,0,180,180,0.690930800003116,['y'],0.3598708999925293,2.0,1361.6321735999954,,,,,530,19,Man,Left,
,,,,,,,,,,,,,,,,,530,19,Man,Left,2,25,0.4,2,0,180,180,0.36747889999242034,['y'],0.2556045999954222,2.0,1364.6325427999982,,,,,530,19,Man,Left,
,,,,,,,,,,,,,,,,,530,19,Man,Left,2,36,0.4,1,0,-,0,0.9941746000113199,['n'],0.3117922999954317,1.6400000000000001,1368.4821334000007,,,,,530,19,Man,Left,
,,,,,,,,,,,,,,,,,530,19,Man,Left,2,41,0.4,2,0,180,180,0.6803272000106517,['y'],0.27188050000404473,2.0,1371.6489019,,,,,530,19,Man,Left,
,,,,,,,,,,,,,,,,,530,19,Man,Left,2,74,0.15,1,180,-,0,0.7918268999928841,['y'],0.5597753999900306,1.724,1375.3647915000038,,,,,530,19,Man,Left,
,,,,,,,,,,,,,,,,,530,19,Man,Left,2,1,1,2,0,180,180,0.3312854999967385,['y'],0.21563510000123642,2.0,1378.0832705000066,,,,,530,19,Man,Left,
,,,,,,,,,,,,,,,,,530,19,Man,Left,2,14,0.4,1,180,-,0,0.5609909999911906,['n'],0.30340430000796914,1.238,1381.264714200006,,,,,530,19,Man,Left,
,,,,,,,,,,,,,,,,,530,19,Man,Left,2,65,0.15,2,0,180,180,1.4334010000020498,['y'],0.2467721000139136,1.71,1385.332490300003,,,,,530,19,Man,Left,
,,,,,,,,,,,,,,,,,530,19,Man,Left,2,46,0.15,1,180,-,180,1.6725060000026133,['y'],0.35941939998883754,1.25,1389.9154470000067,,,,,530,19,Man,Left,
,,,,,,,,,,,,,,,,,530,19,Man,Left,2,60,0.15,1,0,-,180,0.9605901999893831,['n'],0.5187054999987595,1.0,1393.864957800004,,,,,530,19,Man,Left,
,,,,,,,,,,,,,,,,,530,19,Man,Left,2,24,0.4,1,0,-,180,1.4243913999962388,['n'],0.27996269999130163,1.0,1397.9815753000003,,,,,530,19,Man,Left,
,,,,,,,,,,,,,,,,,530,19,Man,Left,2,26,0.4,1,180,-,0,2.2055824999988545,['y'],0.5275880999979563,1.078,1403.3313835000008,,,,,530,19,Man,Left,
,,,,,,,,,,,,,,,,,530,19,Man,Left,2,28,0.4,1,0,-,180,1.4142240999935893,['y'],0.4869371999957366,1.0,1407.6486835999967,,,,,530,19,Man,Left,
,,,,,,,,,,,,,,,,,530,19,Man,Left,2,73,0.15,2,0,180,180,2.268712000004598,['y'],0.6802353999955812,1.02,1413.0315858999966,,,,,530,19,Man,Left,
,,,,,,,,,,,,,,,,,530,19,Man,Left,2,78,0.15,1,180,-,0,0.8160283000033814,['y'],0.38443539998843335,1.0,1416.814698999995,,,,,530,19,Man,Left,
,,,,,,,,,,,,,,,,,530,19,Man,Left,2,70,0.15,1,180,-,180,2.048080500011565,['y'],4.095616400009021,1.084,1426.3313367999945,,,,,530,19,Man,Left,
,,,,,,,,,,,,,,,,,530,19,Man,Left,2,27,0.4,2,180,0,0,0.976823000004515,['y'],1.0237709000066388,1.67,1430.9980336000008,,,,,530,19,Man,Left,
,,,,,,,,,,,,,,,,,530,19,Man,Left,2,71,0.15,2,180,0,180,0.8751171000039903,['y'],0.750869600000442,1.12,1435.0979916999931,,,,,530,19,Man,Left,
,,,,,,,,,,,,,,,,,530,19,Man,Left,2,63,0.15,2,180,0,0,0.4631146999890916,['y'],0.6482263999932911,1.27,1438.699202799995,,,,,530,19,Man,Left,
,,,,,,,,,,,,,,,,,530,19,Man,Left,2,69,0.15,2,0,180,180,0.29544950000126846,['y'],3.1511022000049707,1.6179999999999999,1445.2659807000018,,,,,530,19,Man,Left,
,,,,,,,,,,,,,,,,,530,19,Man,Left,2,50,0.15,1,180,-,0,1.35940760000085,['y'],2.3684287999931257,1.6520000000000001,1452.0479870999989,,,,,530,19,Man,Left,
,,,,,,,,,,,,,,,,,530,19,Man,Left,2,54,0.15,1,180,-,180,2.2838249999913387,['y'],0.7835969000007026,1.6440000000000001,1457.631635800004,,,,,530,19,Man,Left,
,,,,,,,,,,,,,,,,,530,19,Man,Left,2,35,0.4,2,180,0,0,0.42019380000419915,['y'],0.36680250000790693,2.0,1460.4980294999987,,,,,530,19,Man,Left,
,,,,,,,,,,,,,,,,,530,19,Man,Left,2,2,1,1,180,-,180,0.6348963000054937,['n'],0.3355947000090964,2.0,1464.0147180000058,,,,,530,19,Man,Left,
,,,,,,,,,,,,,,,,,530,19,Man,Left,2,53,0.15,2,0,180,180,0.6949715999944601,['y'],0.8952203999942867,1.626,1467.9652776000003,,,,,530,19,Man,Left,
,,,,,,,,,,,,,,,,,530,19,Man,Left,2,67,0.15,2,180,0,180,1.954696500004502,['y'],0.7592750000039814,1.186,1473.7313552999985,,,,,530,19,Man,Left,
,,,,,,,,,,,,,,,,,530,19,Man,Left,2,15,0.4,2,180,0,0,0.6092524999985471,['y'],0.8636260000057518,2.0,1477.2986158999993,,,,,530,19,Man,Left,
,,,,,,,,,,,,,,,,,530,19,Man,Left,2,37,0.4,2,0,180,180,0.5644451999978628,['y'],0.2946595000103116,1.786,1480.482065899996,,,,,530,19,Man,Left,
,,,,,,,,,,,,,,,,,530,19,Man,Left,2,62,0.15,1,180,-,0,3.0002359000063734,['y'],0.7262040000059642,1.264,1486.6978043999989,,,,,530,19,Man,Left,
,,,,,,,,,,,,,,,,,530,19,Man,Left,2,30,0.4,1,180,-,0,1.9509068000043044,['y'],0.4554359000030672,1.168,1491.7152520999953,,,,,530,19,Man,Left,
,,,,,,,,,,,,,,,,,530,19,Man,Left,2,52,0.15,1,0,-,180,2.364904199988814,['n'],1.1121531999961007,1.17,1497.6995565999969,,,,,530,19,Man,Left,
,,,,,,,,,,,,,,,,,530,19,Man,Left,2,13,0.4,2,0,180,180,0.3997222000034526,['y'],1.1996224000031361,2.0,1501.4481066000008,,,,,530,19,Man,Left,
,,,,,,,,,,,,,,,,,530,19,Man,Left,2,9,0.4,2,0,180,180,0.5122186999942642,['y'],0.4554787000088254,1.8439999999999999,1504.831191899997,,,,,530,19,Man,Left,
,,,,,,,,,,,,,,,,,530,19,Man,Left,3,61,0.15,2,0,180,180,3.0376475999946706,['y'],0.44669740000972524,1.284,1530.4644554999977,75.0,47.5,90.0,,530,19,Man,Left,
,,,,,,,,,,,,,,,,,530,19,Man,Left,3,57,0.15,2,0,180,180,0.3879041000036523,['y'],0.5914435000013327,1.6360000000000001,1534.3811908000062,,,,,530,19,Man,Left,
,,,,,,,,,,,,,,,,,530,19,Man,Left,3,58,0.15,1,180,-,180,0.9286005000030855,['n'],0.4793245000037132,1.03,1538.8652291000035,,,,,530,19,Man,Left,
,,,,,,,,,,,,,,,,,530,19,Man,Left,3,54,0.15,1,180,-,180,1.3573628000012832,['n'],4.6796452999988105,1.064,1548.1311353000056,,,,,530,19,Man,Left,
,,,,,,,,,,,,,,,,,530,19,Man,Left,3,13,0.4,2,0,180,180,1.4615190999902552,['y'],0.33515680000709835,1.8639999999999999,1552.3155820999964,,,,,530,19,Man,Left,
,,,,,,,,,,,,,,,,,530,19,Man,Left,3,19,0.4,2,180,0,0,0.6438418999896385,['y'],0.6075517999997828,2.0,1556.0484418999986,,,,,530,19,Man,Left,
,,,,,,,,,,,,,,,,,530,19,Man,Left,3,15,0.4,2,180,0,0,0.6251403000060236,['y'],0.5514259999908973,2.0,1559.3153635000053,,,,,530,19,Man,Left,
,,,,,,,,,,,,,,,,,530,19,Man,Left,3,21,0.4,2,0,180,180,0.4291536999953678,['y'],0.37622160000319127,1.75,1562.3813892000035,,,,,530,19,Man,Left,
,,,,,,,,,,,,,,,,,530,19,Man,Left,3,55,0.15,2,180,0,0,2.63375019999512,['y'],0.7435589999950025,1.65,1568.3155244999944,,,,,530,19,Man,Left,
,,,,,,,,,,,,,,,,,530,19,Man,Left,3,47,0.15,2,180,0,0,1.3754786000063177,['n'],0.559180699987337,1.724,1572.8651650999964,,,,,530,19,Man,Left,
,,,,,,,,,,,,,,,,,530,19,Man,Left,3,69,0.15,2,0,180,180,0.7035650999896461,['y'],0.6153943999961484,1.642,1576.6477333999937,,,,,530,19,Man,Left,
,,,,,,,,,,,,,,,,,530,19,Man,Left,3,46,0.15,1,180,-,180,1.219290599998203,['n'],0.7996328000008361,1.0,1581.7152338000014,,,,,530,19,Man,Left,
,,,,,,,,,,,,,,,,,530,19,Man,Left,3,27,0.4,2,180,0,0,1.7582524999888847,['y'],0.5593641000014031,1.794,1586.5319848999934,,,,,530,19,Man,Left,
,,,,,,,,,,,,,,,,,530,19,Man,Left,3,45,0.15,2,0,180,0,0.9831679000053555,['n'],1.2157988999970257,1.72,1591.231733499997,,,,,530,19,Man,Left,
,,,,,,,,,,,,,,,,,530,19,Man,Left,3,26,0.4,1,180,-,0,0.574363199993968,['n'],0.5991652999946382,1.5979999999999999,1594.9144596999977,,,,,530,19,Man,Left,
,,,,,,,,,,,,,,,,,530,19,Man,Left,3,17,0.4,2,0,180,180,0.8107198000070639,['y'],0.3119749000034062,2.0,1598.1818960999954,,,,,530,19,Man,Left,
,,,,,,,,,,,,,,,,,530,19,Man,Left,3,53,0.15,2,0,180,180,0.4729730999970343,['n'],0.9750250000070082,1.634,1602.9311189,,,,,530,19,Man,Left,
,,,,,,,,,,,,,,,,,530,19,Man,Left,3,41,0.4,2,0,180,0,4.867355399997905,['y'],1.002230199999758,2.0,1611.7653373000066,,,,,530,19,Man,Left,
,,,,,,,,,,,,,,,,,530,19,Man,Left,3,39,0.4,2,180,0,0,0.5166619999945397,['y'],0.25529059999098536,2.0,1614.581215600003,,,,,530,19,Man,Left,
,,,,,,,,,,,,,,,,,530,19,Man,Left,3,22,0.4,1,180,-,180,0.5485661000129767,['n'],0.3520068999932846,1.308,1617.8318519000022,,,,,530,19,Man,Left,
,,,,,,,,,,,,,,,,,530,19,Man,Left,3,51,0.15,2,180,0,0,0.8018884000048274,['y'],0.41534790000878274,1.692,1621.4643419000058,,,,,530,19,Man,Left,
,,,,,,,,,,,,,,,,,530,19,Man,Left,3,38,0.4,1,180,-,180,2.083307099994272,['n'],0.38116800000716466,1.194,1626.1816113999957,,,,,530,19,Man,Left,
,,,,,,,,,,,,,,,,,530,19,Man,Left,3,1,1,2,0,180,180,0.4520858000032604,['y'],0.31081719999201596,1.992,1629.2993497999996,,,,,530,19,Man,Left,
,,,,,,,,,,,,,,,,,530,19,Man,Left,3,72,0.15,1,0,-,0,0.48801100000855513,['n'],0.2948839000018779,1.278,1632.380953800006,,,,,530,19,Man,Left,
,,,,,,,,,,,,,,,,,530,19,Man,Left,3,36,0.4,1,0,-,0,1.1747851999971317,['n'],0.7432934999960708,1.294,1637.5821524000057,,,,,530,19,Man,Left,
,,,,,,,,,,,,,,,,,530,19,Man,Left,3,64,0.15,1,0,-,0,0.6371348000102444,['y'],0.6559042000008048,1.302,1641.5817131999938,,,,,530,19,Man,Left,
,,,,,,,,,,,,,,,,,530,19,Man,Left,3,31,0.4,2,180,0,0,0.653193399994052,['y'],0.2795131000020774,1.806,1644.681637200003,,,,,530,19,Man,Left,
,,,,,,,,,,,,,,,,,530,19,Man,Left,3,71,0.15,2,180,0,0,2.4179704999987734,['y'],0.8483413999929326,1.642,1650.280920300007,,,,,530,19,Man,Left,
,,,,,,,,,,,,,,,,,530,19,Man,Left,3,44,0.15,1,0,-,0,1.6202859999903012,['n'],0.7437489000003552,1.32,1654.9476593,,,,,530,19,Man,Left,
,,,,,,,,,,,,,,,,,530,19,Man,Left,3,18,0.4,1,180,-,180,0.9210779999993974,['n'],0.4404688999929931,1.31,1658.632734400002,,,,,530,19,Man,Left,
,,,,,,,,,,,,,,,,,530,19,Man,Left,3,8,0.4,1,0,-,0,0.5732911999948556,['n'],0.30379079999693204,1.342,1661.8643819999998,,,,,530,19,Man,Left,
,,,,,,,,,,,,,,,,,530,19,Man,Left,3,24,0.4,1,0,-,180,1.0051109999913024,['n'],0.42361569999775384,1.3,1665.514313199994,,,,,530,19,Man,Left,
,,,,,,,,,,,,,,,,,530,19,Man,Left,3,35,0.4,2,180,0,0,0.9364160999975866,['y'],0.3593793000036385,2.0,1669.2821052000072,,,,,530,19,Man,Left,
,,,,,,,,,,,,,,,,,530,19,Man,Left,3,2,1,1,180,-,180,0.6587705999991158,['n'],0.8720077999896603,2.0,1673.648352499993,,,,,530,19,Man,Left,
,,,,,,,,,,,,,,,,,530,19,Man,Left,3,16,0.4,1,0,-,0,0.4879862999951001,['n'],0.4391565000114497,1.3479999999999999,1677.1975117999973,,,,,530,19,Man,Left,
,,,,,,,,,,,,,,,,,530,19,Man,Left,3,28,0.4,1,0,-,0,0.666079799993895,['n'],0.33494190000055823,1.312,1680.414859299999,,,,,530,19,Man,Left,
,,,,,,,,,,,,,,,,,530,19,Man,Left,3,5,1,2,0,180,180,0.4577204000088386,['y'],0.21550759999081492,2.0,1683.1309531000006,,,,,530,19,Man,Left,
,,,,,,,,,,,,,,,,,530,19,Man,Left,3,33,0.4,2,0,180,180,1.9736545999912778,['y'],0.7267812999925809,1.608,1688.3150353999954,,,,,530,19,Man,Left,
,,,,,,,,,,,,,,,,,530,19,Man,Left,3,6,1,1,180,-,180,0.37654769999790005,['y'],0.23907619999954477,2.0,1694.7974850000028,,,,,530,19,Man,Left,
,,,,,,,,,,,,,,,,,530,19,Man,Left,3,48,0.15,1,0,-,0,1.5499918999994406,['n'],5.183883199992124,1.722,1703.9148814999935,,,,,530,19,Man,Left,
,,,,,,,,,,,,,,,,,530,19,Man,Left,3,32,0.4,1,0,-,0,0.4260554000065895,['n'],0.9194867000041995,1.698,1707.4976014999993,,,,,530,19,Man,Left,
,,,,,,,,,,,,,,,,,530,19,Man,Left,3,65,0.15,2,0,180,180,1.0414427999930922,['n'],0.5357865999976639,1.672,1711.4653198000015,,,,,530,19,Man,Left,
,,,,,,,,,,,,,,,,,530,19,Man,Left,3,37,0.4,2,0,180,180,0.5390082000085386,['y'],0.20795640000142157,1.6280000000000001,1714.3492888000037,,,,,530,19,Man,Left,
,,,,,,,,,,,,,,,,,530,19,Man,Left,3,34,0.4,1,180,-,180,0.41818789999524597,['n'],0.4635406999877887,1.676,1717.4473606999964,,,,,530,19,Man,Left,
,,,,,,,,,,,,,,,,,530,19,Man,Left,3,49,0.15,2,0,180,180,1.2295690999890212,['y'],0.7359728000010364,1.3439999999999999,1721.7809572999977,,,,,530,19,Man,Left,
,,,,,,,,,,,,,,,,,530,19,Man,Left,3,66,0.15,1,180,-,180,0.3596833999908995,['n'],0.3271275000006426,1.324,1724.6657799999957,,,,,530,19,Man,Left,
,,,,,,,,,,,,,,,,,530,19,Man,Left,3,60,0.15,1,0,-,180,0.416828200002783,['n'],0.3142777000030037,1.22,1727.6141157999955,,,,,530,19,Man,Left,
,,,,,,,,,,,,,,,,,530,19,Man,Left,3,73,0.15,2,0,180,180,0.6402663999906508,['n'],0.22261270000308286,1.208,1730.6314896999975,,,,,530,19,Man,Left,
,,,,,,,,,,,,,,,,,530,19,Man,Left,3,78,0.15,1,180,-,180,0.36612230000901036,['n'],0.18301789999532048,1.258,1733.3641492000024,,,,,530,19,Man,Left,
,,,,,,,,,,,,,,,,,530,19,Man,Left,3,30,0.4,1,180,-,180,1.443383999998332,['n'],1.6639561999909347,1.37,1739.8817754000047,,,,,530,19,Man,Left,
,,,,,,,,,,,,,,,,,530,19,Man,Left,3,42,0.4,1,180,-,180,0.34357420000014827,['n'],0.1994142999901669,1.298,1742.5807626000023,,,,,530,19,Man,Left,
,,,,,,,,,,,,,,,,,530,19,Man,Left,3,43,0.4,2,180,0,0,1.8764834000030532,['y'],0.34354119999625254,1.782,1747.7474277000001,,,,,530,19,Man,Left,
,,,,,,,,,,,,,,,,,530,19,Man,Left,3,74,0.15,1,180,-,180,0.3640688000014052,['n'],0.30393339999136515,1.266,1750.6651696000044,,,,,530,19,Man,Left,
,,,,,,,,,,,,,,,,,530,19,Man,Left,3,0,1,1,0,-,0,0.6254426999948919,['n'],1.7271372999966843,2.0,1756.0807851999998,,,,,530,19,Man,Left,
,,,,,,,,,,,,,,,,,530,19,Man,Left,3,10,0.4,1,180,-,180,0.4723278999881586,['n'],0.3833355000097072,1.33,1759.4981357999932,,,,,530,19,Man,Left,
,,,,,,,,,,,,,,,,,530,19,Man,Left,3,77,0.15,2,0,180,180,1.5464047999994364,['y'],0.4633312000078149,1.642,1764.0482193000062,,,,,530,19,Man,Left,
,,,,,,,,,,,,,,,,,530,19,Man,Left,3,52,0.15,1,0,-,0,0.7956240000057733,['n'],0.2959965000045486,1.17,1767.3141516000032,,,,,530,19,Man,Left,
,,,,,,,,,,,,,,,,,530,19,Man,Left,3,63,0.15,2,180,0,0,1.7831582999933744,['n'],0.32776109999394976,1.238,1771.665048099996,,,,,530,19,Man,Left,
,,,,,,,,,,,,,,,,,530,19,Man,Left,3,23,0.4,2,180,0,0,1.7224645999958739,['y'],0.37589999999909196,1.748,1776.8481248000026,,,,,530,19,Man,Left,
,,,,,,,,,,,,,,,,,530,19,Man,Left,3,11,0.4,2,180,0,0,1.6305057999998098,['y'],0.4315800000040326,1.832,1781.6148373000033,,,,,530,19,Man,Left,
,,,,,,,,,,,,,,,,,530,19,Man,Left,3,50,0.15,1,180,-,180,0.6238927000085823,['n'],1.3988959999987856,1.194,1786.180705100007,,,,,530,19,Man,Left,
,,,,,,,,,,,,,,,,,530,19,Man,Left,3,67,0.15,2,180,0,0,1.6085271000047214,['y'],0.20698529999936,1.736,1790.7640335000033,,,,,530,19,Man,Left,
,,,,,,,,,,,,,,,,,530,19,Man,Left,3,76,0.15,1,0,-,180,0.3875094000104582,['n'],0.303004500005045,1.162,1793.9308289000037,,,,,530,19,Man,Left,
,,,,,,,,,,,,,,,,,530,19,Man,Left,3,7,1,2,180,0,0,1.307426100000157,['y'],0.25623949999862816,2.0,1797.6316650999943,,,,,530,19,Man,Left,
,,,,,,,,,,,,,,,,,530,19,Man,Left,3,56,0.15,1,0,-,0,1.0366899999935413,['n'],0.25578249999671243,1.192,1801.347788500003,,,,,530,19,Man,Left,
,,,,,,,,,,,,,,,,,530,19,Man,Left,3,75,0.15,2,180,0,0,0.7955736000003526,['n'],0.20795760001055896,1.0,1804.4473084000056,,,,,530,19,Man,Left,
,,,,,,,,,,,,,,,,,530,19,Man,Left,3,68,0.15,1,0,-,0,2.5612668999965535,['y'],1.6955943000066327,1.5739999999999998,1811.5639973999932,,,,,530,19,Man,Left,
,,,,,,,,,,,,,,,,,530,19,Man,Left,3,3,1,2,180,0,0,1.0939260000013746,['y'],0.4316417000081856,2.0,1815.197320399995,,,,,530,19,Man,Left,
,,,,,,,,,,,,,,,,,530,19,Man,Left,3,70,0.15,1,180,-,0,1.3555595000070753,['n'],0.983134499998414,1.0,1819.7481595999998,,,,,530,19,Man,Left,
,,,,,,,,,,,,,,,,,530,19,Man,Left,3,79,0.15,2,180,0,0,2.02079209999647,['y'],1.1274443000002066,1.6640000000000001,1825.4139278999937,,,,,530,19,Man,Left,
,,,,,,,,,,,,,,,,,530,19,Man,Left,3,14,0.4,1,180,-,180,0.7517475000058766,['n'],0.5518779999983963,1.698,1830.3979017999955,,,,,530,19,Man,Left,
,,,,,,,,,,,,,,,,,530,19,Man,Left,3,59,0.15,2,180,0,0,2.1103077000007033,['y'],0.46421900000132155,1.682,1835.3479378000047,,,,,530,19,Man,Left,
,,,,,,,,,,,,,,,,,530,19,Man,Left,3,12,0.4,1,0,-,180,1.608737000002293,['y'],0.6871690999978455,1.27,1840.432538699999,,,,,530,19,Man,Left,
,,,,,,,,,,,,,,,,,530,19,Man,Left,3,62,0.15,1,180,-,0,1.352050400004373,['y'],0.6237440000113565,1.204,1845.0805534999963,,,,,530,19,Man,Left,
,,,,,,,,,,,,,,,,,530,19,Man,Left,3,20,0.4,1,0,-,0,3.2005407999968156,['n'],0.2793038000090746,1.226,1850.9974903999973,,,,,530,19,Man,Left,
,,,,,,,,,,,,,,,,,530,19,Man,Left,3,29,0.4,2,0,180,180,1.08761260000756,['y'],0.4950715000013588,1.918,1855.1473153999978,,,,,530,19,Man,Left,
,,,,,,,,,,,,,,,,,530,19,Man,Left,3,25,0.4,2,0,180,180,0.4276815000048373,['y'],0.391165799999726,1.838,1858.2473336999974,,,,,530,19,Man,Left,
,,,,,,,,,,,,,,,,,530,19,Man,Left,3,40,0.4,1,0,-,180,1.233834200000274,['n'],0.3756649999995716,1.276,1862.4973471999983,,,,,530,19,Man,Left,
,,,,,,,,,,,,,,,,,530,19,Man,Left,3,9,0.4,2,0,180,180,0.5571067999990191,['y'],0.39127490000100806,2.0,1865.5972271000064,,,,,530,19,Man,Left,
,,,,,,,,,,,,,,,,,530,19,Man,Left,3,4,1,1,0,-,0,0.5460107999970205,['n'],0.759350499996799,2.0,1869.1139478999976,,,,,530,19,Man,Left,
,,,,,,,,,,,,,,,,,530,19,Man,Left,4,9,0.4,2,0,180,180,0.9314618000062183,['y'],0.5112516999943182,2.0,1896.0805797999928,87.5,87.5,82.5,,530,19,Man,Left,
,,,,,,,,,,,,,,,,,530,19,Man,Left,4,29,0.4,2,0,180,180,0.46786839999549557,['y'],0.3427498000091873,2.0,1899.0475315999938,,,,,530,19,Man,Left,
,,,,,,,,,,,,,,,,,530,19,Man,Left,4,72,0.15,1,0,-,0,1.2777785999933258,['y'],0.3114426999964053,1.29,1903.4145710000012,,,,,530,19,Man,Left,
,,,,,,,,,,,,,,,,,530,19,Man,Left,4,47,0.15,2,180,0,180,3.667199800009257,['y'],0.5165620000043418,1.6440000000000001,1910.1978666000068,,,,,530,19,Man,Left,
,,,,,,,,,,,,,,,,,530,19,Man,Left,4,34,0.4,1,180,-,180,0.5538259000022663,['n'],0.25496550000389107,1.1219999999999999,1913.1815644000017,,,,,530,19,Man,Left,
,,,,,,,,,,,,,,,,,530,19,Man,Left,4,74,0.15,1,180,-,180,2.2494773999933386,['y'],1.7368586999946274,1.16,1919.4144959999976,,,,,530,19,Man,Left,
,,,,,,,,,,,,,,,,,530,19,Man,Left,4,54,0.15,1,180,-,180,0.6803255999984685,['n'],0.3677524000086123,1.16,1922.5803884000052,,,,,530,19,Man,Left,
,,,,,,,,,,,,,,,,,530,19,Man,Left,4,18,0.4,1,180,-,180,0.5271485000121174,['n'],0.2405706999998074,1.16,1925.4478167000052,,,,,530,19,Man,Left,
,,,,,,,,,,,,,,,,,530,19,Man,Left,4,36,0.4,1,0,-,0,3.5165874999947846,['y'],1.1316224000038346,1.284,1933.2304344000004,,,,,530,19,Man,Left,
,,,,,,,,,,,,,,,,,530,19,Man,Left,4,60,0.15,1,0,-,180,1.7783945000119274,['y'],0.8636651999986498,1.284,1933.2304344000004,,,,,530,19,Man,Left,
,,,,,,,,,,,,,,,,,530,19,Man,Left,4,53,0.15,2,0,180,0,2.162028899998404,['n'],0.3192865000019083,1.172,1943.0308342000062,,,,,530,19,Man,Left,
,,,,,,,,,,,,,,,,,530,19,Man,Left,4,77,0.15,2,0,180,180,2.6051730000035604,['y'],0.44746750000922475,1.6019999999999999,1948.8803822000045,,,,,530,19,Man,Left,
,,,,,,,,,,,,,,,,,530,19,Man,Left,4,11,0.4,2,180,0,0,0.6343749000079697,['y'],0.5119438999972772,1.8639999999999999,1952.2978927999939,,,,,530,19,Man,Left,
,,,,,,,,,,,,,,,,,530,19,Man,Left,4,5,1,2,0,180,180,0.513103899997077,['y'],0.2167332999961218,2.0,1955.1146137000032,,,,,530,19,Man,Left,
,,,,,,,,,,,,,,,,,530,19,Man,Left,4,79,0.15,2,180,0,0,1.122707900009118,['n'],0.2476098000042839,1.1360000000000001,1958.9146727000043,,,,,530,19,Man,Left,
,,,,,,,,,,,,,,,,,530,19,Man,Left,4,41,0.4,2,0,180,180,0.5549459999892861,['y'],0.17574489999969956,1.824,1961.831798500003,,,,,530,19,Man,Left,
,,,,,,,,,,,,,,,,,530,19,Man,Left,4,28,0.4,1,0,-,0,3.479501900001196,['y'],0.43120989999442827,1.596,1968.0804040999938,,,,,530,19,Man,Left,
,,,,,,,,,,,,,,,,,530,19,Man,Left,4,35,0.4,2,180,0,0,1.3252482999960193,['y'],0.3274033999914536,1.732,1972.1470793000044,,,,,530,19,Man,Left,
,,,,,,,,,,,,,,,,,530,19,Man,Left,4,58,0.15,1,180,-,180,0.8594595000031404,['n'],0.25499180000042543,1.226,1975.497726799993,,,,,530,19,Man,Left,
,,,,,,,,,,,,,,,,,530,19,Man,Left,4,71,0.15,2,180,0,180,1.510143399995286,['n'],0.34349730001122225,1.1560000000000001,1979.5303557000007,,,,,530,19,Man,Left,
,,,,,,,,,,,,,,,,,530,19,Man,Left,4,8,0.4,1,0,-,0,0.6377268000069307,['n'],0.7348233000084292,1.2,1983.096907900006,,,,,530,19,Man,Left,
,,,,,,,,,,,,,,,,,530,19,Man,Left,4,26,0.4,1,180,-,180,0.5144694999908097,['n'],0.35175810000509955,1.198,1986.2302726000053,,,,,530,19,Man,Left,
,,,,,,,,,,,,,,,,,530,19,Man,Left,4,63,0.15,2,180,0,0,1.116556799999671,['n'],0.8395106999960262,1.198,1990.4636328000051,,,,,530,19,Man,Left,
,,,,,,,,,,,,,,,,,530,19,Man,Left,4,43,0.4,2,180,0,0,0.5984389999939594,['y'],0.33554619998903945,1.818,1993.7481368000008,,,,,530,19,Man,Left,
,,,,,,,,,,,,,,,,,530,19,Man,Left,4,56,0.15,1,0,-,180,0.8060992999962764,['y'],0.47880029999942053,1.642,1997.6137387000053,,,,,530,19,Man,Left,
,,,,,,,,,,,,,,,,,530,19,Man,Left,4,66,0.15,1,180,-,180,0.5958252999989782,['n'],0.2872465000109514,1.268,2000.6470773000037,,,,,530,19,Man,Left,
,,,,,,,,,,,,,,,,,530,19,Man,Left,4,17,0.4,2,0,180,180,0.4810968999954639,['y'],0.31931440001062583,1.858,2003.5469804000022,,,,,530,19,Man,Left,
,,,,,,,,,,,,,,,,,530,19,Man,Left,4,27,0.4,2,180,0,0,0.8613275999960024,['y'],1.0389124000066658,1.772,2007.8302943000017,,,,,530,19,Man,Left,
,,,,,,,,,,,,,,,,,530,19,Man,Left,4,76,0.15,1,0,-,180,0.5879284999973606,['y'],1.0234242000005906,1.3439999999999999,2011.8478966999974,,,,,530,19,Man,Left,
,,,,,,,,,,,,,,,,,530,19,Man,Left,4,32,0.4,1,0,-,0,0.6506945000000997,['n'],0.3192146999936085,1.276,2015.0468987000058,,,,,530,19,Man,Left,
,,,,,,,,,,,,,,,,,530,19,Man,Left,4,49,0.15,2,0,180,180,1.4928922999970382,['y'],0.5033758000063244,1.576,2019.3970593999984,,,,,530,19,Man,Left,
,,,,,,,,,,,,,,,,,530,19,Man,Left,4,70,0.15,1,180,-,0,2.2884353999979794,['y'],0.3831461999943713,1.292,2024.280235600003,,,,,530,19,Man,Left,
,,,,,,,,,,,,,,,,,530,19,Man,Left,4,50,0.15,1,180,-,0,0.9506642000051215,['n'],0.22958630000357516,1.258,2027.5148048999981,,,,,530,19,Man,Left,
,,,,,,,,,,,,,,,,,530,19,Man,Left,4,64,0.15,1,0,-,0,3.083297599994694,['n'],0.4468741000018781,1.0,2033.614564699994,,,,,530,19,Man,Left,
,,,,,,,,,,,,,,,,,530,19,Man,Left,4,13,0.4,2,0,180,180,0.37517169999773614,['y'],0.25552729998889845,1.6219999999999999,2036.3803380000027,,,,,530,19,Man,Left,
,,,,,,,,,,,,,,,,,530,19,Man,Left,4,6,1,1,180,-,180,0.41614460000710096,['n'],0.5110071000090102,2.0,2039.6476339000073,,,,,530,19,Man,Left,
,,,,,,,,,,,,,,,,,530,19,Man,Left,4,7,1,2,180,0,0,1.6463592999934917,['y'],0.3592709000076866,2.0,2043.913434400005,,,,,530,19,Man,Left,
,,,,,,,,,,,,,,,,,530,19,Man,Left,4,37,0.4,2,0,180,180,4.334218999996665,['y'],0.935023199999705,2.0,2051.3143300999945,,,,,530,19,Man,Left,
,,,,,,,,,,,,,,,,,530,19,Man,Left,4,65,0.15,2,0,180,180,1.4932311000011396,['y'],0.5752896999911172,1.72,2055.580184899998,,,,,530,19,Man,Left,
,,,,,,,,,,,,,,,,,530,19,Man,Left,4,21,0.4,2,0,180,180,0.4442263999953866,['y'],0.32739830001082737,1.8780000000000001,2058.714257200001,,,,,530,19,Man,Left,
,,,,,,,,,,,,,,,,,530,19,Man,Left,4,0,1,1,0,-,0,0.479641999991145,['n'],0.6560289000044577,2.0,2062.230223000006,,,,,530,19,Man,Left,
,,,,,,,,,,,,,,,,,530,19,Man,Left,4,14,0.4,1,180,-,180,0.6512744999927236,['n'],0.4550428000075044,1.1099999999999999,2065.5469374999957,,,,,530,19,Man,Left,
,,,,,,,,,,,,,,,,,530,19,Man,Left,4,23,0.4,2,180,0,0,1.1685234999895329,['y'],0.4465539000084391,1.866,2069.6468408999935,,,,,530,19,Man,Left,
,,,,,,,,,,,,,,,,,530,19,Man,Left,4,45,0.15,2,0,180,180,1.179766600005678,['y'],1.1752625000081025,1.784,2074.214126299994,,,,,530,19,Man,Left,
,,,,,,,,,,,,,,,,,530,19,Man,Left,4,57,0.15,2,0,180,0,0.9503975000116043,['y'],0.35951540000678506,1.69,2077.6135113000055,,,,,530,19,Man,Left,
,,,,,,,,,,,,,,,,,530,19,Man,Left,4,22,0.4,1,180,-,0,1.6143669000011869,['n'],0.2241615999955684,1.238,2082.197624499997,,,,,530,19,Man,Left,
,,,,,,,,,,,,,,,,,530,19,Man,Left,4,2,1,1,180,-,180,1.0164377000037348,['n'],0.886775499995565,2.0,2087.1474526999955,,,,,530,19,Man,Left,
,,,,,,,,,,,,,,,,,530,19,Man,Left,4,78,0.15,1,180,-,180,2.194089199998416,['n'],2.1432037000049604,1.158,2094.796866699995,,,,,530,19,Man,Left,
,,,,,,,,,,,,,,,,,530,19,Man,Left,4,61,0.15,2,0,180,0,0.7387278999958653,['n'],0.3272341999982018,1.178,2098.1474627999996,,,,,530,19,Man,Left,
,,,,,,,,,,,,,,,,,530,19,Man,Left,4,48,0.15,1,0,-,0,0.5380462999892188,['n'],0.28780140000162646,1.178,2101.1476580000017,,,,,530,19,Man,Left,
,,,,,,,,,,,,,,,,,530,19,Man,Left,4,69,0.15,2,0,180,180,1.202526900000521,['y'],0.880170199990971,1.682,2105.480112499994,,,,,530,19,Man,Left,
,,,,,,,,,,,,,,,,,530,19,Man,Left,4,4,1,1,0,-,0,0.8803347000066424,['n'],0.8962744000018574,2.0,2109.396750800006,,,,,530,19,Man,Left,
,,,,,,,,,,,,,,,,,530,19,Man,Left,4,24,0.4,1,0,-,0,0.944664599999669,['n'],0.2879918999969959,1.232,2113.0475479000015,,,,,530,19,Man,Left,
,,,,,,,,,,,,,,,,,530,19,Man,Left,4,73,0.15,2,0,180,0,0.5295142000104534,['n'],0.2153740000067046,1.218,2115.7474954000063,,,,,530,19,Man,Left,
,,,,,,,,,,,,,,,,,530,19,Man,Left,4,38,0.4,1,180,-,180,0.7496573999960674,['n'],0.6158258999930695,1.926,2119.5800531999994,,,,,530,19,Man,Left,
,,,,,,,,,,,,,,,,,530,19,Man,Left,4,42,0.4,1,180,-,180,0.5972005999938119,['n'],0.43072940000274684,1.748,2122.9302854999987,,,,,530,19,Man,Left,
,,,,,,,,,,,,,,,,,530,19,Man,Left,4,67,0.15,2,180,0,0,0.7733458000002429,['y'],0.6714809999975841,1.69,2126.6134755999956,,,,,530,19,Man,Left,
,,,,,,,,,,,,,,,,,530,19,Man,Left,4,25,0.4,2,0,180,180,0.497922100010328,['y'],0.35125690000131726,1.796,2129.997378100001,,,,,530,19,Man,Left,
,,,,,,,,,,,,,,,,,530,19,Man,Left,4,40,0.4,1,0,-,0,0.4116920999949798,['n'],0.37641149999399204,1.854,2133.2142894999997,,,,,530,19,Man,Left,
,,,,,,,,,,,,,,,,,530,19,Man,Left,4,15,0.4,2,180,0,0,1.3845162999932654,['y'],0.3522567999898456,1.734,2137.2142798999994,,,,,530,19,Man,Left,
,,,,,,,,,,,,,,,,,530,19,Man,Left,4,51,0.15,2,180,0,0,0.7718302000139374,['y'],0.5349551999970572,1.714,2140.7804337999987,,,,,530,19,Man,Left,
,,,,,,,,,,,,,,,,,530,19,Man,Left,4,39,0.4,2,180,0,0,0.46675320000213105,['y'],0.43102770000405144,1.72,2144.030063600003,,,,,530,19,Man,Left,
,,,,,,,,,,,,,,,,,530,19,Man,Left,4,46,0.15,1,180,-,180,0.5508070000068983,['n'],0.32480800000485033,1.298,2147.5802427000017,,,,,530,19,Man,Left,
,,,,,,,,,,,,,,,,,530,19,Man,Left,4,44,0.15,1,0,-,180,0.7132276000047568,['n'],0.39920870000787545,1.3,2150.963379199995,,,,,530,19,Man,Left,
,,,,,,,,,,,,,,,,,530,19,Man,Left,4,52,0.15,1,0,-,180,0.5850232999946456,['n'],0.46313760000339244,1.252,2154.3300768000045,,,,,530,19,Man,Left,
,,,,,,,,,,,,,,,,,530,19,Man,Left,4,1,1,2,0,180,180,0.7853005999932066,['y'],0.35986399999819696,2.0,2157.597463500002,,,,,530,19,Man,Left,
,,,,,,,,,,,,,,,,,530,19,Man,Left,4,75,0.15,2,180,0,180,2.686537799992948,['y'],3.0475877999997465,1.704,2165.629972399998,,,,,530,19,Man,Left,
,,,,,,,,,,,,,,,,,530,19,Man,Left,4,19,0.4,2,180,0,0,0.6451366999972379,['y'],0.5914361000031931,1.842,2169.114430100002,,,,,530,19,Man,Left,
,,,,,,,,,,,,,,,,,530,19,Man,Left,4,68,0.15,1,0,-,0,1.2612348000111524,['n'],0.3515015000011772,1.108,2173.5635188000015,,,,,530,19,Man,Left,
,,,,,,,,,,,,,,,,,530,19,Man,Left,4,10,0.4,1,180,-,180,0.5485236999957124,['n'],0.29535880000912584,1.07,2176.5634644999955,,,,,530,19,Man,Left,
,,,,,,,,,,,,,,,,,530,19,Man,Left,4,31,0.4,2,180,0,0,0.532768400007626,['y'],0.22385190000932198,1.874,2179.380094799999,,,,,530,19,Man,Left,
,,,,,,,,,,,,,,,,,530,19,Man,Left,4,33,0.4,2,0,180,180,2.0119686999969417,['y'],1.143560600001365,1.988,2184.8467956999957,,,,,530,19,Man,Left,
,,,,,,,,,,,,,,,,,530,19,Man,Left,4,3,1,2,180,0,0,0.683780299994396,['y'],0.551479499990819,2.0,2188.129965500004,,,,,530,19,Man,Left,
,,,,,,,,,,,,,,,,,530,19,Man,Left,4,59,0.15,2,180,0,0,1.5730312000086997,['n'],0.5835078999953112,1.096,2193.063314500003,,,,,530,19,Man,Left,
,,,,,,,,,,,,,,,,,530,19,Man,Left,4,12,0.4,1,0,-,180,2.0423998999904143,['n'],0.4486118000058923,1.05,2197.747304999997,,,,,530,19,Man,Left,
,,,,,,,,,,,,,,,,,530,19,Man,Left,4,62,0.15,1,180,-,180,0.5355687999981456,['n'],0.2633810999977868,1.0939999999999999,2200.7300261000055,,,,,530,19,Man,Left,
,,,,,,,,,,,,,,,,,530,19,Man,Left,4,30,0.4,1,180,-,180,0.5308168999908958,['n'],0.28797419999318663,1.092,2203.597317699998,,,,,530,19,Man,Left,
,,,,,,,,,,,,,,,,,530,19,Man,Left,4,55,0.15,2,180,0,180,0.650070700008655,['n'],0.27509870000358205,1.8639999999999999,2206.663786799996,,,,,530,19,Man,Left,
,,,,,,,,,,,,,,,,,530,19,Man,Left,4,20,0.4,1,0,-,0,0.6097616999904858,['n'],2.3690991000039503,1.236,2212.964559400003,,,,,530,19,Man,Left,
,,,,,,,,,,,,,,,,,530,19,Man,Left,4,16,0.4,1,0,-,0,0.3491997000091942,['n'],0.26335500000277534,1.308,2215.9808731999947,,,,,530,19,Man,Left,
,,,,,,,,,,,,,,,,,530,19,Man,Left,5,57,0.15,2,0,180,0,0.7086446000030264,['n'],1.3355701999971643,1.314,2238.679912499996,78.75,80.0,80.0,,530,19,Man,Left,
,,,,,,,,,,,,,,,,,530,19,Man,Left,5,36,0.4,1,0,-,0,3.143868700004532,['n'],0.3033488000073703,1.286,2244.2132500000007,,,,,530,19,Man,Left,
,,,,,,,,,,,,,,,,,530,19,Man,Left,5,62,0.15,1,180,-,180,0.8077817000012146,['n'],0.27945450000697747,1.276,2247.4798434999975,,,,,530,19,Man,Left,
,,,,,,,,,,,,,,,,,530,19,Man,Left,5,49,0.15,2,0,180,180,1.1906128999980865,['y'],0.544081100000767,1.684,2251.3965944999945,,,,,530,19,Man,Left,
,,,,,,,,,,,,,,,,,530,19,Man,Left,5,70,0.15,1,180,-,0,1.6284403000026941,['y'],0.6716432999965036,1.58,2255.913153600006,,,,,530,19,Man,Left,
,,,,,,,,,,,,,,,,,530,19,Man,Left,5,27,0.4,2,180,0,0,1.1903556999895955,['y'],0.37606399999640416,1.924,2259.796783800004,,,,,530,19,Man,Left,
,,,,,,,,,,,,,,,,,530,19,Man,Left,5,41,0.4,2,0,180,180,0.4452826999913668,['y'],0.26309690000198316,1.812,2262.7298480000027,,,,,530,19,Man,Left,
,,,,,,,,,,,,,,,,,530,19,Man,Left,5,5,1,2,0,180,180,0.342801300008432,['y'],0.248219600005541,2.0,2265.513810699995,,,,,530,19,Man,Left,
,,,,,,,,,,,,,,,,,530,19,Man,Left,5,40,0.4,1,0,-,180,1.0182689999928698,['y'],0.6390138999995543,1.674,2269.829763200003,,,,,530,19,Man,Left,
,,,,,,,,,,,,,,,,,530,19,Man,Left,5,25,0.4,2,0,180,180,0.6000908999994863,['y'],0.28770000000076834,1.866,2272.797264099994,,,,,530,19,Man,Left,
,,,,,,,,,,,,,,,,,530,19,Man,Left,5,12,0.4,1,0,-,180,1.5754751000058604,['y'],1.399209899987909,1.248,2278.063945300004,,,,,530,19,Man,Left,
,,,,,,,,,,,,,,,,,530,19,Man,Left,5,44,0.15,1,0,-,180,0.7088579999981448,['n'],0.41503849999571685,1.326,2281.4472434000054,,,,,530,19,Man,Left,
,,,,,,,,,,,,,,,,,530,19,Man,Left,5,43,0.4,2,180,0,0,1.9030014000018127,['y'],0.5032422999938717,1.688,2286.0632099000068,,,,,530,19,Man,Left,
,,,,,,,,,,,,,,,,,530,19,Man,Left,5,79,0.15,2,180,0,180,1.456403299991507,['n'],0.4309241999872029,1.208,2290.0298541999946,,,,,530,19,Man,Left,
,,,,,,,,,,,,,,,,,530,19,Man,Left,5,14,0.4,1,180,-,180,0.4861388999997871,['n'],0.29522119999455754,1.208,2292.8797974000045,,,,,530,19,Man,Left,
,,,,,,,,,,,,,,,,,530,19,Man,Left,5,24,0.4,1,0,-,0,0.573348400008399,['n'],0.3511588999972446,1.3319999999999999,2295.947082800005,,,,,530,19,Man,Left,
,,,,,,,,,,,,,,,,,530,19,Man,Left,5,76,0.15,1,0,-,180,0.8650807000085479,['y'],0.2882900999975391,1.564,2299.347284599993,,,,,530,19,Man,Left,
,,,,,,,,,,,,,,,,,530,19,Man,Left,5,32,0.4,1,0,-,0,1.5259701000031782,['n'],0.24795309999899473,1.276,2303.2299670000066,,,,,530,19,Man,Left,
,,,,,,,,,,,,,,,,,530,19,Man,Left,5,1,1,2,0,180,180,0.3706716000015149,['y'],0.2631568999931915,2.0,2305.8968779999996,,,,,530,19,Man,Left,
,,,,,,,,,,,,,,,,,530,19,Man,Left,5,78,0.15,1,180,-,0,1.3668345999903977,['n'],0.3040989000000991,1.258,2309.7966533,,,,,530,19,Man,Left,
,,,,,,,,,,,,,,,,,530,19,Man,Left,5,23,0.4,2,180,0,0,1.1097301999980118,['y'],0.351022799994098,1.786,2313.497184299995,,,,,530,19,Man,Left,
,,,,,,,,,,,,,,,,,530,19,Man,Left,5,55,0.15,2,180,0,180,0.8964230999990832,['n'],0.29484940000111237,1.212,2316.729656800002,,,,,530,19,Man,Left,
,,,,,,,,,,,,,,,,,530,19,Man,Left,5,21,0.4,2,0,180,180,0.6164013999950839,['y'],0.24611880000156816,1.732,2319.796986100002,,,,,530,19,Man,Left,
,,,,,,,,,,,,,,,,,530,19,Man,Left,5,48,0.15,1,0,-,0,2.6553637999895727,['n'],0.23090439999941736,1.22,2324.796546800004,,,,,530,19,Man,Left,
,,,,,,,,,,,,,,,,,530,19,Man,Left,5,33,0.4,2,0,180,180,0.36649329999636393,['y'],0.19973530000424944,2.0,2327.463755799996,,,,,530,19,Man,Left,
,,,,,,,,,,,,,,,,,530,19,Man,Left,5,56,0.15,1,0,-,0,0.5726829000050202,['n'],0.25480110000353307,1.082,2330.446980099994,,,,,530,19,Man,Left,
,,,,,,,,,,,,,,,,,530,19,Man,Left,5,58,0.15,1,180,-,180,0.3119349000044167,['y'],0.19932749999861699,1.748,2333.063767300002,,,,,530,19,Man,Left,
,,,,,,,,,,,,,,,,,530,19,Man,Left,5,22,0.4,1,180,-,180,0.5326468999992358,['n'],0.7525534000014886,1.738,2336.6472049000004,,,,,530,19,Man,Left,
,,,,,,,,,,,,,,,,,530,19,Man,Left,5,52,0.15,1,0,-,0,1.2376320000039414,['n'],0.3270444000081625,1.252,2340.879626099995,,,,,530,19,Man,Left,
,,,,,,,,,,,,,,,,,530,19,Man,Left,5,26,0.4,1,180,-,180,0.2964079999946989,['n'],0.31193460000213236,1.738,2344.563777400006,,,,,530,19,Man,Left,
,,,,,,,,,,,,,,,,,530,19,Man,Left,5,51,0.15,2,180,0,0,1.355519099990488,['y'],0.6069186000095215,1.662,2348.9463254,,,,,530,19,Man,Left,
,,,,,,,,,,,,,,,,,530,19,Man,Left,5,60,0.15,1,0,-,0,0.6123451000021305,['n'],0.3356651000067359,1.6440000000000001,2354.7629782000004,,,,,530,19,Man,Left,
,,,,,,,,,,,,,,,,,530,19,Man,Left,5,37,0.4,2,0,180,180,0.491842599993106,['y'],0.3440113999968162,1.662,2359.463758099999,,,,,530,19,Man,Left,
,,,,,,,,,,,,,,,,,530,19,Man,Left,5,75,0.15,2,180,0,0,0.40345389999856707,['n'],0.26359670000965707,1.316,2362.3629041999957,,,,,530,19,Man,Left,
,,,,,,,,,,,,,,,,,530,19,Man,Left,5,28,0.4,1,0,-,0,0.9567566000041552,['n'],0.4392855000041891,1.224,2365.9636461000046,,,,,530,19,Man,Left,
,,,,,,,,,,,,,,,,,530,19,Man,Left,5,59,0.15,2,180,0,0,0.7405064000049606,['y'],0.4314837999991141,1.662,2369.4296427999943,,,,,530,19,Man,Left,
,,,,,,,,,,,,,,,,,530,19,Man,Left,5,0,1,1,0,-,0,0.7466751000029035,['n'],0.3352749000041513,2.0,2372.9803338000056,,,,,530,19,Man,Left,
,,,,,,,,,,,,,,,,,530,19,Man,Left,5,61,0.15,2,0,180,180,1.68494940000528,['n'],0.2399819000129355,1.218,2377.0637205999956,,,,,530,19,Man,Left,
,,,,,,,,,,,,,,,,,530,19,Man,Left,5,63,0.15,2,180,0,180,0.6339288000017405,['n'],0.21543229999952018,1.286,2379.963706399998,,,,,530,19,Man,Left,
,,,,,,,,,,,,,,,,,530,19,Man,Left,5,11,0.4,2,180,0,0,0.879878000007011,['y'],1.166843000013614,1.8519999999999999,2384.330589499994,,,,,530,19,Man,Left,
,,,,,,,,,,,,,,,,,530,19,Man,Left,5,45,0.15,2,0,180,180,0.8420749000069918,['y'],0.35918269999092445,1.3599999999999999,2388.0796904000017,,,,,530,19,Man,Left,
,,,,,,,,,,,,,,,,,530,19,Man,Left,5,53,0.15,2,0,180,0,1.7637496999959694,['y'],0.5116215000016382,1.342,2392.746794299994,,,,,530,19,Man,Left,
,,,,,,,,,,,,,,,,,530,19,Man,Left,5,4,1,1,0,-,0,0.42460939999728,['n'],0.272227199995541,2.0,2395.5978724000015,,,,,530,19,Man,Left,
,,,,,,,,,,,,,,,,,530,19,Man,Left,5,3,1,2,180,0,0,0.7846132999984547,['y'],0.2705242999945767,2.0,2398.829537700003,,,,,530,19,Man,Left,
,,,,,,,,,,,,,,,,,530,19,Man,Left,5,29,0.4,2,0,180,180,1.374880100003793,['y'],1.3999947999982396,2.0,2403.829612100002,,,,,530,19,Man,Left,
,,,,,,,,,,,,,,,,,530,19,Man,Left,5,7,1,2,180,0,0,0.5601071999990381,['y'],0.23129339999286458,2.0,2406.6969003999984,,,,,530,19,Man,Left,
,,,,,,,,,,,,,,,,,530,19,Man,Left,5,17,0.4,2,0,180,180,0.5334517000010237,['y'],0.21436569999787025,2.0,2409.546347299998,,,,,530,19,Man,Left,
,,,,,,,,,,,,,,,,,530,19,Man,Left,5,30,0.4,1,180,-,180,0.48210190000827424,['n'],0.2229597000114154,1.8820000000000001,2412.613656799993,,,,,530,19,Man,Left,
,,,,,,,,,,,,,,,,,530,19,Man,Left,5,39,0.4,2,180,0,0,0.5687857000011718,['y'],0.2315299000038067,2.0,2415.5295214999933,,,,,530,19,Man,Left,
,,,,,,,,,,,,,,,,,530,19,Man,Left,5,46,0.15,1,180,-,180,1.5403551000053994,['y'],0.7512736000062432,1.85,2420.029576000001,,,,,530,19,Man,Left,
,,,,,,,,,,,,,,,,,530,19,Man,Left,5,19,0.4,2,180,0,0,0.7048380000051111,['y'],0.2872423000080744,2.0,2423.146776399997,,,,,530,19,Man,Left,
,,,,,,,,,,,,,,,,,530,19,Man,Left,5,69,0.15,2,0,180,180,1.8464665000064997,['y'],0.37601969999377616,1.6099999999999999,2428.479708300001,,,,,530,19,Man,Left,
,,,,,,,,,,,,,,,,,530,19,Man,Left,5,73,0.15,2,0,180,180,1.2727461000031326,['n'],0.30362310000055004,1.2,2432.1967933999986,,,,,530,19,Man,Left,
,,,,,,,,,,,,,,,,,530,19,Man,Left,5,66,0.15,1,180,-,0,0.5248354000068503,['n'],0.42457100001047365,1.71,2435.7628912999935,,,,,530,19,Man,Left,
,,,,,,,,,,,,,,,,,530,19,Man,Left,5,2,1,1,180,-,180,0.5333866000000853,['y'],0.6796173000038834,2.0,2439.046203299993,,,,,530,19,Man,Left,
,,,,,,,,,,,,,,,,,530,19,Man,Left,5,77,0.15,2,0,180,180,0.9067818000039551,['y'],1.8395175999903586,1.6680000000000001,2444.297317400007,,,,,530,19,Man,Left,
,,,,,,,,,,,,,,,,,530,19,Man,Left,5,16,0.4,1,0,-,0,1.1537241000041831,['n'],0.7031129999959376,1.722,2448.4636551000003,,,,,530,19,Man,Left,
,,,,,,,,,,,,,,,,,530,19,Man,Left,5,13,0.4,2,0,180,180,0.6363922000018647,['y'],0.18260400000144728,2.0,2452.3797815,,,,,530,19,Man,Left,
,,,,,,,,,,,,,,,,,530,19,Man,Left,5,64,0.15,1,0,-,0,2.8812887000094634,['y'],0.9362426000006963,1.6440000000000001,2458.4795172000013,,,,,530,19,Man,Left,
,,,,,,,,,,,,,,,,,530,19,Man,Left,5,72,0.15,1,0,-,180,1.7815220000047702,['n'],0.32793080000556074,1.062,2463.2962723999954,,,,,530,19,Man,Left,
,,,,,,,,,,,,,,,,,530,19,Man,Left,5,65,0.15,2,0,180,180,0.8919373999960953,['y'],0.3348210999974981,1.674,2468.529445299995,,,,,530,19,Man,Left,
,,,,,,,,,,,,,,,,,530,19,Man,Left,5,15,0.4,2,180,0,0,0.5673931000055745,['y'],0.2608250999910524,2.0,2471.413735599999,,,,,530,19,Man,Left,
,,,,,,,,,,,,,,,,,530,19,Man,Left,5,35,0.4,2,180,0,0,0.39956249999522697,['y'],0.28764500000397675,1.888,2474.379433599999,,,,,530,19,Man,Left,
,,,,,,,,,,,,,,,,,530,19,Man,Left,5,34,0.4,1,180,-,180,0.3882062000047881,['n'],0.25580290000652894,1.806,2477.8295097999944,,,,,530,19,Man,Left,
,,,,,,,,,,,,,,,,,530,19,Man,Left,5,68,0.15,1,0,-,0,2.090782899991609,['y'],0.7278695999993943,1.308,2482.996436500005,,,,,530,19,Man,Left,
,,,,,,,,,,,,,,,,,530,19,Man,Left,5,31,0.4,2,180,0,0,1.1473677000030875,['y'],0.5432041000021854,1.762,2487.679497300007,,,,,530,19,Man,Left,
,,,,,,,,,,,,,,,,,530,19,Man,Left,5,50,0.15,1,180,-,180,0.5203781000018353,['n'],0.2396054999990156,1.242,2491.212944500003,,,,,530,19,Man,Left,
,,,,,,,,,,,,,,,,,530,19,Man,Left,5,20,0.4,1,0,-,0,0.5314712999970652,['n'],0.27922989999933634,1.238,2494.1467739000072,,,,,530,19,Man,Left,
,,,,,,,,,,,,,,,,,530,19,Man,Left,5,9,0.4,2,0,180,180,2.167534499996691,['y'],0.41544620000058785,1.624,2498.8969319000025,,,,,530,19,Man,Left,
,,,,,,,,,,,,,,,,,530,19,Man,Left,5,67,0.15,2,180,0,0,1.192806399994879,['y'],0.4400372999953106,1.662,2502.6627567999967,,,,,530,19,Man,Left,
,,,,,,,,,,,,,,,,,530,19,Man,Left,5,47,0.15,2,180,0,180,1.211055599997053,['y'],1.591568499992718,1.6280000000000001,2507.613567799999,,,,,530,19,Man,Left,
,,,,,,,,,,,,,,,,,530,19,Man,Left,5,10,0.4,1,180,-,180,0.5733840000029886,['n'],0.23141079999913927,1.318,2510.5967460999964,,,,,530,19,Man,Left,
,,,,,,,,,,,,,,,,,530,19,Man,Left,5,6,1,1,180,-,180,0.8852146999997785,['n'],0.37536040000850335,1.238,2514.0294009000063,,,,,530,19,Man,Left,
,,,,,,,,,,,,,,,,,530,19,Man,Left,5,42,0.4,1,180,-,180,0.9983142999990378,['n'],0.3669554999942193,1.6400000000000001,2517.5960597999947,,,,,530,19,Man,Left,
,,,,,,,,,,,,,,,,,530,19,Man,Left,5,71,0.15,2,180,0,0,1.0883596999919973,['y'],0.5678135000052862,1.69,2521.529338499997,,,,,530,19,Man,Left,
,,,,,,,,,,,,,,,,,530,19,Man,Left,5,38,0.4,1,180,-,180,0.3299343999970006,['n'],0.24796880000212695,1.706,2524.346106600002,,,,,530,19,Man,Left,
,,,,,,,,,,,,,,,,,530,19,Man,Left,5,54,0.15,1,180,-,0,1.0090667000040412,['y'],0.31161340000107884,1.696,2527.8633336000057,,,,,530,19,Man,Left,
,,,,,,,,,,,,,,,,,530,19,Man,Left,5,18,0.4,1,180,-,180,0.4006448000000091,['n'],0.2761365000042133,1.722,2531.1134592000017,,,,,530,19,Man,Left,
,,,,,,,,,,,,,,,,,530,19,Man,Left,5,8,0.4,1,0,-,180,2.2122025999997277,['y'],0.24718030000803992,1.6400000000000001,2535.847208799998,,,,,530,19,Man,Left,
,,,,,,,,,,,,,,,,,530,19,Man,Left,5,74,0.15,1,180,-,0,1.0402239999966696,['n'],0.319774999996298,1.306,2539.446677400003,,,,,530,19,Man,Left,
,,,,,,,,,,,,,,,,,,,,,,,,,,,,,,,,,78.75,72.5,82.5,2283.4361062000025,,,,,
