p_block,p_section,p_coherence,p_direction1,p_direction2,p_direction_response,p_direction_RT,p_change_response,p_change_RT,p_confidence,p_full_correct,p_without5_correct,p_full_total,p_without5_total,p_full_avg,p_witout5_avg,p_total_time,sub,age,sex,handedness,loop,trial randomization,coherence,condition,direction1,direction2,direction_response,direction_RT,change_response,change_RT,change_confidence,change_confidence_RT,block_direction_avg,block_stable_avg,block_change_avg,total_time,sub,age,sex,handedness,
1,1,1.0,0,-,0,1.150189699998009,-,-,-,,,,,,,,519,18,Woman,Right,,,,,,,,,,,,,,,,,519,18,Woman,Right,
1,1,1.0,0,-,0,0.3501421000037226,-,-,-,,,,,,,,519,18,Woman,Right,,,,,,,,,,,,,,,,,519,18,Woman,Right,
1,1,1.0,180,-,180,0.9625450999956229,-,-,-,,,,,,,,519,18,Woman,Right,,,,,,,,,,,,,,,,,519,18,Woman,Right,
1,1,1.0,180,-,180,0.36670630000298843,-,-,-,,,,,,,,519,18,Woman,Right,,,,,,,,,,,,,,,,,519,18,Woman,Right,
1,1,1.0,0,-,0,0.7063151999973343,-,-,-,,,,,,,,519,18,Woman,Right,,,,,,,,,,,,,,,,,519,18,Woman,Right,
1,1,1.0,180,-,180,0.35264440000173636,-,-,-,,,,,,,,519,18,Woman,Right,,,,,,,,,,,,,,,,,519,18,Woman,Right,
1,1,1.0,0,-,0,0.27663729999767384,-,-,-,,,,,,,,519,18,Woman,Right,,,,,,,,,,,,,,,,,519,18,Woman,Right,
1,1,1.0,0,-,0,0.4204096000030404,-,-,-,,,,,,,,519,18,Woman,Right,,,,,,,,,,,,,,,,,519,18,Woman,Right,
1,1,1.0,180,-,180,0.3739687999986927,-,-,-,,,,,,,,519,18,Woman,Right,,,,,,,,,,,,,,,,,519,18,Woman,Right,
1,1,1.0,180,-,180,0.44188459999713814,-,-,-,10,10,10,10,1.0,1.0,,519,18,Woman,Right,,,,,,,,,,,,,,,,,519,18,Woman,Right,
2,1,0.15,0,-,0,0.9212146999998367,-,-,-,,,,,,,,519,18,Woman,Right,,,,,,,,,,,,,,,,,519,18,Woman,Right,
2,1,0.15,180,-,0,0.3754389000023366,-,-,-,,,,,,,,519,18,Woman,Right,,,,,,,,,,,,,,,,,519,18,Woman,Right,
2,1,0.4,180,-,180,0.3149916999973357,-,-,-,,,,,,,,519,18,Woman,Right,,,,,,,,,,,,,,,,,519,18,Woman,Right,
2,1,0.4,180,-,180,0.24807059999875491,-,-,-,,,,,,,,519,18,Woman,Right,,,,,,,,,,,,,,,,,519,18,Woman,Right,
2,1,0.15,180,-,180,0.30468090000067605,-,-,-,,,,,,,,519,18,Woman,Right,,,,,,,,,,,,,,,,,519,18,Woman,Right,
2,1,0.4,0,-,0,0.017600099999981467,-,-,-,,,,,,,,519,18,Woman,Right,,,,,,,,,,,,,,,,,519,18,Woman,Right,
2,1,0.4,180,-,180,0.5606539000000339,-,-,-,,,,,,,,519,18,Woman,Right,,,,,,,,,,,,,,,,,519,18,Woman,Right,
2,1,0.15,180,-,180,0.2527180000033695,-,-,-,,,,,,,,519,18,Woman,Right,,,,,,,,,,,,,,,,,519,18,Woman,Right,
2,1,0.15,180,-,0,0.2686108999987482,-,-,-,,,,,,,,519,18,Woman,Right,,,,,,,,,,,,,,,,,519,18,Woman,Right,
2,1,0.4,180,-,180,0.30036549999931594,-,-,-,8,5,10,5,0.8,1.0,,519,18,Woman,Right,,,,,,,,,,,,,,,,,519,18,Woman,Right,
3,2,1.0,180,0,180,1.4339276000027894,['y'],6.5777854999978445,1.914,,,,,,,,519,18,Woman,Right,,,,,,,,,,,,,,,,,519,18,Woman,Right,
3,2,1.0,0,180,0,3.784175900000264,['y'],2.1958092999993823,1.756,,,,,,,,519,18,Woman,Right,,,,,,,,,,,,,,,,,519,18,Woman,Right,
3,2,1.0,0,180,180,0.7851823000019067,['y'],1.428723600001831,2.0,,,,,,,,519,18,Woman,Right,,,,,,,,,,,,,,,,,519,18,Woman,Right,
3,2,1.0,180,0,0,0.8506437000032747,['y'],0.348606400002609,2.0,,,,,,,,519,18,Woman,Right,,,,,,,,,,,,,,,,,519,18,Woman,Right,
3,2,1.0,0,180,180,0.8192724999971688,['y'],0.42343519999849377,2.0,,,,,,,,519,18,Woman,Right,,,,,,,,,,,,,,,,,519,18,Woman,Right,
3,2,1.0,180,0,0,0.5766389000054915,['y'],0.36758360000385437,1.79,,,,,,,,519,18,Woman,Right,,,,,,,,,,,,,,,,,519,18,Woman,Right,
3,2,1.0,0,180,180,0.5038869999989402,['y'],0.28944520000368357,2.0,,,,,,,,519,18,Woman,Right,,,,,,,,,,,,,,,,,519,18,Woman,Right,
3,2,1.0,180,0,0,1.5919432999944547,['y'],0.39220840000052704,1.788,,,,,,,,519,18,Woman,Right,,,,,,,,,,,,,,,,,519,18,Woman,Right,
3,2,1.0,0,180,180,0.30120800000440795,['y'],0.11342259999946691,2.0,,,,,,,,519,18,Woman,Right,,,,,,,,,,,,,,,,,519,18,Woman,Right,
3,2,1.0,0,180,180,0.35962109999672975,['y'],0.28280549999908544,2.0,8,8,10,10,0.8,0.8,,519,18,Woman,Right,,,,,,,,,,,,,,,,,519,18,Woman,Right,
4,2,0.4,0,180,180,0.7890648999964469,['y'],0.4397587999992538,1.8860000000000001,,,,,,,,519,18,Woman,Right,,,,,,,,,,,,,,,,,519,18,Woman,Right,
4,2,0.4,180,0,0,0.4664909999992233,['y'],0.31661439999879804,1.814,,,,,,,,519,18,Woman,Right,,,,,,,,,,,,,,,,,519,18,Woman,Right,
4,2,0.4,180,0,0,0.43398989999695914,['y'],0.2860517000008258,1.8679999999999999,,,,,,,,519,18,Woman,Right,,,,,,,,,,,,,,,,,519,18,Woman,Right,
4,2,0.15,180,0,180,1.3238970000020345,['y'],0.3079423999952269,1.798,,,,,,,,519,18,Woman,Right,,,,,,,,,,,,,,,,,519,18,Woman,Right,
4,2,0.15,0,180,0,0.6544166000021505,['n'],0.3061283999995794,1.478,,,,,,,,519,18,Woman,Right,,,,,,,,,,,,,,,,,519,18,Woman,Right,
4,2,0.15,180,0,0,0.6157953000001726,['y'],0.2945765999975265,1.68,,,,,,,,519,18,Woman,Right,,,,,,,,,,,,,,,,,519,18,Woman,Right,
4,2,0.4,180,0,0,0.30583150000165915,['y'],0.3095898999963538,1.862,,,,,,,,519,18,Woman,Right,,,,,,,,,,,,,,,,,519,18,Woman,Right,
4,2,0.15,180,0,0,0.30671609999990324,['y'],0.2787592000022414,1.842,,,,,,,,519,18,Woman,Right,,,,,,,,,,,,,,,,,519,18,Woman,Right,
4,2,0.4,180,0,0,0.26913210000202525,['y'],0.2746739000067464,1.836,,,,,,,,519,18,Woman,Right,,,,,,,,,,,,,,,,,519,18,Woman,Right,
4,2,0.4,0,180,180,0.30961479999677977,['y'],0.28303849999792874,1.8639999999999999,8,6,10,6,0.8,1.0,,519,18,Woman,Right,,,,,,,,,,,,,,,,,519,18,Woman,Right,
5,3,1.0,0,180,180,0.39492410000093514,['y'],0.32796040000539506,2.0,,,,,,,,519,18,Woman,Right,,,,,,,,,,,,,,,,,519,18,Woman,Right,
5,3,0.4,180,0,0,0.500960400000622,['y'],0.3260967999958666,1.934,,,,,,,,519,18,Woman,Right,,,,,,,,,,,,,,,,,519,18,Woman,Right,
5,3,0.4,180,0,0,0.5254358000020147,['y'],0.30347729999630246,1.908,,,,,,,,519,18,Woman,Right,,,,,,,,,,,,,,,,,519,18,Woman,Right,
5,3,1.0,180,0,0,0.2865333000008832,['y'],0.29050119999737944,1.964,,,,,,,,519,18,Woman,Right,,,,,,,,,,,,,,,,,519,18,Woman,Right,
5,3,0.4,180,0,0,0.2554717000020901,['y'],0.35739530000137165,1.91,,,,,,,,519,18,Woman,Right,,,,,,,,,,,,,,,,,519,18,Woman,Right,
5,3,0.4,0,-,0,1.5983865000016522,['n'],0.26427800000237767,1.88,,,,,,,,519,18,Woman,Right,,,,,,,,,,,,,,,,,519,18,Woman,Right,
5,3,1.0,180,0,0,0.4851146999935736,['y'],0.2682264000031864,1.88,,,,,,,,519,18,Woman,Right,,,,,,,,,,,,,,,,,519,18,Woman,Right,
5,3,1.0,0,180,180,0.2656743000043207,['y'],0.23398550000274554,1.884,,,,,,,,519,18,Woman,Right,,,,,,,,,,,,,,,,,519,18,Woman,Right,
5,3,0.15,0,180,180,0.7106980000025942,['n'],0.26987979999830713,1.6,,,,,,,,519,18,Woman,Right,,,,,,,,,,,,,,,,,519,18,Woman,Right,
5,3,1.0,180,0,0,0.4077882999990834,['y'],0.268672999998671,1.804,10,9,10,9,1.0,1.0,,519,18,Woman,Right,,,,,,,,,,,,,,,,,519,18,Woman,Right,
,,,,,,,,,,,,,,,,4.399997123982757e-06,519,18,Woman,Right,,,,,,,,,,,,,,,,,519,18,Woman,Right,
,,,,,,,,,,,,,,,,,519,18,Woman,Right,0,50,0.15,1,180,-,0,1.488014499998826,['n'],3.395780699996976,1.794,252.01910170000338,,,,,519,18,Woman,Right,
,,,,,,,,,,,,,,,,,519,18,Woman,Right,0,47,0.15,2,180,0,0,0.6186181999946712,['n'],1.629432200003066,1.816,257.85167920000094,,,,,519,18,Woman,Right,
,,,,,,,,,,,,,,,,,519,18,Woman,Right,0,31,0.4,2,180,0,0,0.29152130000147736,['y'],1.6698883999997634,1.97,262.8365771000026,,,,,519,18,Woman,Right,
,,,,,,,,,,,,,,,,,519,18,Woman,Right,0,61,0.15,2,0,180,180,0.8238392000057502,['n'],0.8536583000022802,1.6560000000000001,268.635008199999,,,,,519,18,Woman,Right,
,,,,,,,,,,,,,,,,,519,18,Woman,Right,0,28,0.4,1,0,-,0,0.7084077999970759,['n'],1.0716610000017681,1.78,273.15178749999905,,,,,519,18,Woman,Right,
,,,,,,,,,,,,,,,,,519,18,Woman,Right,0,17,0.4,2,0,180,180,0.5229468000034103,['y'],0.7678329999980633,1.77,277.18505359999835,,,,,519,18,Woman,Right,
,,,,,,,,,,,,,,,,,519,18,Woman,Right,0,20,0.4,1,0,-,0,1.0927837999988697,['n'],0.800334000006842,1.294,282.1849770999979,,,,,519,18,Woman,Right,
,,,,,,,,,,,,,,,,,519,18,Woman,Right,0,24,0.4,1,0,-,180,0.4000151000000187,['y'],1.1207066999995732,1.564,286.551736399997,,,,,519,18,Woman,Right,
,,,,,,,,,,,,,,,,,519,18,Woman,Right,0,23,0.4,2,180,0,0,0.2909826000031899,['y'],1.0244430000020657,1.912,291.01881980000326,,,,,519,18,Woman,Right,
,,,,,,,,,,,,,,,,,519,18,Woman,Right,0,53,0.15,2,0,180,180,0.4530808999988949,['n'],0.8097602000052575,1.686,294.9691888000016,,,,,519,18,Woman,Right,
,,,,,,,,,,,,,,,,,519,18,Woman,Right,0,51,0.15,2,180,0,0,1.8018195999975433,['n'],1.2342532999973628,1.5979999999999999,300.969210700001,,,,,519,18,Woman,Right,
,,,,,,,,,,,,,,,,,519,18,Woman,Right,0,8,0.4,1,0,-,0,0.4045613999987836,['y'],2.2508730000045034,1.788,306.43580369999836,,,,,519,18,Woman,Right,
,,,,,,,,,,,,,,,,,519,18,Woman,Right,0,74,0.15,1,180,-,180,0.4020710000040708,['y'],0.6675255999944056,1.692,310.10190390000207,,,,,519,18,Woman,Right,
,,,,,,,,,,,,,,,,,519,18,Woman,Right,0,35,0.4,2,180,0,0,0.34730600000330014,['y'],0.699895199999446,1.69,313.8185233999975,,,,,519,18,Woman,Right,
,,,,,,,,,,,,,,,,,519,18,Woman,Right,0,69,0.15,2,0,180,180,0.32356240000081016,['n'],0.7089155000066967,1.69,317.9352203000017,,,,,519,18,Woman,Right,
,,,,,,,,,,,,,,,,,519,18,Woman,Right,0,16,0.4,1,0,-,0,0.3527195999995456,['n'],0.8608733999935794,1.708,322.8361468000003,,,,,519,18,Woman,Right,
,,,,,,,,,,,,,,,,,519,18,Woman,Right,0,14,0.4,1,180,-,180,0.5445302000007359,['n'],0.5495441000020946,1.702,327.4693084000028,,,,,519,18,Woman,Right,
,,,,,,,,,,,,,,,,,519,18,Woman,Right,0,75,0.15,2,180,0,0,0.5837644999992335,['n'],0.8979358000069624,1.764,331.8518935000029,,,,,519,18,Woman,Right,
,,,,,,,,,,,,,,,,,519,18,Woman,Right,0,34,0.4,1,180,-,180,0.897521400002006,['n'],0.42220009999437025,1.754,335.6192547000028,,,,,519,18,Woman,Right,
,,,,,,,,,,,,,,,,,519,18,Woman,Right,0,48,0.15,1,0,-,0,0.3031212000059895,['n'],0.6952354000022751,1.752,339.1193615000011,,,,,519,18,Woman,Right,
,,,,,,,,,,,,,,,,,519,18,Woman,Right,0,76,0.15,1,0,-,180,1.4677272000044468,['y'],1.4080514000015683,1.3900000000000001,345.05207569999766,,,,,519,18,Woman,Right,
,,,,,,,,,,,,,,,,,519,18,Woman,Right,0,29,0.4,2,0,180,180,0.7013181000002078,['y'],0.9845054000033997,1.6059999999999999,349.8687226000038,,,,,519,18,Woman,Right,
,,,,,,,,,,,,,,,,,519,18,Woman,Right,0,25,0.4,2,0,180,180,0.36550350000470644,['y'],1.0171951000011177,1.806,353.76943040000333,,,,,519,18,Woman,Right,
,,,,,,,,,,,,,,,,,519,18,Woman,Right,0,41,0.4,2,0,180,180,0.35020280000026105,['y'],0.5772609999985434,1.986,357.26867309999943,,,,,519,18,Woman,Right,
,,,,,,,,,,,,,,,,,519,18,Woman,Right,0,38,0.4,1,180,-,180,0.3970562999966205,['n'],1.417972600000212,1.914,361.5186776999981,,,,,519,18,Woman,Right,
,,,,,,,,,,,,,,,,,519,18,Woman,Right,0,0,1,1,0,-,0,0.34678859999985434,['n'],1.5715168999959133,1.912,365.8190689000039,,,,,519,18,Woman,Right,
,,,,,,,,,,,,,,,,,519,18,Woman,Right,0,59,0.15,2,180,0,180,0.41706060000433354,['n'],0.9312745999995968,1.912,369.503005999999,,,,,519,18,Woman,Right,
,,,,,,,,,,,,,,,,,519,18,Woman,Right,0,52,0.15,1,0,-,0,0.9891245999970124,['n'],0.6912502000050154,1.688,373.72008910000295,,,,,519,18,Woman,Right,
,,,,,,,,,,,,,,,,,519,18,Woman,Right,0,22,0.4,1,180,-,180,0.37091359999612905,['n'],0.6755397000015364,1.678,377.1362767000028,,,,,519,18,Woman,Right,
,,,,,,,,,,,,,,,,,519,18,Woman,Right,0,66,0.15,1,180,-,180,0.33185239999875193,['n'],0.5000602000000072,1.678,380.3188000000009,,,,,519,18,Woman,Right,
,,,,,,,,,,,,,,,,,519,18,Woman,Right,0,46,0.15,1,180,-,180,0.3197906000059447,['n'],0.6845530999999028,1.678,384.0192812000023,,,,,519,18,Woman,Right,
,,,,,,,,,,,,,,,,,519,18,Woman,Right,0,26,0.4,1,180,-,180,0.7120739999954822,['n'],4.013943999998446,1.9020000000000001,391.4023176999981,,,,,519,18,Woman,Right,
,,,,,,,,,,,,,,,,,519,18,Woman,Right,0,62,0.15,1,180,-,180,0.31962810000550235,['n'],1.6784216000014567,1.858,395.76956659999996,,,,,519,18,Woman,Right,
,,,,,,,,,,,,,,,,,519,18,Woman,Right,0,79,0.15,2,180,0,0,0.4499275999987731,['y'],0.951072000003478,1.676,400.1022148999982,,,,,519,18,Woman,Right,
,,,,,,,,,,,,,,,,,519,18,Woman,Right,0,6,1,1,180,-,180,0.4944790000008652,['n'],1.5030111000014585,1.6059999999999999,404.76954549999937,,,,,519,18,Woman,Right,
,,,,,,,,,,,,,,,,,519,18,Woman,Right,0,9,0.4,2,0,180,180,0.5994984999997541,['y'],0.6394317999947816,1.772,408.7357864000005,,,,,519,18,Woman,Right,
,,,,,,,,,,,,,,,,,519,18,Woman,Right,0,73,0.15,2,0,180,180,0.40544930000032764,['y'],0.7601604000010411,1.782,412.55301920000056,,,,,519,18,Woman,Right,
,,,,,,,,,,,,,,,,,519,18,Woman,Right,0,70,0.15,1,180,-,180,0.450687000004109,['y'],0.9692235000038636,1.782,416.2856183999975,,,,,519,18,Woman,Right,
,,,,,,,,,,,,,,,,,519,18,Woman,Right,0,2,1,1,180,-,180,1.070329500005755,['y'],0.6973992999992333,1.362,420.5363875999974,,,,,519,18,Woman,Right,
,,,,,,,,,,,,,,,,,519,18,Woman,Right,0,10,0.4,1,180,-,180,0.580032999998366,['n'],1.4102548000009847,1.778,425.48571059999813,,,,,519,18,Woman,Right,
,,,,,,,,,,,,,,,,,519,18,Woman,Right,0,55,0.15,2,180,0,0,0.3126087999989977,['y'],1.0748384999969858,1.778,429.0689815000005,,,,,519,18,Woman,Right,
,,,,,,,,,,,,,,,,,519,18,Woman,Right,0,58,0.15,1,180,-,180,0.3528851000010036,['y'],0.7151768000039738,1.6099999999999999,433.0189934000009,,,,,519,18,Woman,Right,
,,,,,,,,,,,,,,,,,519,18,Woman,Right,0,27,0.4,2,180,0,0,0.3038998999982141,['y'],0.9552703000008478,1.796,436.9190457000004,,,,,519,18,Woman,Right,
,,,,,,,,,,,,,,,,,519,18,Woman,Right,0,71,0.15,2,180,0,0,0.3326355999961379,['y'],0.8993575999993482,1.794,440.4690628000026,,,,,519,18,Woman,Right,
,,,,,,,,,,,,,,,,,519,18,Woman,Right,0,11,0.4,2,180,0,0,1.0446130999989691,['y'],0.6127549000011641,1.782,444.5032235000035,,,,,519,18,Woman,Right,
,,,,,,,,,,,,,,,,,519,18,Woman,Right,0,32,0.4,1,0,-,0,0.6133153999981005,['y'],0.5169639000014286,1.782,448.002384600004,,,,,519,18,Woman,Right,
,,,,,,,,,,,,,,,,,519,18,Woman,Right,0,4,1,1,0,-,180,1.0335583000050974,['y'],0.4376674000013736,1.782,451.8698089000027,,,,,519,18,Woman,Right,
,,,,,,,,,,,,,,,,,519,18,Woman,Right,0,54,0.15,1,180,-,180,0.604428899998311,['n'],0.7104061999998521,1.63,455.88644660000136,,,,,519,18,Woman,Right,
,,,,,,,,,,,,,,,,,519,18,Woman,Right,0,19,0.4,2,180,0,0,0.3566774999999325,['y'],0.5823796000040602,1.624,459.1024863999992,,,,,519,18,Woman,Right,
,,,,,,,,,,,,,,,,,519,18,Woman,Right,0,45,0.15,2,0,180,180,0.6646720999997342,['y'],0.3583020999940345,1.522,463.0194782000035,,,,,519,18,Woman,Right,
,,,,,,,,,,,,,,,,,519,18,Woman,Right,0,60,0.15,1,0,-,0,1.3807978000040748,['n'],0.4149198999948567,1.432,467.3699048999988,,,,,519,18,Woman,Right,
,,,,,,,,,,,,,,,,,519,18,Woman,Right,0,65,0.15,2,0,180,180,0.6984325000012177,['y'],0.6318524000016623,1.6520000000000001,471.2191837999999,,,,,519,18,Woman,Right,
,,,,,,,,,,,,,,,,,519,18,Woman,Right,0,40,0.4,1,0,-,180,0.37466189999395283,['y'],0.8243671000018367,1.6179999999999999,475.2030300999977,,,,,519,18,Woman,Right,
,,,,,,,,,,,,,,,,,519,18,Woman,Right,0,42,0.4,1,180,-,180,0.3922450999962166,['n'],0.9366312999991351,1.6059999999999999,479.16929369999707,,,,,519,18,Woman,Right,
,,,,,,,,,,,,,,,,,519,18,Woman,Right,0,56,0.15,1,0,-,180,1.345415800002229,['n'],0.8812526999972761,1.264,484.4036456000031,,,,,519,18,Woman,Right,
,,,,,,,,,,,,,,,,,519,18,Woman,Right,0,18,0.4,1,180,-,180,0.4588711999967927,['n'],1.1927880000002915,1.6019999999999999,489.402605700001,,,,,519,18,Woman,Right,
,,,,,,,,,,,,,,,,,519,18,Woman,Right,0,72,0.15,1,0,-,180,0.45032630000059726,['n'],0.970281600006274,1.49,493.4863202999986,,,,,519,18,Woman,Right,
,,,,,,,,,,,,,,,,,519,18,Woman,Right,0,64,0.15,1,0,-,0,0.4660622000010335,['n'],1.1229259999963688,1.084,497.7526433000021,,,,,519,18,Woman,Right,
,,,,,,,,,,,,,,,,,519,18,Woman,Right,0,36,0.4,1,0,-,180,0.40688609999779146,['y'],0.8994719999973313,1.674,501.9861374000029,,,,,519,18,Woman,Right,
,,,,,,,,,,,,,,,,,519,18,Woman,Right,0,49,0.15,2,0,180,180,0.46884940000018105,['n'],1.6194972000012058,1.676,506.5700270000016,,,,,519,18,Woman,Right,
,,,,,,,,,,,,,,,,,519,18,Woman,Right,0,30,0.4,1,180,-,180,0.577144999995653,['n'],0.6929955000014161,1.678,510.26951910000207,,,,,519,18,Woman,Right,
,,,,,,,,,,,,,,,,,519,18,Woman,Right,0,39,0.4,2,180,0,0,0.3346705000003567,['y'],1.1253485999986879,1.798,514.2860164000012,,,,,519,18,Woman,Right,
,,,,,,,,,,,,,,,,,519,18,Woman,Right,0,15,0.4,2,180,0,0,0.4470221000010497,['y'],0.7889207000043825,1.98,517.8035115000021,,,,,519,18,Woman,Right,
,,,,,,,,,,,,,,,,,519,18,Woman,Right,0,63,0.15,2,180,0,180,2.4257194999954663,['n'],1.2862235000065994,1.936,523.6365231000018,,,,,519,18,Woman,Right,
,,,,,,,,,,,,,,,,,519,18,Woman,Right,0,3,1,2,180,0,0,0.9499011000007158,['y'],0.4346464000045671,1.92,528.1696321999989,,,,,519,18,Woman,Right,
,,,,,,,,,,,,,,,,,519,18,Woman,Right,0,1,1,2,0,180,180,0.4875661999976728,['y'],0.6789290000015171,1.998,531.636791500001,,,,,519,18,Woman,Right,
,,,,,,,,,,,,,,,,,519,18,Woman,Right,0,67,0.15,2,180,0,0,0.4729271000032895,['y'],0.8635779999967781,1.724,535.5367183999988,,,,,519,18,Woman,Right,
,,,,,,,,,,,,,,,,,519,18,Woman,Right,0,7,1,2,180,0,0,0.7080295999985537,['y'],1.0483509999976377,1.724,539.5535418,,,,,519,18,Woman,Right,
,,,,,,,,,,,,,,,,,519,18,Woman,Right,0,37,0.4,2,0,180,180,1.722080300001835,['y'],0.696845200000098,1.724,544.3868465999985,,,,,519,18,Woman,Right,
,,,,,,,,,,,,,,,,,519,18,Woman,Right,0,44,0.15,1,0,-,180,2.10350859999744,['y'],0.6819735000026412,1.63,549.6037483000036,,,,,519,18,Woman,Right,
,,,,,,,,,,,,,,,,,519,18,Woman,Right,0,12,0.4,1,0,-,180,0.7865769999989425,['n'],1.1064612999980454,1.52,554.0529251999978,,,,,519,18,Woman,Right,
,,,,,,,,,,,,,,,,,519,18,Woman,Right,0,5,1,2,0,180,180,0.3615133999992395,['y'],0.7542740999997477,1.772,557.6202526999987,,,,,519,18,Woman,Right,
,,,,,,,,,,,,,,,,,519,18,Woman,Right,0,33,0.4,2,0,180,180,0.3610608000017237,['y'],0.4270892000058666,1.994,561.1528639000026,,,,,519,18,Woman,Right,
,,,,,,,,,,,,,,,,,519,18,Woman,Right,0,78,0.15,1,180,-,0,1.6604139000046416,['n'],0.4908789999972214,1.634,566.4696996999992,,,,,519,18,Woman,Right,
,,,,,,,,,,,,,,,,,519,18,Woman,Right,0,77,0.15,2,0,180,180,1.604445000004489,['y'],1.708068900006765,1.346,573.354425700003,,,,,519,18,Woman,Right,
,,,,,,,,,,,,,,,,,519,18,Woman,Right,0,21,0.4,2,0,180,180,2.3929149999967194,['y'],0.7726505999962683,1.654,579.3037030999985,,,,,519,18,Woman,Right,
,,,,,,,,,,,,,,,,,519,18,Woman,Right,0,68,0.15,1,0,-,0,0.3358594000019366,['y'],0.9732769000038388,1.71,583.1874766999972,,,,,519,18,Woman,Right,
,,,,,,,,,,,,,,,,,519,18,Woman,Right,0,43,0.4,2,180,0,0,0.2592581999997492,['y'],0.6220000000030268,1.692,586.3703995000033,,,,,519,18,Woman,Right,
,,,,,,,,,,,,,,,,,519,18,Woman,Right,0,57,0.15,2,0,180,180,1.3473324999940814,['y'],0.39813920000597136,1.784,590.4369843000022,,,,,519,18,Woman,Right,
,,,,,,,,,,,,,,,,,519,18,Woman,Right,0,13,0.4,2,0,180,180,0.5069864000033704,['y'],0.3903236000041943,1.822,593.6195931000038,,,,,519,18,Woman,Right,
,,,,,,,,,,,,,,,,,519,18,Woman,Right,1,13,0.4,2,0,180,180,2.4337476000000606,['y'],0.8813348000039696,1.8679999999999999,617.9871771000035,83.75,67.5,77.5,,519,18,Woman,Right,
,,,,,,,,,,,,,,,,,519,18,Woman,Right,1,27,0.4,2,180,0,0,0.547726100005093,['y'],0.5542411999995238,1.84,621.2363509999996,,,,,519,18,Woman,Right,
,,,,,,,,,,,,,,,,,519,18,Woman,Right,1,33,0.4,2,0,180,180,0.8336816000010003,['y'],0.4745602999973926,1.806,625.3209754999989,,,,,519,18,Woman,Right,
,,,,,,,,,,,,,,,,,519,18,Woman,Right,1,37,0.4,2,0,180,180,0.3545458000007784,['y'],0.7719890000007581,1.914,629.2698415999985,,,,,519,18,Woman,Right,
,,,,,,,,,,,,,,,,,519,18,Woman,Right,1,64,0.15,1,0,-,0,0.8087248000010732,['n'],0.6995858999944176,1.904,633.2534548999975,,,,,519,18,Woman,Right,
,,,,,,,,,,,,,,,,,519,18,Woman,Right,1,57,0.15,2,0,180,180,1.272477099999378,['y'],1.2841610000032233,1.3940000000000001,638.9031923000002,,,,,519,18,Woman,Right,
,,,,,,,,,,,,,,,,,519,18,Woman,Right,1,18,0.4,1,180,-,180,1.037062800001877,['n'],1.0452762999993865,1.6099999999999999,643.6205145999993,,,,,519,18,Woman,Right,
,,,,,,,,,,,,,,,,,519,18,Woman,Right,1,69,0.15,2,0,180,180,0.5784851999997045,['y'],0.8531900000016321,1.434,647.5871752000021,,,,,519,18,Woman,Right,
,,,,,,,,,,,,,,,,,519,18,Woman,Right,1,58,0.15,1,180,-,0,1.4680911999967066,['n'],0.6223031000045012,1.58,652.3872494000025,,,,,519,18,Woman,Right,
,,,,,,,,,,,,,,,,,519,18,Woman,Right,1,19,0.4,2,180,0,0,0.49096540000027744,['y'],0.7107299000053899,1.724,656.0039859000026,,,,,519,18,Woman,Right,
,,,,,,,,,,,,,,,,,519,18,Woman,Right,1,12,0.4,1,0,-,0,0.8697555000035209,['n'],0.7033179999998538,1.764,659.8365846000015,,,,,519,18,Woman,Right,
,,,,,,,,,,,,,,,,,519,18,Woman,Right,1,31,0.4,2,180,0,0,0.28451000000495696,['y'],0.7833412999971188,1.758,662.9875419000018,,,,,519,18,Woman,Right,
,,,,,,,,,,,,,,,,,519,18,Woman,Right,1,5,1,2,0,180,180,0.4655161999980919,['y'],0.7126081000023987,1.926,666.4874609000035,,,,,519,18,Woman,Right,
,,,,,,,,,,,,,,,,,519,18,Woman,Right,1,72,0.15,1,0,-,180,1.6690330999990692,['n'],0.9445879999984754,1.8980000000000001,671.4372858999996,,,,,519,18,Woman,Right,
,,,,,,,,,,,,,,,,,519,18,Woman,Right,1,46,0.15,1,180,-,180,1.2101015000007465,['n'],0.6492851000002702,1.62,675.9207404999979,,,,,519,18,Woman,Right,
,,,,,,,,,,,,,,,,,519,18,Woman,Right,1,34,0.4,1,180,-,180,2.0086258000010275,['n'],0.47407599999860395,1.914,681.2533783000035,,,,,519,18,Woman,Right,
,,,,,,,,,,,,,,,,,519,18,Woman,Right,1,28,0.4,1,0,-,0,0.4985229000012623,['n'],0.6899486000038451,1.666,685.0041574999996,,,,,519,18,Woman,Right,
,,,,,,,,,,,,,,,,,519,18,Woman,Right,1,65,0.15,2,0,180,180,0.7305452999935369,['y'],0.7308231999995769,1.612,689.0367437000023,,,,,519,18,Woman,Right,
,,,,,,,,,,,,,,,,,519,18,Woman,Right,1,11,0.4,2,180,0,0,1.5031240999960573,['y'],1.2516132999953697,1.6179999999999999,694.154125400004,,,,,519,18,Woman,Right,
,,,,,,,,,,,,,,,,,519,18,Woman,Right,1,0,1,1,0,-,0,0.8281897000051686,['n'],0.7001843000034569,1.8719999999999999,698.4368993000026,,,,,519,18,Woman,Right,
,,,,,,,,,,,,,,,,,519,18,Woman,Right,1,14,0.4,1,180,-,0,0.330726299995149,['y'],1.1406265000041458,1.8439999999999999,702.420664600002,,,,,519,18,Woman,Right,
,,,,,,,,,,,,,,,,,519,18,Woman,Right,1,17,0.4,2,0,180,180,0.7834198999989894,['y'],0.7604782999987947,1.756,706.2706919999982,,,,,519,18,Woman,Right,
,,,,,,,,,,,,,,,,,519,18,Woman,Right,1,42,0.4,1,180,-,180,0.43253970000660047,['n'],0.7497054999985266,1.764,709.7537798999983,,,,,519,18,Woman,Right,
,,,,,,,,,,,,,,,,,519,18,Woman,Right,1,53,0.15,2,0,180,180,0.29061450000153854,['n'],0.7575059999944642,1.762,713.0047083000027,,,,,519,18,Woman,Right,
,,,,,,,,,,,,,,,,,519,18,Woman,Right,1,38,0.4,1,180,-,180,0.5027148999943165,['n'],1.086662299996533,1.762,716.9876274999988,,,,,519,18,Woman,Right,
,,,,,,,,,,,,,,,,,519,18,Woman,Right,1,73,0.15,2,0,180,180,0.4811952999953064,['n'],0.5268288000006578,1.762,720.3210695000016,,,,,519,18,Woman,Right,
,,,,,,,,,,,,,,,,,519,18,Woman,Right,1,63,0.15,2,180,0,180,1.9381028999996488,['y'],1.8315134000004036,1.762,726.7868621000016,,,,,519,18,Woman,Right,
,,,,,,,,,,,,,,,,,519,18,Woman,Right,1,8,0.4,1,0,-,180,1.6835064999977476,['y'],1.056835499999579,1.762,731.8876258000018,,,,,519,18,Woman,Right,
,,,,,,,,,,,,,,,,,519,18,Woman,Right,1,51,0.15,2,180,0,0,0.6124832999994396,['n'],0.992920700002287,1.538,736.9368813999972,,,,,519,18,Woman,Right,
,,,,,,,,,,,,,,,,,519,18,Woman,Right,1,6,1,1,180,-,180,0.9471785999994609,['n'],0.45677040000009583,1.79,741.1873242000001,,,,,519,18,Woman,Right,
,,,,,,,,,,,,,,,,,519,18,Woman,Right,1,22,0.4,1,180,-,180,0.36392460000206484,['n'],1.2983204999982263,1.726,746.8870485000007,,,,,519,18,Woman,Right,
,,,,,,,,,,,,,,,,,519,18,Woman,Right,1,49,0.15,2,0,180,180,2.7250282999957562,['n'],1.178981400000339,1.354,753.8703599,,,,,519,18,Woman,Right,
,,,,,,,,,,,,,,,,,519,18,Woman,Right,1,54,0.15,1,180,-,180,0.5474280999987968,['n'],1.2829329000014695,1.426,758.2557354000019,,,,,519,18,Woman,Right,
,,,,,,,,,,,,,,,,,519,18,Woman,Right,1,59,0.15,2,180,0,0,1.2172978000016883,['y'],0.6597370999952545,1.72,762.3702685000026,,,,,519,18,Woman,Right,
,,,,,,,,,,,,,,,,,519,18,Woman,Right,1,71,0.15,2,180,0,0,0.4052444999979343,['y'],0.9801603000014438,1.528,766.787397,,,,,519,18,Woman,Right,
,,,,,,,,,,,,,,,,,519,18,Woman,Right,1,7,1,2,180,0,0,0.5293441000030725,['y'],0.532542499997362,1.854,770.6203974000018,,,,,519,18,Woman,Right,
,,,,,,,,,,,,,,,,,519,18,Woman,Right,1,55,0.15,2,180,0,0,0.4791823999985354,['y'],0.9015074999988428,1.866,775.0206902999998,,,,,519,18,Woman,Right,
,,,,,,,,,,,,,,,,,519,18,Woman,Right,1,79,0.15,2,180,0,0,0.300088500000129,['y'],0.9828659000049811,1.718,779.5037789999988,,,,,519,18,Woman,Right,
,,,,,,,,,,,,,,,,,519,18,Woman,Right,1,1,1,2,0,180,180,0.3132661000054213,['y'],0.5105766999986372,1.718,782.703680999999,,,,,519,18,Woman,Right,
,,,,,,,,,,,,,,,,,519,18,Woman,Right,1,68,0.15,1,0,-,180,0.4997667999996338,['y'],0.3818466999946395,1.828,785.8877759000025,,,,,519,18,Woman,Right,
,,,,,,,,,,,,,,,,,519,18,Woman,Right,1,43,0.4,2,180,0,0,0.354011299998092,['y'],0.4319074000013643,1.8,789.9715015000038,,,,,519,18,Woman,Right,
,,,,,,,,,,,,,,,,,519,18,Woman,Right,1,67,0.15,2,180,0,0,0.6279807000028086,['y'],0.45574800000031246,1.794,793.253796500001,,,,,519,18,Woman,Right,
,,,,,,,,,,,,,,,,,519,18,Woman,Right,1,77,0.15,2,0,180,180,1.0584193000031519,['y'],0.672630000000936,1.794,797.2704730999976,,,,,519,18,Woman,Right,
,,,,,,,,,,,,,,,,,519,18,Woman,Right,1,20,0.4,1,0,-,180,0.6610558999964269,['y'],0.5047128000005614,1.794,800.9545321000041,,,,,519,18,Woman,Right,
,,,,,,,,,,,,,,,,,519,18,Woman,Right,1,62,0.15,1,180,-,180,0.4723849000001792,['n'],0.9459066999988863,1.794,804.9878367999991,,,,,519,18,Woman,Right,
,,,,,,,,,,,,,,,,,519,18,Woman,Right,1,50,0.15,1,180,-,0,1.34469760000502,['y'],0.6824384999999893,1.48,809.4871991000036,,,,,519,18,Woman,Right,
,,,,,,,,,,,,,,,,,519,18,Woman,Right,1,39,0.4,2,180,0,0,0.41481349999958184,['y'],1.298205200000666,1.568,813.6891464,,,,,519,18,Woman,Right,
,,,,,,,,,,,,,,,,,519,18,Woman,Right,1,47,0.15,2,180,0,180,1.1336699000021326,['y'],0.8271106999964104,1.5979999999999999,817.9038699000012,,,,,519,18,Woman,Right,
,,,,,,,,,,,,,,,,,519,18,Woman,Right,1,32,0.4,1,0,-,180,2.5046935999998823,['n'],0.27566549999755807,1.064,823.5059955000033,,,,,519,18,Woman,Right,
,,,,,,,,,,,,,,,,,519,18,Woman,Right,1,70,0.15,1,180,-,180,0.6174375000045984,['n'],0.8204478000043309,1.56,827.2207498999996,,,,,519,18,Woman,Right,
,,,,,,,,,,,,,,,,,519,18,Woman,Right,1,26,0.4,1,180,-,180,0.4244581000020844,['n'],1.1084645000009914,1.798,831.8876728000032,,,,,519,18,Woman,Right,
,,,,,,,,,,,,,,,,,519,18,Woman,Right,1,3,1,2,180,0,0,0.40043989999685436,['y'],1.0129735000009532,1.624,835.3884684000004,,,,,519,18,Woman,Right,
,,,,,,,,,,,,,,,,,519,18,Woman,Right,1,4,1,1,0,-,0,0.498669599997811,['n'],0.9811568000004627,1.718,839.2716436999981,,,,,519,18,Woman,Right,
,,,,,,,,,,,,,,,,,519,18,Woman,Right,1,44,0.15,1,0,-,0,0.518714199999522,['n'],0.8621792000049027,1.774,843.0373464000004,,,,,519,18,Woman,Right,
,,,,,,,,,,,,,,,,,519,18,Woman,Right,1,45,0.15,2,0,180,180,0.6248010999988765,['n'],0.8946376999956556,1.766,847.4042836000008,,,,,519,18,Woman,Right,
,,,,,,,,,,,,,,,,,519,18,Woman,Right,1,16,0.4,1,0,-,0,0.9311320999986492,['n'],0.3746850000025006,1.772,850.937357499999,,,,,519,18,Woman,Right,
,,,,,,,,,,,,,,,,,519,18,Woman,Right,1,61,0.15,2,0,180,0,1.323328099999344,['n'],1.2719077000001562,1.498,856.2206549000039,,,,,519,18,Woman,Right,
,,,,,,,,,,,,,,,,,519,18,Woman,Right,1,24,0.4,1,0,-,0,0.2968332000018563,['n'],0.984390199999325,1.73,860.387390099997,,,,,519,18,Woman,Right,
,,,,,,,,,,,,,,,,,519,18,Woman,Right,1,48,0.15,1,0,-,0,0.4249465000029886,['n'],0.6649910000051023,1.708,863.687479500004,,,,,519,18,Woman,Right,
,,,,,,,,,,,,,,,,,519,18,Woman,Right,1,10,0.4,1,180,-,0,1.6277937999984715,['n'],0.6174008000016329,1.708,868.1210857000042,,,,,519,18,Woman,Right,
,,,,,,,,,,,,,,,,,519,18,Woman,Right,1,15,0.4,2,180,0,0,1.8835922999933246,['y'],0.4807174000015948,1.702,872.9884337999974,,,,,519,18,Woman,Right,
,,,,,,,,,,,,,,,,,519,18,Woman,Right,1,78,0.15,1,180,-,180,0.4795388000056846,['y'],0.802053799998248,1.738,876.7041403999974,,,,,519,18,Woman,Right,
,,,,,,,,,,,,,,,,,519,18,Woman,Right,1,40,0.4,1,0,-,180,0.3987745000049472,['y'],0.4666410999998334,1.734,879.8044603000017,,,,,519,18,Woman,Right,
,,,,,,,,,,,,,,,,,519,18,Woman,Right,1,29,0.4,2,0,180,180,0.4871761000031256,['y'],0.3952984999996261,1.734,883.2377682000006,,,,,519,18,Woman,Right,
,,,,,,,,,,,,,,,,,519,18,Woman,Right,1,25,0.4,2,0,180,180,0.3020016000009491,['y'],0.2916302000012365,1.734,886.2210597000012,,,,,519,18,Woman,Right,
,,,,,,,,,,,,,,,,,519,18,Woman,Right,1,30,0.4,1,180,-,0,0.34858920000260696,['y'],0.4762667000031797,1.734,889.3208429000006,,,,,519,18,Woman,Right,
,,,,,,,,,,,,,,,,,519,18,Woman,Right,1,74,0.15,1,180,-,180,0.3791745999988052,['n'],0.9800025000004098,1.734,892.8710074999981,,,,,519,18,Woman,Right,
,,,,,,,,,,,,,,,,,519,18,Woman,Right,1,41,0.4,2,0,180,180,0.38616020000335993,['y'],0.5247588999991422,1.692,896.2720345999987,,,,,519,18,Woman,Right,
,,,,,,,,,,,,,,,,,519,18,Woman,Right,1,76,0.15,1,0,-,0,1.0940274000022328,['n'],0.8131549000027007,1.696,900.4042248999976,,,,,519,18,Woman,Right,
,,,,,,,,,,,,,,,,,519,18,Woman,Right,1,35,0.4,2,180,0,0,0.5743551000050502,['y'],0.7341579000058118,1.696,903.9378466999988,,,,,519,18,Woman,Right,
,,,,,,,,,,,,,,,,,519,18,Woman,Right,1,36,0.4,1,0,-,0,0.33885210000153165,['y'],0.7824724000020069,1.696,907.6712947999986,,,,,519,18,Woman,Right,
,,,,,,,,,,,,,,,,,519,18,Woman,Right,1,56,0.15,1,0,-,0,0.8008275000029244,['n'],0.41440460000012536,1.696,911.2542976999976,,,,,519,18,Woman,Right,
,,,,,,,,,,,,,,,,,519,18,Woman,Right,1,21,0.4,2,0,180,180,0.4071533999958774,['y'],0.5430683000013232,1.69,914.6543065000005,,,,,519,18,Woman,Right,
,,,,,,,,,,,,,,,,,519,18,Woman,Right,1,66,0.15,1,180,-,180,0.49345329999778187,['n'],1.0792562999995425,1.31,919.1544675999976,,,,,519,18,Woman,Right,
,,,,,,,,,,,,,,,,,519,18,Woman,Right,1,23,0.4,2,180,0,0,0.6114239999951678,['y'],0.7441169000012451,1.624,922.8542678000013,,,,,519,18,Woman,Right,
,,,,,,,,,,,,,,,,,519,18,Woman,Right,1,52,0.15,1,0,-,0,0.8555526999989524,['y'],0.5681293999950867,1.5979999999999999,927.4543113000036,,,,,519,18,Woman,Right,
,,,,,,,,,,,,,,,,,519,18,Woman,Right,1,2,1,1,180,-,180,0.8001103000060539,['n'],0.8387509000021964,1.846,932.6876013000001,,,,,519,18,Woman,Right,
,,,,,,,,,,,,,,,,,519,18,Woman,Right,1,9,0.4,2,0,180,180,0.605522200006817,['y'],0.8737347000060254,1.88,936.4376422999994,,,,,519,18,Woman,Right,
,,,,,,,,,,,,,,,,,519,18,Woman,Right,1,75,0.15,2,180,0,0,1.0204645999983768,['n'],1.306587999999465,1.6219999999999999,941.4209945000039,,,,,519,18,Woman,Right,
,,,,,,,,,,,,,,,,,519,18,Woman,Right,1,60,0.15,1,0,-,180,0.5601218000010704,['n'],2.37067869999737,1.6219999999999999,946.4377292999998,,,,,519,18,Woman,Right,
,,,,,,,,,,,,,,,,,519,18,Woman,Right,2,19,0.4,2,180,0,0,0.43066969999927096,['n'],0.7884927000050084,1.616,960.6544797000024,81.25,75.0,82.5,,519,18,Woman,Right,
,,,,,,,,,,,,,,,,,519,18,Woman,Right,2,37,0.4,2,0,180,180,0.31460510000033537,['y'],1.0930078999954276,1.8639999999999999,964.6881599999979,,,,,519,18,Woman,Right,
,,,,,,,,,,,,,,,,,519,18,Woman,Right,2,35,0.4,2,180,0,0,0.8854456999979448,['y'],0.3895330000013928,1.834,968.1544205000027,,,,,519,18,Woman,Right,
,,,,,,,,,,,,,,,,,519,18,Woman,Right,2,3,1,2,180,0,0,0.6050335999971139,['y'],0.3902980999991996,1.834,971.7711971000026,,,,,519,18,Woman,Right,
,,,,,,,,,,,,,,,,,519,18,Woman,Right,2,63,0.15,2,180,0,0,0.33763270000054035,['y'],0.31877019999956246,1.834,974.6048005999983,,,,,519,18,Woman,Right,
,,,,,,,,,,,,,,,,,519,18,Woman,Right,2,26,0.4,1,180,-,180,0.5101654000027338,['n'],0.6952126999967732,1.75,978.0712104999984,,,,,519,18,Woman,Right,
,,,,,,,,,,,,,,,,,519,18,Woman,Right,2,1,1,2,0,180,180,0.34184000000095693,['y'],0.527247999998508,1.794,981.5380473000041,,,,,519,18,Woman,Right,
,,,,,,,,,,,,,,,,,519,18,Woman,Right,2,45,0.15,2,0,180,180,0.5089437999995425,['y'],1.1601660000014817,1.794,981.5380473000041,,,,,519,18,Woman,Right,
,,,,,,,,,,,,,,,,,519,18,Woman,Right,2,43,0.4,2,180,0,0,0.4059778000009828,['y'],0.7682417000032729,1.706,988.9045716999972,,,,,519,18,Woman,Right,
,,,,,,,,,,,,,,,,,519,18,Woman,Right,2,28,0.4,1,0,-,180,0.25766270000167424,['y'],0.8971409000005224,1.706,992.3378987000033,,,,,519,18,Woman,Right,
,,,,,,,,,,,,,,,,,519,18,Woman,Right,2,78,0.15,1,180,-,0,0.2714832999990904,['y'],0.3373018000056618,1.708,995.1712374999988,,,,,519,18,Woman,Right,
,,,,,,,,,,,,,,,,,519,18,Woman,Right,2,20,0.4,1,0,-,180,0.17744540000421694,['y'],0.3610446000020602,1.75,997.9045882999999,,,,,519,18,Woman,Right,
,,,,,,,,,,,,,,,,,519,18,Woman,Right,2,62,0.15,1,180,-,0,0.7074663999956101,['y'],0.8746870000031777,1.666,1002.7212476999994,,,,,519,18,Woman,Right,
,,,,,,,,,,,,,,,,,519,18,Woman,Right,2,38,0.4,1,180,-,180,0.8302330000005895,['y'],0.35413510000216775,1.722,1006.0045156999986,,,,,519,18,Woman,Right,
,,,,,,,,,,,,,,,,,519,18,Woman,Right,2,7,1,2,180,0,0,0.41656639999564504,['y'],0.4252736999987974,1.728,1009.304616399997,,,,,519,18,Woman,Right,
,,,,,,,,,,,,,,,,,519,18,Woman,Right,2,18,0.4,1,180,-,180,1.367668600003526,['y'],0.883365199995751,1.3940000000000001,1013.9046640000015,,,,,519,18,Woman,Right,
,,,,,,,,,,,,,,,,,519,18,Woman,Right,2,40,0.4,1,0,-,0,0.8474273000028916,['n'],0.7317863000062061,1.736,1017.7546524999998,,,,,519,18,Woman,Right,
,,,,,,,,,,,,,,,,,519,18,Woman,Right,2,14,0.4,1,180,-,180,0.7903426999982912,['n'],0.315768600004958,1.732,1021.0213205999971,,,,,519,18,Woman,Right,
,,,,,,,,,,,,,,,,,519,18,Woman,Right,2,39,0.4,2,180,0,0,0.4170234999983222,['y'],0.5808663999996497,1.75,1024.6880674999993,,,,,519,18,Woman,Right,
,,,,,,,,,,,,,,,,,519,18,Woman,Right,2,17,0.4,2,0,180,180,0.39302889999817125,['y'],0.4373524000038742,1.75,1028.6379754000009,,,,,519,18,Woman,Right,
,,,,,,,,,,,,,,,,,519,18,Woman,Right,2,6,1,1,180,-,180,0.35770790000242414,['n'],0.6777812000000267,1.75,1031.9048686000024,,,,,519,18,Woman,Right,
,,,,,,,,,,,,,,,,,519,18,Woman,Right,2,2,1,1,180,-,180,1.335170600003039,['n'],0.5022996999978204,1.77,1036.4380100999988,,,,,519,18,Woman,Right,
,,,,,,,,,,,,,,,,,519,18,Woman,Right,2,65,0.15,2,0,180,180,0.45060739999462385,['y'],0.6058447000032174,1.76,1039.671346199997,,,,,519,18,Woman,Right,
,,,,,,,,,,,,,,,,,519,18,Woman,Right,2,10,0.4,1,180,-,180,0.35171489999629557,['y'],2.447381799996947,1.376,1045.3381013000035,,,,,519,18,Woman,Right,
,,,,,,,,,,,,,,,,,519,18,Woman,Right,2,58,0.15,1,180,-,0,0.9958653000066988,['y'],1.8239137000055052,1.6440000000000001,1050.4215717999978,,,,,519,18,Woman,Right,
,,,,,,,,,,,,,,,,,519,18,Woman,Right,2,72,0.15,1,0,-,180,1.2752292000004672,['y'],0.5202637999973376,1.6440000000000001,1054.3380682999996,,,,,519,18,Woman,Right,
,,,,,,,,,,,,,,,,,519,18,Woman,Right,2,52,0.15,1,0,-,0,0.4203706999978749,['n'],0.6561556000015116,1.642,1057.6380728000004,,,,,519,18,Woman,Right,
,,,,,,,,,,,,,,,,,519,18,Woman,Right,2,13,0.4,2,0,180,180,0.7003438999963691,['y'],0.7375582000022405,1.524,1061.404852300002,,,,,519,18,Woman,Right,
,,,,,,,,,,,,,,,,,519,18,Woman,Right,2,57,0.15,2,0,180,180,0.5543741999936174,['y'],1.3946263999969233,1.518,1065.4714212000035,,,,,519,18,Woman,Right,
,,,,,,,,,,,,,,,,,519,18,Woman,Right,2,64,0.15,1,0,-,180,0.3665578000000096,['y'],0.5317813000001479,1.518,1068.7548671999975,,,,,519,18,Woman,Right,
,,,,,,,,,,,,,,,,,519,18,Woman,Right,2,70,0.15,1,180,-,0,0.6674117999937152,['y'],0.5710981000011088,1.518,1072.404913600003,,,,,519,18,Woman,Right,
,,,,,,,,,,,,,,,,,519,18,Woman,Right,2,30,0.4,1,180,-,180,0.5371688000013819,['y'],0.4269200000053388,1.518,1075.6881441000005,,,,,519,18,Woman,Right,
,,,,,,,,,,,,,,,,,519,18,Woman,Right,2,69,0.15,2,0,180,0,0.7742297999939183,['n'],3.1314075000045705,1.52,1082.1885356999992,,,,,519,18,Woman,Right,
,,,,,,,,,,,,,,,,,519,18,Woman,Right,2,21,0.4,2,0,180,180,0.4885742000042228,['y'],0.6042096999954083,1.776,1086.0716077000034,,,,,519,18,Woman,Right,
,,,,,,,,,,,,,,,,,519,18,Woman,Right,2,22,0.4,1,180,-,180,0.6564795999947819,['n'],0.6445871000032639,1.808,1090.155258400002,,,,,519,18,Woman,Right,
,,,,,,,,,,,,,,,,,519,18,Woman,Right,2,4,1,1,0,-,0,1.1497964000009233,['n'],0.7968986999985646,1.798,1094.7058572000024,,,,,519,18,Woman,Right,
,,,,,,,,,,,,,,,,,519,18,Woman,Right,2,54,0.15,1,180,-,180,0.6018648000026587,['n'],0.3896844999981113,1.796,1097.921903100003,,,,,519,18,Woman,Right,
,,,,,,,,,,,,,,,,,519,18,Woman,Right,2,75,0.15,2,180,0,180,0.5796906999967177,['n'],0.34248280000610976,1.796,1100.9882876999982,,,,,519,18,Woman,Right,
,,,,,,,,,,,,,,,,,519,18,Woman,Right,2,46,0.15,1,180,-,180,0.23416530000395142,['n'],0.49457770000299206,1.796,1103.8215888999985,,,,,519,18,Woman,Right,
,,,,,,,,,,,,,,,,,519,18,Woman,Right,2,24,0.4,1,0,-,0,0.22206269999878714,['n'],0.4873507000011159,1.796,1106.7049877000027,,,,,519,18,Woman,Right,
,,,,,,,,,,,,,,,,,519,18,Woman,Right,2,47,0.15,2,180,0,180,0.18339520000154153,['n'],0.49229059999925084,1.796,1109.5219141999987,,,,,519,18,Woman,Right,
,,,,,,,,,,,,,,,,,519,18,Woman,Right,2,61,0.15,2,0,180,180,0.15496400000120047,['n'],0.3678206000040518,1.796,1112.2216201999981,,,,,519,18,Woman,Right,
,,,,,,,,,,,,,,,,,519,18,Woman,Right,2,74,0.15,1,180,-,0,0.1419707999957609,['n'],0.40841480000381125,1.796,1114.9885606000025,,,,,519,18,Woman,Right,
,,,,,,,,,,,,,,,,,519,18,Woman,Right,2,55,0.15,2,180,0,180,0.4559986000022036,['n'],0.3842956999942544,1.796,1117.9717191000018,,,,,519,18,Woman,Right,
,,,,,,,,,,,,,,,,,519,18,Woman,Right,2,71,0.15,2,180,0,0,0.28157330000249203,['n'],0.35275649999675807,1.796,1121.0886299999984,,,,,519,18,Woman,Right,
,,,,,,,,,,,,,,,,,519,18,Woman,Right,2,0,1,1,0,-,0,0.3748212999998941,['n'],0.4174755999993067,1.796,1125.0217018999974,,,,,519,18,Woman,Right,
,,,,,,,,,,,,,,,,,519,18,Woman,Right,2,15,0.4,2,180,0,0,1.3833334000009927,['y'],0.31332190000102855,1.796,1128.9061186000035,,,,,519,18,Woman,Right,
,,,,,,,,,,,,,,,,,519,18,Woman,Right,2,12,0.4,1,0,-,0,0.8779672000018763,['n'],0.5864133999930345,1.796,1133.6384117999987,,,,,519,18,Woman,Right,
,,,,,,,,,,,,,,,,,519,18,Woman,Right,2,23,0.4,2,180,0,0,0.5641096999970614,['y'],0.5390179999958491,1.77,1136.9883491,,,,,519,18,Woman,Right,
,,,,,,,,,,,,,,,,,519,18,Woman,Right,2,76,0.15,1,0,-,180,0.37932680000085384,['y'],1.0674531999975443,1.796,1140.572946500004,,,,,519,18,Woman,Right,
,,,,,,,,,,,,,,,,,519,18,Woman,Right,2,66,0.15,1,180,-,180,1.7883748000022024,['n'],0.3796442999955616,1.788,1144.8217392000006,,,,,519,18,Woman,Right,
,,,,,,,,,,,,,,,,,519,18,Woman,Right,2,60,0.15,1,0,-,180,0.34528389999468345,['y'],0.6840574000016204,1.788,1147.971800600004,,,,,519,18,Woman,Right,
,,,,,,,,,,,,,,,,,519,18,Woman,Right,2,67,0.15,2,180,0,0,0.4907798999993247,['y'],0.6365077000009478,1.77,1151.171779700002,,,,,519,18,Woman,Right,
,,,,,,,,,,,,,,,,,519,18,Woman,Right,2,31,0.4,2,180,0,0,0.2834078000014415,['y'],0.3810204999972484,1.764,1153.921779700002,,,,,519,18,Woman,Right,
,,,,,,,,,,,,,,,,,519,18,Woman,Right,2,56,0.15,1,0,-,0,0.445482200004335,['n'],0.8938672000003862,1.768,1157.3384115000008,,,,,519,18,Woman,Right,
,,,,,,,,,,,,,,,,,519,18,Woman,Right,2,50,0.15,1,180,-,180,0.3065481000012369,['n'],0.7816463999988628,1.768,1160.5721075000038,,,,,519,18,Woman,Right,
,,,,,,,,,,,,,,,,,519,18,Woman,Right,2,32,0.4,1,0,-,0,0.4347395000004326,['n'],1.7825706000003265,1.768,1164.9886674000008,,,,,519,18,Woman,Right,
,,,,,,,,,,,,,,,,,519,18,Woman,Right,2,68,0.15,1,0,-,0,0.5548013999941759,['n'],0.894901600004232,1.072,1170.4718502000032,,,,,519,18,Woman,Right,
,,,,,,,,,,,,,,,,,519,18,Woman,Right,2,33,0.4,2,0,180,180,0.5024539000005461,['y'],0.7752318999991985,1.796,1174.3051849999974,,,,,519,18,Woman,Right,
,,,,,,,,,,,,,,,,,519,18,Woman,Right,2,51,0.15,2,180,0,0,0.39772450000600656,['y'],0.8395957000029739,1.742,1177.9719502000007,,,,,519,18,Woman,Right,
,,,,,,,,,,,,,,,,,519,18,Woman,Right,2,29,0.4,2,0,180,180,0.2758890000040992,['y'],0.35976790000131587,1.74,1180.7057953999974,,,,,519,18,Woman,Right,
,,,,,,,,,,,,,,,,,519,18,Woman,Right,2,42,0.4,1,180,-,180,0.428601500003424,['n'],0.5528376000002027,1.74,1183.788668000001,,,,,519,18,Woman,Right,
,,,,,,,,,,,,,,,,,519,18,Woman,Right,2,41,0.4,2,0,180,180,0.30702539999765577,['y'],0.6408754000003682,1.74,1186.938820000003,,,,,519,18,Woman,Right,
,,,,,,,,,,,,,,,,,519,18,Woman,Right,2,73,0.15,2,0,180,180,0.38304129999596626,['y'],0.5404825000005076,1.804,1190.1052382999987,,,,,519,18,Woman,Right,
,,,,,,,,,,,,,,,,,519,18,Woman,Right,2,9,0.4,2,0,180,180,0.2637317000044277,['y'],0.32943820000218693,1.79,1192.8053879,,,,,519,18,Woman,Right,
,,,,,,,,,,,,,,,,,519,18,Woman,Right,2,48,0.15,1,0,-,180,0.4177417000028072,['y'],0.36183190000156173,1.756,1195.7560706000004,,,,,519,18,Woman,Right,
,,,,,,,,,,,,,,,,,519,18,Woman,Right,2,44,0.15,1,0,-,0,1.5059570000012172,['n'],1.3942734000011114,1.476,1200.9885313999985,,,,,519,18,Woman,Right,
,,,,,,,,,,,,,,,,,519,18,Woman,Right,2,11,0.4,2,180,0,0,0.5457699999969918,['y'],0.3388503000023775,1.616,1204.0052926999997,,,,,519,18,Woman,Right,
,,,,,,,,,,,,,,,,,519,18,Woman,Right,2,25,0.4,2,0,180,180,0.403432499995688,['y'],0.34730690000287723,1.68,1207.3722503000026,,,,,519,18,Woman,Right,
,,,,,,,,,,,,,,,,,519,18,Woman,Right,2,16,0.4,1,0,-,180,0.48558390000107465,['y'],1.0273952999996254,1.666,1210.9398447999993,,,,,519,18,Woman,Right,
,,,,,,,,,,,,,,,,,519,18,Woman,Right,2,77,0.15,2,0,180,180,1.7772421999979997,['y'],0.7728191000060178,1.666,1215.6554641000039,,,,,519,18,Woman,Right,
,,,,,,,,,,,,,,,,,519,18,Woman,Right,2,34,0.4,1,180,-,0,1.340944199997466,['n'],1.2209211000008509,1.6560000000000001,1220.3886818000028,,,,,519,18,Woman,Right,
,,,,,,,,,,,,,,,,,519,18,Woman,Right,2,59,0.15,2,180,0,180,0.8505221000013989,['n'],0.7733632000017678,1.6560000000000001,1224.1724295000022,,,,,519,18,Woman,Right,
,,,,,,,,,,,,,,,,,519,18,Woman,Right,2,53,0.15,2,0,180,180,0.5565385000008973,['y'],1.222195100002864,1.432,1228.1732884000012,,,,,519,18,Woman,Right,
,,,,,,,,,,,,,,,,,519,18,Woman,Right,2,27,0.4,2,180,0,0,0.5339196999993874,['y'],0.4434170000022277,1.676,1231.5719858000011,,,,,519,18,Woman,Right,
,,,,,,,,,,,,,,,,,519,18,Woman,Right,2,79,0.15,2,180,0,0,1.5734538000033353,['y'],0.5110515000051237,1.6680000000000001,1235.9386919000026,,,,,519,18,Woman,Right,
,,,,,,,,,,,,,,,,,519,18,Woman,Right,2,49,0.15,2,0,180,180,0.5473154999999679,['y'],0.36727329999848735,1.6680000000000001,1239.038824000003,,,,,519,18,Woman,Right,
,,,,,,,,,,,,,,,,,519,18,Woman,Right,2,8,0.4,1,0,-,0,1.3837886999972397,['n'],0.8400904000009177,1.694,1243.989005299998,,,,,519,18,Woman,Right,
,,,,,,,,,,,,,,,,,519,18,Woman,Right,2,36,0.4,1,0,-,0,0.6438109000009717,['n'],0.4006621000007726,1.828,1247.2224113999982,,,,,519,18,Woman,Right,
,,,,,,,,,,,,,,,,,519,18,Woman,Right,2,5,1,2,0,180,180,0.4020842000027187,['y'],0.6087098000061815,1.916,1250.4557445000028,,,,,519,18,Woman,Right,
,,,,,,,,,,,,,,,,,519,18,Woman,Right,3,40,0.4,1,0,-,0,0.4308660000024247,['n'],0.34675009999773465,1.8599999999999999,1267.7055888000032,76.25,60.0,80.0,,519,18,Woman,Right,
,,,,,,,,,,,,,,,,,519,18,Woman,Right,3,30,0.4,1,180,-,0,0.48813849999714876,['y'],0.7231701999990037,1.8599999999999999,1270.9555104000028,,,,,519,18,Woman,Right,
,,,,,,,,,,,,,,,,,519,18,Woman,Right,3,32,0.4,1,0,-,0,1.1468985000028624,['n'],0.27569190000212984,1.778,1274.5726550000036,,,,,519,18,Woman,Right,
,,,,,,,,,,,,,,,,,519,18,Woman,Right,3,27,0.4,2,180,0,0,0.5949359000005643,['y'],1.0685918999952264,1.778,1278.388899999998,,,,,519,18,Woman,Right,
,,,,,,,,,,,,,,,,,519,18,Woman,Right,3,29,0.4,2,0,180,180,0.3221059999996214,['y'],0.37281849999999395,1.778,1281.1889415999976,,,,,519,18,Woman,Right,
,,,,,,,,,,,,,,,,,519,18,Woman,Right,3,66,0.15,1,180,-,180,0.7579455000013695,['y'],0.32552579999901354,1.158,1285.8055946000022,,,,,519,18,Woman,Right,
,,,,,,,,,,,,,,,,,519,18,Woman,Right,3,10,0.4,1,180,-,180,2.017313299998932,['n'],0.6242553999982192,1.6360000000000001,1290.8222889000026,,,,,519,18,Woman,Right,
,,,,,,,,,,,,,,,,,519,18,Woman,Right,3,34,0.4,1,180,-,180,0.6184266999989632,['n'],0.7738515999953961,1.6280000000000001,1294.255795099998,,,,,519,18,Woman,Right,
,,,,,,,,,,,,,,,,,519,18,Woman,Right,3,38,0.4,1,180,-,180,1.1639887999990606,['y'],0.32683389999874635,1.674,1298.005706099997,,,,,519,18,Woman,Right,
,,,,,,,,,,,,,,,,,519,18,Woman,Right,3,79,0.15,2,180,0,0,2.410774700001639,['y'],0.42333409999992,1.67,1302.8726333000013,,,,,519,18,Woman,Right,
,,,,,,,,,,,,,,,,,519,18,Woman,Right,3,23,0.4,2,180,0,0,0.27966190000006463,['y'],0.39959169999929145,1.88,1305.8556623999975,,,,,519,18,Woman,Right,
,,,,,,,,,,,,,,,,,519,18,Woman,Right,3,36,0.4,1,0,-,0,1.2168013999980758,['n'],0.36732150000170805,1.836,1309.5393184999994,,,,,519,18,Woman,Right,
,,,,,,,,,,,,,,,,,519,18,Woman,Right,3,18,0.4,1,180,-,180,0.30796449999616016,['n'],1.4326572999998461,1.836,1313.3392688000022,,,,,519,18,Woman,Right,
,,,,,,,,,,,,,,,,,519,18,Woman,Right,3,63,0.15,2,180,0,180,0.5897119000001112,['n'],0.6495773999995436,1.836,1316.788980600002,,,,,519,18,Woman,Right,
,,,,,,,,,,,,,,,,,519,18,Woman,Right,3,6,1,1,180,-,180,0.46181609999621287,['n'],0.6816735000029439,1.836,1320.206303699997,,,,,519,18,Woman,Right,
,,,,,,,,,,,,,,,,,519,18,Woman,Right,3,61,0.15,2,0,180,180,0.2552589999977499,['n'],0.7621222999950987,1.836,1323.3891804000014,,,,,519,18,Woman,Right,
,,,,,,,,,,,,,,,,,519,18,Woman,Right,3,2,1,1,180,-,180,0.3788191999992705,['n'],0.6823196000041207,1.952,1326.6399854999981,,,,,519,18,Woman,Right,
,,,,,,,,,,,,,,,,,519,18,Woman,Right,3,15,0.4,2,180,0,180,0.016458899997815024,['y'],2.8413941000035265,1.9,1331.6057424000028,,,,,519,18,Woman,Right,
,,,,,,,,,,,,,,,,,519,18,Woman,Right,3,59,0.15,2,180,0,0,0.2828645999979926,['y'],0.947116700001061,1.888,1335.1069160999978,,,,,519,18,Woman,Right,
,,,,,,,,,,,,,,,,,519,18,Woman,Right,3,25,0.4,2,0,180,180,0.30302499999379506,['y'],0.3795553000018117,1.8860000000000001,1337.8391620000039,,,,,519,18,Woman,Right,
,,,,,,,,,,,,,,,,,519,18,Woman,Right,3,45,0.15,2,0,180,180,1.3588579999996,['y'],0.19637369999691145,1.8860000000000001,1341.4891438999985,,,,,519,18,Woman,Right,
,,,,,,,,,,,,,,,,,519,18,Woman,Right,3,51,0.15,2,180,0,180,0.38960129999759374,['y'],1.0768861999968067,1.8860000000000001,1345.3724559999973,,,,,519,18,Woman,Right,
,,,,,,,,,,,,,,,,,519,18,Woman,Right,3,48,0.15,1,0,-,0,0.3540193000008003,['y'],0.38893149999785237,1.81,1348.139224999999,,,,,519,18,Woman,Right,
,,,,,,,,,,,,,,,,,519,18,Woman,Right,3,47,0.15,2,180,0,180,0.4334177999990061,['y'],0.3676322000028449,1.808,1350.9891080000016,,,,,519,18,Woman,Right,
,,,,,,,,,,,,,,,,,519,18,Woman,Right,3,67,0.15,2,180,0,0,0.5761689999999362,['y'],0.46956939999654423,1.794,1354.1391755000004,,,,,519,18,Woman,Right,
,,,,,,,,,,,,,,,,,519,18,Woman,Right,3,42,0.4,1,180,-,180,0.5966705999962869,['y'],1.4540887999974075,1.484,1358.2558744999988,,,,,519,18,Woman,Right,
,,,,,,,,,,,,,,,,,519,18,Woman,Right,3,20,0.4,1,0,-,180,0.48535959999571787,['y'],0.5266763000036008,1.634,1361.6391778000034,,,,,519,18,Woman,Right,
,,,,,,,,,,,,,,,,,519,18,Woman,Right,3,50,0.15,1,180,-,0,0.8171891000019968,['n'],1.2954010000030394,1.6219999999999999,1366.5558913999994,,,,,519,18,Woman,Right,
,,,,,,,,,,,,,,,,,519,18,Woman,Right,3,33,0.4,2,0,180,180,0.38326100000267616,['y'],0.7407129999992321,1.626,1369.922574600001,,,,,519,18,Woman,Right,
,,,,,,,,,,,,,,,,,519,18,Woman,Right,3,0,1,1,0,-,0,0.40202359999966575,['n'],0.7201655999961076,1.758,1373.6228162999978,,,,,519,18,Woman,Right,
,,,,,,,,,,,,,,,,,519,18,Woman,Right,3,8,0.4,1,0,-,0,0.034909000001789536,['n'],1.1603192999973544,1.8780000000000001,1377.106240699999,,,,,519,18,Woman,Right,
,,,,,,,,,,,,,,,,,519,18,Woman,Right,3,72,0.15,1,0,-,180,0.3716465999968932,['n'],1.4004237999979523,1.828,1381.4225955000002,,,,,519,18,Woman,Right,
,,,,,,,,,,,,,,,,,519,18,Woman,Right,3,12,0.4,1,0,-,0,0.8113821000006283,['n'],0.6013229000018327,1.84,1385.1559495000038,,,,,519,18,Woman,Right,
,,,,,,,,,,,,,,,,,519,18,Woman,Right,3,3,1,2,180,0,0,0.5946521000005305,['y'],0.44170819999999367,1.862,1388.372722400003,,,,,519,18,Woman,Right,
,,,,,,,,,,,,,,,,,519,18,Woman,Right,3,31,0.4,2,180,0,0,0.5714671999958227,['y'],0.3302317999987281,1.8719999999999999,1391.4228798999975,,,,,519,18,Woman,Right,
,,,,,,,,,,,,,,,,,519,18,Woman,Right,3,70,0.15,1,180,-,180,0.3284963999976753,['n'],0.8101793999958318,1.8,1394.8059527000005,,,,,519,18,Woman,Right,
,,,,,,,,,,,,,,,,,519,18,Woman,Right,3,58,0.15,1,180,-,180,0.49243399999977555,['n'],0.6196220999991056,1.8,1397.889317699999,,,,,519,18,Woman,Right,
,,,,,,,,,,,,,,,,,519,18,Woman,Right,3,49,0.15,2,0,180,0,1.21382309999899,['y'],0.2920957999958773,1.684,1401.6897370000006,,,,,519,18,Woman,Right,
,,,,,,,,,,,,,,,,,519,18,Woman,Right,3,5,1,2,0,180,180,0.25517600000603124,['y'],0.7554184999971767,1.908,1404.9393675000028,,,,,519,18,Woman,Right,
,,,,,,,,,,,,,,,,,519,18,Woman,Right,3,56,0.15,1,0,-,180,0.4141520999983186,['y'],0.34032679999654647,1.858,1407.7731787000012,,,,,519,18,Woman,Right,
,,,,,,,,,,,,,,,,,519,18,Woman,Right,3,35,0.4,2,180,0,0,0.4673308999990695,['y'],0.4914640999995754,1.782,1411.0727129000006,,,,,519,18,Woman,Right,
,,,,,,,,,,,,,,,,,519,18,Woman,Right,3,43,0.4,2,180,0,0,0.3650673999945866,['y'],0.31745490000321297,1.782,1413.889766799999,,,,,519,18,Woman,Right,
,,,,,,,,,,,,,,,,,519,18,Woman,Right,3,52,0.15,1,0,-,0,1.812062800003332,['y'],0.7255899999945541,1.514,1418.7064123000018,,,,,519,18,Woman,Right,
,,,,,,,,,,,,,,,,,519,18,Woman,Right,3,62,0.15,1,180,-,180,0.8149018000040087,['y'],0.8377856000006432,1.496,1423.1896815,,,,,519,18,Woman,Right,
,,,,,,,,,,,,,,,,,519,18,Woman,Right,3,1,1,2,0,180,180,0.3491534999993746,['y'],0.32692230000247946,1.734,1426.8066254000005,,,,,519,18,Woman,Right,
,,,,,,,,,,,,,,,,,519,18,Woman,Right,3,14,0.4,1,180,-,180,1.65810600000259,['n'],0.4002163999975892,1.692,1431.0061131999973,,,,,519,18,Woman,Right,
,,,,,,,,,,,,,,,,,519,18,Woman,Right,3,75,0.15,2,180,0,0,0.8666891000029864,['n'],1.0236663999967277,1.674,1434.9061189999993,,,,,519,18,Woman,Right,
,,,,,,,,,,,,,,,,,519,18,Woman,Right,3,11,0.4,2,180,0,0,0.5004267999975127,['y'],3.688650600000983,1.674,1441.1730382000023,,,,,519,18,Woman,Right,
,,,,,,,,,,,,,,,,,519,18,Woman,Right,3,22,0.4,1,180,-,180,0.33578100000158884,['n'],0.9050703999964753,1.674,1444.5561409000002,,,,,519,18,Woman,Right,
,,,,,,,,,,,,,,,,,519,18,Woman,Right,3,74,0.15,1,180,-,180,0.3808456999977352,['n'],0.617266399996879,1.812,1447.6066151999985,,,,,519,18,Woman,Right,
,,,,,,,,,,,,,,,,,519,18,Woman,Right,3,37,0.4,2,0,180,180,0.4972646000023815,['y'],0.8337539000058314,1.798,1450.9730735999983,,,,,519,18,Woman,Right,
,,,,,,,,,,,,,,,,,519,18,Woman,Right,3,76,0.15,1,0,-,180,1.234263700003794,['y'],0.282611700000416,1.798,1454.6063493999973,,,,,519,18,Woman,Right,
,,,,,,,,,,,,,,,,,519,18,Woman,Right,3,17,0.4,2,0,180,180,1.5518960999979754,['y'],0.5624752000003355,1.706,1458.8728566999998,,,,,519,18,Woman,Right,
,,,,,,,,,,,,,,,,,519,18,Woman,Right,3,69,0.15,2,0,180,0,0.4600286999993841,['y'],0.37895620000199415,1.688,1461.8062254000033,,,,,519,18,Woman,Right,
,,,,,,,,,,,,,,,,,519,18,Woman,Right,3,4,1,1,0,-,0,0.30851979999715695,['n'],0.5795212000011816,1.78,1465.3232932000028,,,,,519,18,Woman,Right,
,,,,,,,,,,,,,,,,,519,18,Woman,Right,3,68,0.15,1,0,-,0,0.3377755999972578,['n'],0.9882498000006308,1.766,1469.4563180999976,,,,,519,18,Woman,Right,
,,,,,,,,,,,,,,,,,519,18,Woman,Right,3,44,0.15,1,0,-,0,0.8951463999983389,['n'],1.1320132999971975,1.748,1474.3401212000026,,,,,519,18,Woman,Right,
,,,,,,,,,,,,,,,,,519,18,Woman,Right,3,9,0.4,2,0,180,180,0.8744726000004448,['y'],0.2854317000019364,1.748,1477.6895965000003,,,,,519,18,Woman,Right,
,,,,,,,,,,,,,,,,,519,18,Woman,Right,3,78,0.15,1,180,-,0,0.677429099996516,['y'],0.3092560000004596,1.748,1481.1729650999987,,,,,519,18,Woman,Right,
,,,,,,,,,,,,,,,,,519,18,Woman,Right,3,16,0.4,1,0,-,0,0.5607155000034254,['y'],0.3501849999956903,1.67,1484.3396273000035,,,,,519,18,Woman,Right,
,,,,,,,,,,,,,,,,,519,18,Woman,Right,3,41,0.4,2,0,180,180,0.41282600000704406,['y'],0.3420198999956483,1.6680000000000001,1487.189577199999,,,,,519,18,Woman,Right,
,,,,,,,,,,,,,,,,,519,18,Woman,Right,3,55,0.15,2,180,0,0,0.6000929000001634,['y'],0.3759042999954545,1.6680000000000001,1490.2233177000016,,,,,519,18,Woman,Right,
,,,,,,,,,,,,,,,,,519,18,Woman,Right,3,54,0.15,1,180,-,0,0.32831769999756943,['y'],0.33532139999442734,1.6680000000000001,1492.9239296000014,,,,,519,18,Woman,Right,
,,,,,,,,,,,,,,,,,519,18,Woman,Right,3,21,0.4,2,0,180,180,1.0392947000000277,['y'],0.29591459999937797,1.804,1496.7729986999984,,,,,519,18,Woman,Right,
,,,,,,,,,,,,,,,,,519,18,Woman,Right,3,64,0.15,1,0,-,180,0.7140227999989293,['n'],0.9597386999957962,1.752,1500.4563103000037,,,,,519,18,Woman,Right,
,,,,,,,,,,,,,,,,,519,18,Woman,Right,3,57,0.15,2,0,180,180,0.6213229999993928,['y'],1.2010260999959428,1.752,1504.3563830999992,,,,,519,18,Woman,Right,
,,,,,,,,,,,,,,,,,519,18,Woman,Right,3,71,0.15,2,180,0,0,0.4582135999953607,['n'],1.6091697000010754,1.558,1508.7565792000023,,,,,519,18,Woman,Right,
,,,,,,,,,,,,,,,,,519,18,Woman,Right,3,60,0.15,1,0,-,0,1.3424898000012035,['n'],0.9133671000017785,1.228,1513.0898749999978,,,,,519,18,Woman,Right,
,,,,,,,,,,,,,,,,,519,18,Woman,Right,3,46,0.15,1,180,-,180,0.5374015000052168,['n'],1.2496166999990237,1.216,1517.089740000003,,,,,519,18,Woman,Right,
,,,,,,,,,,,,,,,,,519,18,Woman,Right,3,19,0.4,2,180,0,180,2.9692104999994626,['y'],0.42666730000200914,1.762,1522.873296800004,,,,,519,18,Woman,Right,
,,,,,,,,,,,,,,,,,519,18,Woman,Right,3,26,0.4,1,180,-,180,0.36721570000372594,['n'],0.41883559999405406,1.718,1525.7898305999988,,,,,519,18,Woman,Right,
,,,,,,,,,,,,,,,,,519,18,Woman,Right,3,28,0.4,1,0,-,0,0.816500700006145,['n'],0.5395196000026772,1.838,1530.1730966000032,,,,,519,18,Woman,Right,
,,,,,,,,,,,,,,,,,519,18,Woman,Right,3,24,0.4,1,0,-,0,0.5814503000001423,['y'],1.3085146999947028,1.71,1534.7897634000037,,,,,519,18,Woman,Right,
,,,,,,,,,,,,,,,,,519,18,Woman,Right,3,13,0.4,2,0,180,180,1.08354070000496,['n'],0.24529259999690112,1.706,1538.2231595999983,,,,,519,18,Woman,Right,
,,,,,,,,,,,,,,,,,519,18,Woman,Right,3,65,0.15,2,0,180,180,0.12166530000104103,['n'],0.5571016000030795,1.706,1540.9569615,,,,,519,18,Woman,Right,
,,,,,,,,,,,,,,,,,519,18,Woman,Right,3,39,0.4,2,180,0,0,0.7010688000009395,['n'],0.4933251000038581,1.766,1544.2565289999984,,,,,519,18,Woman,Right,
,,,,,,,,,,,,,,,,,519,18,Woman,Right,3,53,0.15,2,0,180,180,0.43288619999657385,['n'],0.31828080000559567,1.766,1547.0731526000018,,,,,519,18,Woman,Right,
,,,,,,,,,,,,,,,,,519,18,Woman,Right,3,77,0.15,2,0,180,180,0.26400940000166884,['n'],0.25437469999451423,1.766,1549.840153600002,,,,,519,18,Woman,Right,
,,,,,,,,,,,,,,,,,519,18,Woman,Right,3,73,0.15,2,0,180,0,0.514597599998524,['n'],0.214259199994558,1.79,1552.8398601000008,,,,,519,18,Woman,Right,
,,,,,,,,,,,,,,,,,519,18,Woman,Right,3,7,1,2,180,0,0,1.0591151000044192,['y'],0.3109249999979511,1.812,1556.8409075000018,,,,,519,18,Woman,Right,
,,,,,,,,,,,,,,,,,519,18,Woman,Right,4,53,0.15,2,0,180,180,1.0747323000032338,['n'],0.3925967999966815,1.744,1572.3065528000006,78.75,65.0,75.0,,519,18,Woman,Right,
,,,,,,,,,,,,,,,,,519,18,Woman,Right,4,47,0.15,2,180,0,0,0.9295109000013326,['n'],0.504899799998384,1.738,1575.9067012000014,,,,,519,18,Woman,Right,
,,,,,,,,,,,,,,,,,519,18,Woman,Right,4,64,0.15,1,0,-,0,0.5811743999947794,['n'],0.28157919999648584,1.734,1578.8399607000028,,,,,519,18,Woman,Right,
,,,,,,,,,,,,,,,,,519,18,Woman,Right,4,6,1,1,180,-,180,0.5450652999934391,['n'],0.22566690000530798,1.75,1581.7401304000014,,,,,519,18,Woman,Right,
,,,,,,,,,,,,,,,,,519,18,Woman,Right,4,22,0.4,1,180,-,0,0.34572579999803565,['y'],1.1143833000023733,1.776,1585.5900841000039,,,,,519,18,Woman,Right,
,,,,,,,,,,,,,,,,,519,18,Woman,Right,4,31,0.4,2,180,0,0,2.3929510000016307,['y'],0.346542799998133,1.744,1590.4403189000004,,,,,519,18,Woman,Right,
,,,,,,,,,,,,,,,,,519,18,Woman,Right,4,79,0.15,2,180,0,0,0.23204299999633804,['y'],0.3150513000000501,1.742,1593.0244404999976,,,,,519,18,Woman,Right,
,,,,,,,,,,,,,,,,,519,18,Woman,Right,4,32,0.4,1,0,-,0,0.3453407999986666,['n'],0.4675290000013774,1.74,1595.923331099999,,,,,519,18,Woman,Right,
,,,,,,,,,,,,,,,,,519,18,Woman,Right,4,72,0.15,1,0,-,180,0.4288645999986329,['y'],1.124625999997079,1.74,1599.5733573000034,,,,,519,18,Woman,Right,
,,,,,,,,,,,,,,,,,519,18,Woman,Right,4,69,0.15,2,0,180,180,0.6107546999992337,['y'],0.22094080000533722,1.748,1602.573726900002,,,,,519,18,Woman,Right,
,,,,,,,,,,,,,,,,,519,18,Woman,Right,4,11,0.4,2,180,0,0,0.5859485999972094,['n'],0.3089029000038863,1.748,1605.5906305000026,,,,,519,18,Woman,Right,
,,,,,,,,,,,,,,,,,519,18,Woman,Right,4,44,0.15,1,0,-,0,0.2967283999969368,['n'],0.8856849000003422,1.82,1609.1235085000008,,,,,519,18,Woman,Right,
,,,,,,,,,,,,,,,,,519,18,Woman,Right,4,38,0.4,1,180,-,180,0.7238702999966335,['n'],0.20567429999937303,1.764,1612.173346100004,,,,,519,18,Woman,Right,
,,,,,,,,,,,,,,,,,519,18,Woman,Right,4,14,0.4,1,180,-,180,0.250692200002959,['n'],0.24592349999875296,1.764,1614.7246382000012,,,,,519,18,Woman,Right,
,,,,,,,,,,,,,,,,,519,18,Woman,Right,4,2,1,1,180,-,180,0.19608570000127656,['n'],0.1908144999979413,1.764,1617.1734144000002,,,,,519,18,Woman,Right,
,,,,,,,,,,,,,,,,,519,18,Woman,Right,4,21,0.4,2,0,180,180,2.024875000002794,['y'],0.19149589999869931,1.764,1621.4571108000018,,,,,519,18,Woman,Right,
,,,,,,,,,,,,,,,,,519,18,Woman,Right,4,58,0.15,1,180,-,0,0.31867590000183554,['n'],1.0797775000028196,1.78,1625.773435199997,,,,,519,18,Woman,Right,
,,,,,,,,,,,,,,,,,519,18,Woman,Right,4,62,0.15,1,180,-,180,0.6690778999982285,['n'],0.2317585999990115,1.78,1628.7401001000035,,,,,519,18,Woman,Right,
,,,,,,,,,,,,,,,,,519,18,Woman,Right,4,36,0.4,1,0,-,0,0.42886210000142455,['n'],0.28031819999887375,1.788,1631.5737118000034,,,,,519,18,Woman,Right,
,,,,,,,,,,,,,,,,,519,18,Woman,Right,4,61,0.15,2,0,180,180,0.4796952999968198,['y'],0.7848643999968772,1.788,1634.9401571999988,,,,,519,18,Woman,Right,
,,,,,,,,,,,,,,,,,519,18,Woman,Right,4,42,0.4,1,180,-,180,0.46088330000202404,['n'],0.21728879999864148,1.788,1637.673835900001,,,,,519,18,Woman,Right,
,,,,,,,,,,,,,,,,,519,18,Woman,Right,4,15,0.4,2,180,0,0,1.2679732000033255,['y'],0.17792270000063581,1.788,1641.2401769999997,,,,,519,18,Woman,Right,
,,,,,,,,,,,,,,,,,519,18,Woman,Right,4,24,0.4,1,0,-,0,1.199975199997425,['y'],0.16295510000054492,1.788,1644.6235406999986,,,,,519,18,Woman,Right,
,,,,,,,,,,,,,,,,,519,18,Woman,Right,4,54,0.15,1,180,-,180,0.31285969999589724,['n'],0.5386724999989383,1.788,1647.4238831999974,,,,,519,18,Woman,Right,
,,,,,,,,,,,,,,,,,519,18,Woman,Right,4,3,1,2,180,0,0,0.6072223000010126,['n'],0.810538900004758,1.966,1651.1235241000031,,,,,519,18,Woman,Right,
,,,,,,,,,,,,,,,,,519,18,Woman,Right,4,71,0.15,2,180,0,0,1.0517323999956716,['y'],0.22650319999956992,1.948,1654.7903994000008,,,,,519,18,Woman,Right,
,,,,,,,,,,,,,,,,,519,18,Woman,Right,4,78,0.15,1,180,-,180,0.3718224000040209,['n'],0.827373299995088,1.82,1658.1238802000007,,,,,519,18,Woman,Right,
,,,,,,,,,,,,,,,,,519,18,Woman,Right,4,25,0.4,2,0,180,180,0.41340739999577636,['y'],0.7876265000013518,1.846,1661.3903690000006,,,,,519,18,Woman,Right,
,,,,,,,,,,,,,,,,,519,18,Woman,Right,4,52,0.15,1,0,-,180,0.7874391000004834,['y'],1.003836500000034,1.306,1665.2569607000041,,,,,519,18,Woman,Right,
,,,,,,,,,,,,,,,,,519,18,Woman,Right,4,30,0.4,1,180,-,180,0.4322418000010657,['n'],0.7646525999953155,1.728,1668.6402547000034,,,,,519,18,Woman,Right,
,,,,,,,,,,,,,,,,,519,18,Woman,Right,4,51,0.15,2,180,0,0,0.5058023000019602,['y'],1.1170420999987982,1.6059999999999999,1673.1907129000028,,,,,519,18,Woman,Right,
,,,,,,,,,,,,,,,,,519,18,Woman,Right,4,43,0.4,2,180,0,0,0.7811918000006699,['y'],0.38140669999847887,1.8479999999999999,1676.440355300001,,,,,519,18,Woman,Right,
,,,,,,,,,,,,,,,,,519,18,Woman,Right,4,70,0.15,1,180,-,180,0.5996554999946966,['y'],0.3099944999994477,1.836,1679.4572931000002,,,,,519,18,Woman,Right,
,,,,,,,,,,,,,,,,,519,18,Woman,Right,4,41,0.4,2,0,180,180,0.33399759999883827,['y'],0.7587989999956335,1.836,1682.6237646000009,,,,,519,18,Woman,Right,
,,,,,,,,,,,,,,,,,519,18,Woman,Right,4,1,1,2,0,180,180,0.19992500000080327,['y'],0.26386440000351286,1.836,1685.341592900004,,,,,519,18,Woman,Right,
,,,,,,,,,,,,,,,,,519,18,Woman,Right,4,29,0.4,2,0,180,180,0.27584829999977956,['y'],0.263601300001028,1.836,1688.340712600002,,,,,519,18,Woman,Right,
,,,,,,,,,,,,,,,,,519,18,Woman,Right,4,27,0.4,2,180,0,0,0.5472808999984409,['y'],0.7199494000014965,1.836,1691.707357899999,,,,,519,18,Woman,Right,
,,,,,,,,,,,,,,,,,519,18,Woman,Right,4,9,0.4,2,0,180,180,0.26863930000399705,['y'],0.24828059999708785,1.836,1694.3241025000025,,,,,519,18,Woman,Right,
,,,,,,,,,,,,,,,,,519,18,Woman,Right,4,50,0.15,1,180,-,180,0.9713940000001458,['n'],1.024784000001091,1.836,1698.607630999999,,,,,519,18,Woman,Right,
,,,,,,,,,,,,,,,,,519,18,Woman,Right,4,77,0.15,2,0,180,180,0.9870019000009052,['y'],0.20876750000024913,1.634,1702.156997799997,,,,,519,18,Woman,Right,
,,,,,,,,,,,,,,,,,519,18,Woman,Right,4,40,0.4,1,0,-,0,0.7708864999949583,['n'],0.4733182999989367,1.792,1705.540391399998,,,,,519,18,Woman,Right,
,,,,,,,,,,,,,,,,,519,18,Woman,Right,4,60,0.15,1,0,-,180,0.5801752999977907,['n'],1.0738812999989023,1.116,1709.9737355000034,,,,,519,18,Woman,Right,
,,,,,,,,,,,,,,,,,519,18,Woman,Right,4,73,0.15,2,0,180,180,0.5664487999965786,['y'],0.8180816999956733,1.5899999999999999,1713.5237856000022,,,,,519,18,Woman,Right,
,,,,,,,,,,,,,,,,,519,18,Woman,Right,4,23,0.4,2,180,0,0,0.46418670000275597,['y'],0.6348265999986324,1.6520000000000001,1716.957019399997,,,,,519,18,Woman,Right,
,,,,,,,,,,,,,,,,,519,18,Woman,Right,4,19,0.4,2,180,0,0,0.6958563000007416,['y'],0.30703619999985676,1.646,1719.9071033,,,,,519,18,Woman,Right,
,,,,,,,,,,,,,,,,,519,18,Woman,Right,4,0,1,1,0,-,0,0.2865053999994416,['y'],0.33990719999565044,1.8559999999999999,1722.8737735000032,,,,,519,18,Woman,Right,
,,,,,,,,,,,,,,,,,519,18,Woman,Right,4,4,1,1,0,-,0,0.33728359999804525,['y'],0.3874292999971658,1.974,1725.6574867000018,,,,,519,18,Woman,Right,
,,,,,,,,,,,,,,,,,519,18,Woman,Right,4,13,0.4,2,0,180,180,0.6410223000057158,['n'],1.3083115000044927,1.436,1729.7409030999988,,,,,519,18,Woman,Right,
,,,,,,,,,,,,,,,,,519,18,Woman,Right,4,56,0.15,1,0,-,0,0.8384366999962367,['y'],0.22899039999902016,1.6179999999999999,1732.840428800002,,,,,519,18,Woman,Right,
,,,,,,,,,,,,,,,,,519,18,Woman,Right,4,33,0.4,2,0,180,180,1.4874342000039178,['y'],0.24559120000049006,1.6179999999999999,1736.6409730000014,,,,,519,18,Woman,Right,
,,,,,,,,,,,,,,,,,519,18,Woman,Right,4,45,0.15,2,0,180,0,0.7604931999958353,['n'],0.23795099999551894,1.672,1739.9575427000018,,,,,519,18,Woman,Right,
,,,,,,,,,,,,,,,,,519,18,Woman,Right,4,76,0.15,1,0,-,180,0.41065620000154013,['n'],0.9815663000044879,1.634,1743.373907000001,,,,,519,18,Woman,Right,
,,,,,,,,,,,,,,,,,519,18,Woman,Right,4,26,0.4,1,180,-,180,1.353893399995286,['y'],0.37437130000034813,1.58,1747.1906378999993,,,,,519,18,Woman,Right,
,,,,,,,,,,,,,,,,,519,18,Woman,Right,4,39,0.4,2,180,0,0,0.6266528000051039,['y'],0.4070900000006077,1.58,1750.3405507999996,,,,,519,18,Woman,Right,
,,,,,,,,,,,,,,,,,519,18,Woman,Right,4,5,1,2,0,180,180,0.4540798000016366,['y'],0.6875830999997561,1.73,1753.9072941999984,,,,,519,18,Woman,Right,
,,,,,,,,,,,,,,,,,519,18,Woman,Right,4,68,0.15,1,0,-,180,1.7672110000057728,['y'],0.671740999998292,1.512,1758.3239160000012,,,,,519,18,Woman,Right,
,,,,,,,,,,,,,,,,,519,18,Woman,Right,4,20,0.4,1,0,-,0,1.1816699000046356,['y'],0.3763198000015109,1.604,1761.824303399997,,,,,519,18,Woman,Right,
,,,,,,,,,,,,,,,,,519,18,Woman,Right,4,8,0.4,1,0,-,0,0.2589583000008133,['y'],1.008575899999414,1.6059999999999999,1765.2909457999995,,,,,519,18,Woman,Right,
,,,,,,,,,,,,,,,,,519,18,Woman,Right,4,18,0.4,1,180,-,180,0.6751708000010694,['n'],0.24170660000527278,1.6059999999999999,1768.2739223000026,,,,,519,18,Woman,Right,
,,,,,,,,,,,,,,,,,519,18,Woman,Right,4,57,0.15,2,0,180,180,1.079574199997296,['n'],0.15347720000136178,1.776,1771.6740083999975,,,,,519,18,Woman,Right,
,,,,,,,,,,,,,,,,,519,18,Woman,Right,4,34,0.4,1,180,-,180,0.11868639999738662,['n'],0.26641709999967134,1.776,1774.123961199999,,,,,519,18,Woman,Right,
,,,,,,,,,,,,,,,,,519,18,Woman,Right,4,49,0.15,2,0,180,180,0.6521519999951124,['n'],0.3702305999977398,1.942,1777.257732099999,,,,,519,18,Woman,Right,
,,,,,,,,,,,,,,,,,519,18,Woman,Right,4,75,0.15,2,180,0,0,0.5278780000007828,['y'],0.6110328999930061,1.942,1780.407378099997,,,,,519,18,Woman,Right,
,,,,,,,,,,,,,,,,,519,18,Woman,Right,4,17,0.4,2,0,180,180,0.4658954000042286,['y'],0.7626927999954205,1.922,1783.7406701,,,,,519,18,Woman,Right,
,,,,,,,,,,,,,,,,,519,18,Woman,Right,4,16,0.4,1,0,-,180,0.7002938000005088,['y'],0.5073568000007072,1.684,1786.9576136000032,,,,,519,18,Woman,Right,
,,,,,,,,,,,,,,,,,519,18,Woman,Right,4,59,0.15,2,180,0,0,0.4831992000035825,['y'],0.5235726999962935,1.69,1789.9907434999986,,,,,519,18,Woman,Right,
,,,,,,,,,,,,,,,,,519,18,Woman,Right,4,12,0.4,1,0,-,0,0.6170488000061596,['y'],1.0768293000000995,1.3940000000000001,1793.8907038000034,,,,,519,18,Woman,Right,
,,,,,,,,,,,,,,,,,519,18,Woman,Right,4,35,0.4,2,180,0,0,0.2883929000017815,['y'],0.8369046000007074,1.666,1797.0407793999984,,,,,519,18,Woman,Right,
,,,,,,,,,,,,,,,,,519,18,Woman,Right,4,7,1,2,180,0,0,0.21627040000021225,['y'],0.4125467999983812,1.704,1799.7407523000002,,,,,519,18,Woman,Right,
,,,,,,,,,,,,,,,,,519,18,Woman,Right,4,10,0.4,1,180,-,180,1.189371000000392,['y'],0.8212529000011273,1.674,1803.7407421000025,,,,,519,18,Woman,Right,
,,,,,,,,,,,,,,,,,519,18,Woman,Right,4,66,0.15,1,180,-,180,0.44463030000042636,['n'],1.422318599994469,1.478,1807.8577576000025,,,,,519,18,Woman,Right,
,,,,,,,,,,,,,,,,,519,18,Woman,Right,4,46,0.15,1,180,-,180,0.9289389999976265,['n'],0.7343876000013552,1.444,1811.6083395000023,,,,,519,18,Woman,Right,
,,,,,,,,,,,,,,,,,519,18,Woman,Right,4,65,0.15,2,0,180,0,2.9138747999968473,['n'],0.9031401000029291,1.588,1817.5407809000026,,,,,519,18,Woman,Right,
,,,,,,,,,,,,,,,,,519,18,Woman,Right,4,28,0.4,1,0,-,0,0.8134310000023106,['n'],0.2798994999975548,1.738,1820.8741243999975,,,,,519,18,Woman,Right,
,,,,,,,,,,,,,,,,,519,18,Woman,Right,4,67,0.15,2,180,0,180,0.593705700004648,['n'],1.1514471999980742,1.494,1826.4741595000014,,,,,519,18,Woman,Right,
,,,,,,,,,,,,,,,,,519,18,Woman,Right,4,48,0.15,1,0,-,0,0.9720157999981893,['n'],1.3052860000025248,1.696,1830.9748401000033,,,,,519,18,Woman,Right,
,,,,,,,,,,,,,,,,,519,18,Woman,Right,4,74,0.15,1,180,-,0,0.5740108999962104,['n'],0.32932679999794345,1.728,1834.0408479000034,,,,,519,18,Woman,Right,
,,,,,,,,,,,,,,,,,519,18,Woman,Right,4,55,0.15,2,180,0,0,1.1348394000015105,['y'],0.24199349999980768,1.666,1837.4575289999993,,,,,519,18,Woman,Right,
,,,,,,,,,,,,,,,,,519,18,Woman,Right,4,37,0.4,2,0,180,180,0.36572660000092583,['y'],0.41853980000450974,1.666,1840.2908880000032,,,,,519,18,Woman,Right,
,,,,,,,,,,,,,,,,,519,18,Woman,Right,4,63,0.15,2,180,0,0,0.9972166999941692,['y'],0.2590332999970997,1.666,1843.5909315000026,,,,,519,18,Woman,Right,
,,,,,,,,,,,,,,,,,519,18,Woman,Right,5,50,0.15,1,180,-,0,0.6012804999991204,['y'],0.2675821000011638,1.6320000000000001,1849.224754499999,85.0,62.5,75.0,,519,18,Woman,Right,
,,,,,,,,,,,,,,,,,519,18,Woman,Right,5,15,0.4,2,180,0,0,0.4503681999995024,['y'],0.24080449999746634,1.6320000000000001,1852.0076002999995,,,,,519,18,Woman,Right,
,,,,,,,,,,,,,,,,,519,18,Woman,Right,5,25,0.4,2,0,180,180,1.0608447000049637,['y'],0.20375339999736752,1.778,1855.4913194000037,,,,,519,18,Woman,Right,
,,,,,,,,,,,,,,,,,519,18,Woman,Right,5,79,0.15,2,180,0,0,1.2757915999973193,['n'],0.8844957000037539,1.772,1860.5579590999987,,,,,519,18,Woman,Right,
,,,,,,,,,,,,,,,,,519,18,Woman,Right,5,61,0.15,2,0,180,180,0.4995487999985926,['y'],0.44539939999958733,1.72,1863.5409832000005,,,,,519,18,Woman,Right,
,,,,,,,,,,,,,,,,,519,18,Woman,Right,5,2,1,1,180,-,180,1.120690999996441,['n'],0.29347559999587247,1.564,1867.1577916000024,,,,,519,18,Woman,Right,
,,,,,,,,,,,,,,,,,519,18,Woman,Right,5,75,0.15,2,180,0,0,1.190629100005026,['n'],0.3099228999999468,1.748,1872.974327099997,,,,,519,18,Woman,Right,
,,,,,,,,,,,,,,,,,519,18,Woman,Right,5,10,0.4,1,180,-,180,0.6050510000059148,['n'],0.32655899999372195,1.718,1876.3743563000025,,,,,519,18,Woman,Right,
,,,,,,,,,,,,,,,,,519,18,Woman,Right,5,52,0.15,1,0,-,0,0.3383157999996911,['n'],0.2786959000004572,1.748,1879.0913800999988,,,,,519,18,Woman,Right,
,,,,,,,,,,,,,,,,,519,18,Woman,Right,5,1,1,2,0,180,180,0.6323926000040956,['y'],0.24707820000185166,1.734,1881.9746423000033,,,,,519,18,Woman,Right,
,,,,,,,,,,,,,,,,,519,18,Woman,Right,5,49,0.15,2,0,180,180,0.618325299998105,['y'],0.34439949999796227,1.608,1885.4910519999976,,,,,519,18,Woman,Right,
,,,,,,,,,,,,,,,,,519,18,Woman,Right,5,42,0.4,1,180,-,180,1.0480749000053038,['n'],0.24071040000126231,1.726,1889.0247200000013,,,,,519,18,Woman,Right,
,,,,,,,,,,,,,,,,,519,18,Woman,Right,5,54,0.15,1,180,-,180,0.49107359999470646,['n'],0.3365122000031988,1.752,1892.3756896999985,,,,,519,18,Woman,Right,
,,,,,,,,,,,,,,,,,519,18,Woman,Right,5,22,0.4,1,180,-,180,0.45306620000337716,['n'],0.37722889999713516,1.928,1895.7743572000036,,,,,519,18,Woman,Right,
,,,,,,,,,,,,,,,,,519,18,Woman,Right,5,55,0.15,2,180,0,180,0.8587824999995064,['n'],0.30552090000128374,1.926,1899.0411018000013,,,,,519,18,Woman,Right,
,,,,,,,,,,,,,,,,,519,18,Woman,Right,5,13,0.4,2,0,180,180,1.2029125000044587,['y'],0.26573089999874355,1.802,1902.9581390000021,,,,,519,18,Woman,Right,
,,,,,,,,,,,,,,,,,519,18,Woman,Right,5,26,0.4,1,180,-,180,0.8770704999988084,['n'],0.22669540000060806,1.5859999999999999,1906.557920500003,,,,,519,18,Woman,Right,
,,,,,,,,,,,,,,,,,519,18,Woman,Right,5,44,0.15,1,0,-,0,1.1266944000017247,['y'],1.3070928000015556,1.6360000000000001,1911.1245909999998,,,,,519,18,Woman,Right,
,,,,,,,,,,,,,,,,,519,18,Woman,Right,5,40,0.4,1,0,-,0,0.9940246999976807,['y'],0.30726160000631353,1.696,1915.2078043000001,,,,,519,18,Woman,Right,
,,,,,,,,,,,,,,,,,519,18,Woman,Right,5,76,0.15,1,0,-,0,0.481891600000381,['n'],0.6676110999978846,1.684,1918.4911538000015,,,,,519,18,Woman,Right,
,,,,,,,,,,,,,,,,,519,18,Woman,Right,5,43,0.4,2,180,0,0,1.0298127999994904,['y'],0.23674959999334533,1.684,1921.8744665999984,,,,,519,18,Woman,Right,
,,,,,,,,,,,,,,,,,519,18,Woman,Right,5,78,0.15,1,180,-,180,0.8151739000022644,['n'],0.3490700999973342,1.684,1925.0912792000017,,,,,519,18,Woman,Right,
,,,,,,,,,,,,,,,,,519,18,Woman,Right,5,30,0.4,1,180,-,180,0.4445701000004192,['n'],0.36533419999614125,1.684,1927.991272500003,,,,,519,18,Woman,Right,
,,,,,,,,,,,,,,,,,519,18,Woman,Right,5,72,0.15,1,0,-,180,0.8488434000028064,['n'],0.21320350000314647,1.684,1931.107834800001,,,,,519,18,Woman,Right,
,,,,,,,,,,,,,,,,,519,18,Woman,Right,5,66,0.15,1,180,-,180,1.054338200003258,['y'],0.27748459999565966,1.704,1934.5911932000017,,,,,519,18,Woman,Right,
,,,,,,,,,,,,,,,,,519,18,Woman,Right,5,33,0.4,2,0,180,180,1.0229639999961364,['y'],0.2467501999999513,1.804,1938.0078675999976,,,,,519,18,Woman,Right,
,,,,,,,,,,,,,,,,,519,18,Woman,Right,5,37,0.4,2,0,180,180,0.5214663000006112,['y'],0.23846269999921788,1.8,1941.0582523999983,,,,,519,18,Woman,Right,
,,,,,,,,,,,,,,,,,519,18,Woman,Right,5,34,0.4,1,180,-,180,0.6890763999981573,['n'],0.24791900000127498,1.8,1944.0079296999975,,,,,519,18,Woman,Right,
,,,,,,,,,,,,,,,,,519,18,Woman,Right,5,31,0.4,2,180,0,0,0.6017071999958716,['y'],0.2158186999949976,1.798,1946.8912488999995,,,,,519,18,Woman,Right,
,,,,,,,,,,,,,,,,,519,18,Woman,Right,5,62,0.15,1,180,-,180,0.6794991999995545,['n'],0.23961620000045514,1.776,1949.7913749,,,,,519,18,Woman,Right,
,,,,,,,,,,,,,,,,,519,18,Woman,Right,5,65,0.15,2,0,180,180,1.1708738000015728,['y'],0.17597929999465123,1.724,1953.1249068000034,,,,,519,18,Woman,Right,
,,,,,,,,,,,,,,,,,519,18,Woman,Right,5,35,0.4,2,180,0,0,0.5033056999964174,['y'],0.25669200000265846,1.724,1955.7749715000027,,,,,519,18,Woman,Right,
,,,,,,,,,,,,,,,,,519,18,Woman,Right,5,39,0.4,2,180,0,0,0.6442145000037272,['y'],0.20133219999843277,1.724,1958.557914500001,,,,,519,18,Woman,Right,
,,,,,,,,,,,,,,,,,519,18,Woman,Right,5,21,0.4,2,0,180,180,1.1647291999979643,['y'],0.3292449000000488,1.722,1962.0422534000027,,,,,519,18,Woman,Right,
,,,,,,,,,,,,,,,,,519,18,Woman,Right,5,4,1,1,0,-,0,0.6498322000043117,['n'],0.17785649999859743,1.758,1966.3266808999979,,,,,519,18,Woman,Right,
,,,,,,,,,,,,,,,,,519,18,Woman,Right,5,69,0.15,2,0,180,180,0.6354011999937939,['n'],0.30631459999858635,1.676,1969.5916709000012,,,,,519,18,Woman,Right,
,,,,,,,,,,,,,,,,,519,18,Woman,Right,5,45,0.15,2,0,180,180,1.2332328999982565,['y'],0.18593620000319788,1.676,1973.0416695000022,,,,,519,18,Woman,Right,
,,,,,,,,,,,,,,,,,519,18,Woman,Right,5,20,0.4,1,0,-,0,0.6334772000045632,['n'],0.24283549999381648,1.722,1975.8750099000026,,,,,519,18,Woman,Right,
,,,,,,,,,,,,,,,,,519,18,Woman,Right,5,17,0.4,2,0,180,180,0.9514858999973512,['y'],0.16348419999849284,1.626,1978.9581160000016,,,,,519,18,Woman,Right,
,,,,,,,,,,,,,,,,,519,18,Woman,Right,5,38,0.4,1,180,-,180,0.7887505000035162,['n'],0.2836802000019816,1.728,1982.2749947999982,,,,,519,18,Woman,Right,
,,,,,,,,,,,,,,,,,519,18,Woman,Right,5,64,0.15,1,0,-,0,0.7527210999978706,['n'],0.2274773000026471,1.716,1986.8090458000006,,,,,519,18,Woman,Right,
,,,,,,,,,,,,,,,,,519,18,Woman,Right,5,56,0.15,1,0,-,0,0.36193229999480536,['n'],0.24461000000155764,1.712,1989.4247440000036,,,,,519,18,Woman,Right,
,,,,,,,,,,,,,,,,,519,18,Woman,Right,5,51,0.15,2,180,0,180,0.6404515999965952,['n'],0.33339799999521347,1.712,1992.6915028000003,,,,,519,18,Woman,Right,
,,,,,,,,,,,,,,,,,519,18,Woman,Right,5,16,0.4,1,0,-,0,0.3748749999940628,['n'],0.2777576999942539,1.712,1995.324829899997,,,,,519,18,Woman,Right,
,,,,,,,,,,,,,,,,,519,18,Woman,Right,5,7,1,2,180,0,0,0.9007711000012932,['y'],0.23024810000060825,1.712,1998.4417828000005,,,,,519,18,Woman,Right,
,,,,,,,,,,,,,,,,,519,18,Woman,Right,5,67,0.15,2,180,0,180,0.6971320000011474,['n'],0.8864271999991615,1.712,2002.0414533000003,,,,,519,18,Woman,Right,
,,,,,,,,,,,,,,,,,519,18,Woman,Right,5,60,0.15,1,0,-,0,0.808175799997116,['y'],0.1909973000001628,1.712,2005.1418575999996,,,,,519,18,Woman,Right,
,,,,,,,,,,,,,,,,,519,18,Woman,Right,5,73,0.15,2,0,180,180,2.4427040000009583,['y'],0.5036196999935783,1.24,2012.5924031000031,,,,,519,18,Woman,Right,
,,,,,,,,,,,,,,,,,519,18,Woman,Right,5,8,0.4,1,0,-,0,0.9109267999956501,['n'],0.45555400000012014,1.6680000000000001,2016.7581905999978,,,,,519,18,Woman,Right,
,,,,,,,,,,,,,,,,,519,18,Woman,Right,5,71,0.15,2,180,0,0,1.0684765999976662,['n'],0.2247840999989421,1.6320000000000001,2020.5748534000013,,,,,519,18,Woman,Right,
,,,,,,,,,,,,,,,,,519,18,Woman,Right,5,24,0.4,1,0,-,0,0.4533863999968162,['n'],0.4007138000015402,1.772,2024.1082881000038,,,,,519,18,Woman,Right,
,,,,,,,,,,,,,,,,,519,18,Woman,Right,5,0,1,1,0,-,0,0.3076578999971389,['n'],0.2812017999967793,1.968,2026.9082610000041,,,,,519,18,Woman,Right,
,,,,,,,,,,,,,,,,,519,18,Woman,Right,5,77,0.15,2,0,180,180,0.9601579000009224,['y'],0.7055491999999504,1.738,2030.6416065000012,,,,,519,18,Woman,Right,
,,,,,,,,,,,,,,,,,519,18,Woman,Right,5,32,0.4,1,0,-,0,0.15018099999724654,['n'],1.389271000000008,1.808,2034.224897699998,,,,,519,18,Woman,Right,
,,,,,,,,,,,,,,,,,519,18,Woman,Right,5,70,0.15,1,180,-,180,0.5791461000044364,['n'],1.834956600003352,1.232,2038.9418728000019,,,,,519,18,Woman,Right,
,,,,,,,,,,,,,,,,,519,18,Woman,Right,5,48,0.15,1,0,-,180,1.8471703999966849,['y'],0.20304140000371262,1.534,2044.2254753000016,,,,,519,18,Woman,Right,
,,,,,,,,,,,,,,,,,519,18,Woman,Right,5,5,1,2,0,180,180,1.1067081000001053,['y'],0.2996510000011767,1.958,2047.8249241000012,,,,,519,18,Woman,Right,
,,,,,,,,,,,,,,,,,519,18,Woman,Right,5,57,0.15,2,0,180,180,0.5288774999935413,['y'],0.6840309000035631,1.442,2051.141571400003,,,,,519,18,Woman,Right,
,,,,,,,,,,,,,,,,,519,18,Woman,Right,5,28,0.4,1,0,-,0,0.4397792000017944,['y'],0.4846728999982588,1.798,2054.0583125999983,,,,,519,18,Woman,Right,
,,,,,,,,,,,,,,,,,519,18,Woman,Right,5,36,0.4,1,0,-,180,0.703781699994579,['y'],0.8606718000010005,1.438,2057.7249722999986,,,,,519,18,Woman,Right,
,,,,,,,,,,,,,,,,,519,18,Woman,Right,5,11,0.4,2,180,0,0,0.5392156999951112,['y'],0.3413702000034391,1.596,2060.7417438999983,,,,,519,18,Woman,Right,
,,,,,,,,,,,,,,,,,519,18,Woman,Right,5,47,0.15,2,180,0,0,0.4526294999959646,['y'],0.5332694000026095,1.524,2063.841689599998,,,,,519,18,Woman,Right,
,,,,,,,,,,,,,,,,,519,18,Woman,Right,5,63,0.15,2,180,0,180,1.8566777000014554,['n'],0.19920229999843286,1.524,2068.0750222999995,,,,,519,18,Woman,Right,
,,,,,,,,,,,,,,,,,519,18,Woman,Right,5,41,0.4,2,0,180,180,1.0332397000020137,['y'],0.1808694999999716,1.524,2071.9916710000034,,,,,519,18,Woman,Right,
,,,,,,,,,,,,,,,,,519,18,Woman,Right,5,14,0.4,1,180,-,180,0.5994895999974688,['n'],0.1756623999972362,1.744,2075.9587525000024,,,,,519,18,Woman,Right,
,,,,,,,,,,,,,,,,,519,18,Woman,Right,5,46,0.15,1,180,-,0,0.6425468000015826,['y'],0.19170979999762494,1.734,2079.175068299999,,,,,519,18,Woman,Right,
,,,,,,,,,,,,,,,,,519,18,Woman,Right,5,12,0.4,1,0,-,0,0.7070778999986942,['y'],0.16018590000021504,1.6520000000000001,2082.5087459999995,,,,,519,18,Woman,Right,
,,,,,,,,,,,,,,,,,519,18,Woman,Right,5,6,1,1,180,-,180,0.5751978000043891,['n'],2.2807421000034083,1.742,2087.4250531,,,,,519,18,Woman,Right,
,,,,,,,,,,,,,,,,,519,18,Woman,Right,5,68,0.15,1,0,-,180,2.2112328999937745,['y'],0.4173406999980216,1.334,2093.7584315999993,,,,,519,18,Woman,Right,
,,,,,,,,,,,,,,,,,519,18,Woman,Right,5,18,0.4,1,180,-,180,0.5005187999995542,['n'],0.5859724000038113,1.82,2097.0758449999994,,,,,519,18,Woman,Right,
,,,,,,,,,,,,,,,,,519,18,Woman,Right,5,9,0.4,2,0,180,180,0.8721787999966182,['y'],0.41018569999869214,1.874,2100.6086417999977,,,,,519,18,Woman,Right,
,,,,,,,,,,,,,,,,,519,18,Woman,Right,5,23,0.4,2,180,0,0,0.7491751999987173,['y'],0.30675659999542404,1.978,2103.8251132000005,,,,,519,18,Woman,Right,
,,,,,,,,,,,,,,,,,519,18,Woman,Right,5,27,0.4,2,180,0,0,0.402707699999155,['y'],0.41920959999697516,1.96,2106.758485899998,,,,,519,18,Woman,Right,
,,,,,,,,,,,,,,,,,519,18,Woman,Right,5,74,0.15,1,180,-,0,0.3224721000005957,['y'],0.38760000000183936,1.758,2109.591895400001,,,,,519,18,Woman,Right,
,,,,,,,,,,,,,,,,,519,18,Woman,Right,5,3,1,2,180,0,0,0.27984709999873303,['y'],0.33175260000280105,1.992,2112.558588,,,,,519,18,Woman,Right,
,,,,,,,,,,,,,,,,,519,18,Woman,Right,5,59,0.15,2,180,0,0,2.1895794000010937,['y'],0.33220340000116266,1.49,2117.158567700004,,,,,519,18,Woman,Right,
,,,,,,,,,,,,,,,,,519,18,Woman,Right,5,53,0.15,2,0,180,180,0.6857854000045336,['y'],0.685090200000559,1.674,2120.5422024,,,,,519,18,Woman,Right,
,,,,,,,,,,,,,,,,,519,18,Woman,Right,5,19,0.4,2,180,0,0,0.8625190999955521,['y'],1.14959269999963,1.604,2124.475312499999,,,,,519,18,Woman,Right,
,,,,,,,,,,,,,,,,,519,18,Woman,Right,5,29,0.4,2,0,180,180,1.2725329000022612,['y'],0.24589230000128737,1.684,2128.0419772000023,,,,,519,18,Woman,Right,
,,,,,,,,,,,,,,,,,519,18,Woman,Right,5,58,0.15,1,180,-,180,1.3065763999984483,['y'],0.2701502999989316,1.3860000000000001,2131.6419081999993,,,,,519,18,Woman,Right,
,,,,,,,,,,,,,,,,,,,,,,,,,,,,,,,,,86.25,67.5,80.0,1891.5678170999963,,,,,
