p_block,p_section,p_coherence,p_direction1,p_direction2,p_direction_response,p_direction_RT,p_change_response,p_change_RT,p_confidence,p_full_correct,p_without5_correct,p_full_total,p_without5_total,p_full_avg,p_witout5_avg,p_total_time,sub,age,sex,handedness,loop,trial randomization,coherence,condition,direction1,direction2,direction_response,direction_RT,change_response,change_RT,change_confidence,change_confidence_RT,block_direction_avg,block_stable_avg,block_change_avg,total_time,sub,age,sex,handedness,
1,1,1.0,0,-,0,2.169178200000033,-,-,-,,,,,,,,562,19,Woman,Right,,,,,,,,,,,,,,,,,562,19,Woman,Right,
1,1,1.0,0,-,0,0.30814439999994647,-,-,-,,,,,,,,562,19,Woman,Right,,,,,,,,,,,,,,,,,562,19,Woman,Right,
1,1,1.0,180,-,180,0.3223080000000209,-,-,-,,,,,,,,562,19,Woman,Right,,,,,,,,,,,,,,,,,562,19,Woman,Right,
1,1,1.0,0,-,0,0.016795300000012503,-,-,-,,,,,,,,562,19,Woman,Right,,,,,,,,,,,,,,,,,562,19,Woman,Right,
1,1,1.0,180,-,180,0.10467730000004849,-,-,-,,,,,,,,562,19,Woman,Right,,,,,,,,,,,,,,,,,562,19,Woman,Right,
1,1,1.0,0,-,0,0.01672370000005685,-,-,-,,,,,,,,562,19,Woman,Right,,,,,,,,,,,,,,,,,562,19,Woman,Right,
1,1,1.0,0,-,0,0.05017859999998109,-,-,-,,,,,,,,562,19,Woman,Right,,,,,,,,,,,,,,,,,562,19,Woman,Right,
1,1,1.0,180,-,180,0.016589199999998527,-,-,-,,,,,,,,562,19,Woman,Right,,,,,,,,,,,,,,,,,562,19,Woman,Right,
1,1,1.0,0,-,0,0.01680700000019897,-,-,-,,,,,,,,562,19,Woman,Right,,,,,,,,,,,,,,,,,562,19,Woman,Right,
1,1,1.0,180,-,180,0.016192900000078225,-,-,-,10,10,10,10,1.0,1.0,,562,19,Woman,Right,,,,,,,,,,,,,,,,,562,19,Woman,Right,
2,1,0.4,180,-,180,1.1339178999999149,-,-,-,,,,,,,,562,19,Woman,Right,,,,,,,,,,,,,,,,,562,19,Woman,Right,
2,1,0.15,0,-,0,0.38347890000000007,-,-,-,,,,,,,,562,19,Woman,Right,,,,,,,,,,,,,,,,,562,19,Woman,Right,
2,1,0.15,0,-,0,0.5570466000001488,-,-,-,,,,,,,,562,19,Woman,Right,,,,,,,,,,,,,,,,,562,19,Woman,Right,
2,1,0.15,180,-,180,0.20125230000007832,-,-,-,,,,,,,,562,19,Woman,Right,,,,,,,,,,,,,,,,,562,19,Woman,Right,
2,1,0.4,0,-,0,0.2913991000000351,-,-,-,,,,,,,,562,19,Woman,Right,,,,,,,,,,,,,,,,,562,19,Woman,Right,
2,1,0.4,0,-,0,0.1780308000002151,-,-,-,,,,,,,,562,19,Woman,Right,,,,,,,,,,,,,,,,,562,19,Woman,Right,
2,1,0.4,180,-,180,0.01691890000006424,-,-,-,,,,,,,,562,19,Woman,Right,,,,,,,,,,,,,,,,,562,19,Woman,Right,
2,1,0.4,0,-,0,2.0945963000001484,-,-,-,,,,,,,,562,19,Woman,Right,,,,,,,,,,,,,,,,,562,19,Woman,Right,
2,1,0.4,0,-,0,0.07740530000000945,-,-,-,,,,,,,,562,19,Woman,Right,,,,,,,,,,,,,,,,,562,19,Woman,Right,
2,1,0.15,0,-,0,0.09269100000005892,-,-,-,10,6,10,6,1.0,1.0,,562,19,Woman,Right,,,,,,,,,,,,,,,,,562,19,Woman,Right,
3,2,1.0,180,0,0,2.4390776000000187,['y'],5.91882499999997,2,,,,,,,,562,19,Woman,Right,,,,,,,,,,,,,,,,,562,19,Woman,Right,
3,2,1.0,0,180,180,3.39435739999999,['y'],2.355290400000058,2.0,,,,,,,,562,19,Woman,Right,,,,,,,,,,,,,,,,,562,19,Woman,Right,
3,2,1.0,180,0,0,1.5353162999999768,['y'],1.8028690999999526,2.0,,,,,,,,562,19,Woman,Right,,,,,,,,,,,,,,,,,562,19,Woman,Right,
3,2,1.0,0,180,180,1.9127698999998302,['y'],1.2461373000001004,2.0,,,,,,,,562,19,Woman,Right,,,,,,,,,,,,,,,,,562,19,Woman,Right,
3,2,1.0,180,0,0,1.5002035000002252,['y'],0.9382775999997648,2.0,,,,,,,,562,19,Woman,Right,,,,,,,,,,,,,,,,,562,19,Woman,Right,
3,2,1.0,180,0,0,1.430880999999772,['y'],1.5436288000000786,2.0,,,,,,,,562,19,Woman,Right,,,,,,,,,,,,,,,,,562,19,Woman,Right,
3,2,1.0,0,180,180,1.309667200000149,['y'],0.8513951999998426,2.0,,,,,,,,562,19,Woman,Right,,,,,,,,,,,,,,,,,562,19,Woman,Right,
3,2,1.0,0,180,180,0.8325836999997591,['y'],1.032994200000303,2.0,,,,,,,,562,19,Woman,Right,,,,,,,,,,,,,,,,,562,19,Woman,Right,
3,2,1.0,0,180,180,0.9523902999999336,['y'],0.9958054000003358,2.0,,,,,,,,562,19,Woman,Right,,,,,,,,,,,,,,,,,562,19,Woman,Right,
3,2,1.0,180,0,0,1.4960234000000128,['y'],3.6136704999998983,2.0,10,10,10,10,1.0,1.0,,562,19,Woman,Right,,,,,,,,,,,,,,,,,562,19,Woman,Right,
4,2,0.4,0,180,180,1.8709842000002936,['y'],1.5246127000000342,2.0,,,,,,,,562,19,Woman,Right,,,,,,,,,,,,,,,,,562,19,Woman,Right,
4,2,0.15,0,180,0,2.550199799999973,['n'],3.076724000000013,1.0,,,,,,,,562,19,Woman,Right,,,,,,,,,,,,,,,,,562,19,Woman,Right,
4,2,0.15,0,180,180,2.4935850000001665,['y'],1.1238381999996818,2.0,,,,,,,,562,19,Woman,Right,,,,,,,,,,,,,,,,,562,19,Woman,Right,
4,2,0.4,180,0,0,0.9990733999998156,['y'],0.6086358999996264,2.0,,,,,,,,562,19,Woman,Right,,,,,,,,,,,,,,,,,562,19,Woman,Right,
4,2,0.15,180,0,0,0.8965985999998338,['y'],0.4627036000001681,2.0,,,,,,,,562,19,Woman,Right,,,,,,,,,,,,,,,,,562,19,Woman,Right,
4,2,0.4,0,180,180,1.1127455999999256,['y'],0.8774655000001985,2.0,,,,,,,,562,19,Woman,Right,,,,,,,,,,,,,,,,,562,19,Woman,Right,
4,2,0.15,0,180,180,2.1459373000002415,['y'],0.3500166000003446,2.0,,,,,,,,562,19,Woman,Right,,,,,,,,,,,,,,,,,562,19,Woman,Right,
4,2,0.15,180,0,180,0.7779542000002948,['y'],1.6522900999998456,1.194,,,,,,,,562,19,Woman,Right,,,,,,,,,,,,,,,,,562,19,Woman,Right,
4,2,0.4,0,180,180,1.6268420999999762,['y'],0.5472580999999082,2.0,,,,,,,,562,19,Woman,Right,,,,,,,,,,,,,,,,,562,19,Woman,Right,
4,2,0.15,180,0,0,1.0373012999998537,['y'],0.3174906999997802,2.0,8,4,10,4,0.8,1.0,,562,19,Woman,Right,,,,,,,,,,,,,,,,,562,19,Woman,Right,
5,3,0.15,180,0,0,1.400024100000337,['y'],1.753265199999987,2.0,,,,,,,,562,19,Woman,Right,,,,,,,,,,,,,,,,,562,19,Woman,Right,
5,3,1.0,180,0,0,0.6204265000001215,['y'],0.7572135999998864,2.0,,,,,,,,562,19,Woman,Right,,,,,,,,,,,,,,,,,562,19,Woman,Right,
5,3,0.15,0,-,0,2.2365187999998852,['n'],1.8595817999998872,2.0,,,,,,,,562,19,Woman,Right,,,,,,,,,,,,,,,,,562,19,Woman,Right,
5,3,1.0,180,-,180,1.3937332999998944,['n'],0.2199706999999762,2.0,,,,,,,,562,19,Woman,Right,,,,,,,,,,,,,,,,,562,19,Woman,Right,
5,3,0.15,180,-,0,2.268858899999941,['n'],0.7637617000000319,1.28,,,,,,,,562,19,Woman,Right,,,,,,,,,,,,,,,,,562,19,Woman,Right,
5,3,1.0,180,0,0,0.5808324999998149,['y'],1.2728440999999293,2.0,,,,,,,,562,19,Woman,Right,,,,,,,,,,,,,,,,,562,19,Woman,Right,
5,3,0.4,180,0,0,0.6284432000002198,['y'],0.981778100000156,2.0,,,,,,,,562,19,Woman,Right,,,,,,,,,,,,,,,,,562,19,Woman,Right,
5,3,0.15,0,180,180,2.556539100000009,['y'],0.8488964000002852,2.0,,,,,,,,562,19,Woman,Right,,,,,,,,,,,,,,,,,562,19,Woman,Right,
5,3,0.15,0,-,0,1.2579451999999947,['y'],0.8334368999999242,1.238,,,,,,,,562,19,Woman,Right,,,,,,,,,,,,,,,,,562,19,Woman,Right,
5,3,0.4,180,-,0,0.8785579999998845,['n'],1.468995299999733,1.354,8,4,10,5,0.8,0.8,,562,19,Woman,Right,,,,,,,,,,,,,,,,,562,19,Woman,Right,
,,,,,,,,,,,,,,,,6.499999926745659e-06,562,19,Woman,Right,,,,,,,,,,,,,,,,,562,19,Woman,Right,
,,,,,,,,,,,,,,,,,562,19,Woman,Right,0,31,0.4,2,180,0,0,0.9876438999999664,['y'],3.6947715000001153,2.0,342.84739249999984,,,,,562,19,Woman,Right,
,,,,,,,,,,,,,,,,,562,19,Woman,Right,0,55,0.15,2,180,0,0,0.7487701000000015,['y'],0.9909623999997166,2.0,348.7304973,,,,,562,19,Woman,Right,
,,,,,,,,,,,,,,,,,562,19,Woman,Right,0,57,0.15,2,0,180,180,0.8567716000002292,['y'],2.50307550000025,1.67,357.6471824,,,,,562,19,Woman,Right,
,,,,,,,,,,,,,,,,,562,19,Woman,Right,0,3,1,2,180,0,0,0.633550600000035,['y'],1.1909497000001465,2.0,363.94718269999976,,,,,562,19,Woman,Right,
,,,,,,,,,,,,,,,,,562,19,Woman,Right,0,70,0.15,1,180,-,0,1.433110299999953,['y'],2.583469100000002,1.546,371.98037399999976,,,,,562,19,Woman,Right,
,,,,,,,,,,,,,,,,,562,19,Woman,Right,0,46,0.15,1,180,-,0,3.262535000000298,['n'],1.3588880000002064,1.558,380.59695379999994,,,,,562,19,Woman,Right,
,,,,,,,,,,,,,,,,,562,19,Woman,Right,0,72,0.15,1,0,-,0,3.2037694000000556,['n'],1.270702799999981,1.234,389.1635618999999,,,,,562,19,Woman,Right,
,,,,,,,,,,,,,,,,,562,19,Woman,Right,0,40,0.4,1,0,-,0,1.0553289999998015,['n'],1.711010499999702,1.93,395.6801118999997,,,,,562,19,Woman,Right,
,,,,,,,,,,,,,,,,,562,19,Woman,Right,0,27,0.4,2,180,0,0,0.9486007999998947,['y'],2.0633010999999897,1.736,403.3804276999999,,,,,562,19,Woman,Right,
,,,,,,,,,,,,,,,,,562,19,Woman,Right,0,69,0.15,2,0,180,0,2.7873866999998427,['y'],2.4229174000001876,1.3940000000000001,412.7799663999999,,,,,562,19,Woman,Right,
,,,,,,,,,,,,,,,,,562,19,Woman,Right,0,44,0.15,1,0,-,0,2.2335182000001623,['n'],1.4308177000002615,1.32,421.0466185999999,,,,,562,19,Woman,Right,
,,,,,,,,,,,,,,,,,562,19,Woman,Right,0,73,0.15,2,0,180,180,1.1216990000002625,['n'],1.27887950000013,1.29,427.37987680000015,,,,,562,19,Woman,Right,
,,,,,,,,,,,,,,,,,562,19,Woman,Right,0,56,0.15,1,0,-,0,2.003992500000095,['y'],1.5104800000003706,1.3679999999999999,434.6632642999998,,,,,562,19,Woman,Right,
,,,,,,,,,,,,,,,,,562,19,Woman,Right,0,66,0.15,1,180,-,0,1.1111815999997816,['n'],1.4147447999998803,1.238,440.29643899999974,,,,,562,19,Woman,Right,
,,,,,,,,,,,,,,,,,562,19,Woman,Right,0,48,0.15,1,0,-,0,1.11687400000028,['n'],1.5585998999999902,1.634,448.32970320000004,,,,,562,19,Woman,Right,
,,,,,,,,,,,,,,,,,562,19,Woman,Right,0,61,0.15,2,0,180,180,5.58330769999975,['n'],2.3266296000001603,1.0,460.84628810000004,,,,,562,19,Woman,Right,
,,,,,,,,,,,,,,,,,562,19,Woman,Right,0,75,0.15,2,180,0,0,0.9194566000001032,['n'],1.5430461999999352,1.6440000000000001,467.96307419999994,,,,,562,19,Woman,Right,
,,,,,,,,,,,,,,,,,562,19,Woman,Right,0,14,0.4,1,180,-,0,2.032013399999869,['n'],1.126895500000046,1.188,475.2960165999998,,,,,562,19,Woman,Right,
,,,,,,,,,,,,,,,,,562,19,Woman,Right,0,15,0.4,2,180,0,0,0.750930100000005,['y'],1.3268984999999702,1.71,481.1294210000001,,,,,562,19,Woman,Right,
,,,,,,,,,,,,,,,,,562,19,Woman,Right,0,71,0.15,2,180,0,0,0.6500633999999081,['y'],1.2630159000000276,1.7,486.39715019999994,,,,,562,19,Woman,Right,
,,,,,,,,,,,,,,,,,562,19,Woman,Right,0,36,0.4,1,0,-,0,0.8813382000003003,['y'],1.5985143000002608,1.746,492.8293969000001,,,,,562,19,Woman,Right,
,,,,,,,,,,,,,,,,,562,19,Woman,Right,0,49,0.15,2,0,180,0,1.8590877000001456,['n'],0.9908740999999281,1.3359999999999999,499.2292500999997,,,,,562,19,Woman,Right,
,,,,,,,,,,,,,,,,,562,19,Woman,Right,0,58,0.15,1,180,-,180,2.619104399999742,['n'],2.0228703000002497,1.29,507.6625547999997,,,,,562,19,Woman,Right,
,,,,,,,,,,,,,,,,,562,19,Woman,Right,0,60,0.15,1,0,-,180,1.0517853000001196,['y'],1.2548819000003277,1.216,514.0127205999997,,,,,562,19,Woman,Right,
,,,,,,,,,,,,,,,,,562,19,Woman,Right,0,68,0.15,1,0,-,0,0.6622742000004109,['n'],1.4225343999996767,1.26,520.7789975000001,,,,,562,19,Woman,Right,
,,,,,,,,,,,,,,,,,562,19,Woman,Right,0,67,0.15,2,180,0,0,1.2280221000000893,['n'],1.4948592999999164,1.214,527.5289895999999,,,,,562,19,Woman,Right,
,,,,,,,,,,,,,,,,,562,19,Woman,Right,0,9,0.4,2,0,180,180,0.6466112999996767,['y'],1.3109196000000338,1.6059999999999999,532.8122533000001,,,,,562,19,Woman,Right,
,,,,,,,,,,,,,,,,,562,19,Woman,Right,0,52,0.15,1,0,-,0,0.7941506000001937,['n'],1.3987097999997786,1.5899999999999999,538.7626651999999,,,,,562,19,Woman,Right,
,,,,,,,,,,,,,,,,,562,19,Woman,Right,0,38,0.4,1,180,-,180,0.9586546999998973,['n'],1.838838200000282,1.534,546.8797138999998,,,,,562,19,Woman,Right,
,,,,,,,,,,,,,,,,,562,19,Woman,Right,0,24,0.4,1,0,-,0,0.9776920999997856,['n'],1.1267274000001635,1.584,552.6954437999998,,,,,562,19,Woman,Right,
,,,,,,,,,,,,,,,,,562,19,Woman,Right,0,43,0.4,2,180,0,0,0.563623899999584,['y'],1.2229597999998987,1.6400000000000001,558.0952901999999,,,,,562,19,Woman,Right,
,,,,,,,,,,,,,,,,,562,19,Woman,Right,0,16,0.4,1,0,-,0,1.2789680000000772,['y'],2.4147891000002346,1.6,566.9952512,,,,,562,19,Woman,Right,
,,,,,,,,,,,,,,,,,562,19,Woman,Right,0,45,0.15,2,0,180,180,2.4638644999999997,['n'],2.1030274999998255,1.196,575.6451622999998,,,,,562,19,Woman,Right,
,,,,,,,,,,,,,,,,,562,19,Woman,Right,0,77,0.15,2,0,180,180,0.8152202000001125,['y'],1.2709124999996675,1.302,582.6121239999998,,,,,562,19,Woman,Right,
,,,,,,,,,,,,,,,,,562,19,Woman,Right,0,11,0.4,2,180,0,0,0.5471629000003304,['y'],1.350905999999668,1.562,588.2451017999997,,,,,562,19,Woman,Right,
,,,,,,,,,,,,,,,,,562,19,Woman,Right,0,10,0.4,1,180,-,180,1.096370300000217,['n'],1.2872637999998915,1.6640000000000001,593.7116711999997,,,,,562,19,Woman,Right,
,,,,,,,,,,,,,,,,,562,19,Woman,Right,0,39,0.4,2,180,0,0,1.392613099999835,['y'],1.519205300000067,1.3519999999999999,600.7116783000001,,,,,562,19,Woman,Right,
,,,,,,,,,,,,,,,,,562,19,Woman,Right,0,34,0.4,1,180,-,180,0.689918999999918,['n'],3.1670312000001104,1.6520000000000001,609.5448929999998,,,,,562,19,Woman,Right,
,,,,,,,,,,,,,,,,,562,19,Woman,Right,0,8,0.4,1,0,-,0,1.7812752999998338,['n'],5.80677629999991,1.774,620.7948069999998,,,,,562,19,Woman,Right,
,,,,,,,,,,,,,,,,,562,19,Woman,Right,0,65,0.15,2,0,180,180,1.2720433999998022,['n'],1.1497243000003436,1.572,626.8113920000001,,,,,562,19,Woman,Right,
,,,,,,,,,,,,,,,,,562,19,Woman,Right,0,13,0.4,2,0,180,180,0.8361855000002834,['y'],1.0713138000000981,1.596,635.5115713,,,,,562,19,Woman,Right,
,,,,,,,,,,,,,,,,,562,19,Woman,Right,0,7,1,2,180,0,0,0.4562932000003457,['y'],1.046112699999867,1.72,640.3446475999999,,,,,562,19,Woman,Right,
,,,,,,,,,,,,,,,,,562,19,Woman,Right,0,33,0.4,2,0,180,180,1.6797090000000026,['y'],2.8067566999998235,1.268,648.5445392000001,,,,,562,19,Woman,Right,
,,,,,,,,,,,,,,,,,562,19,Woman,Right,0,54,0.15,1,180,-,180,0.5844876999999542,['n'],0.9430543999997099,1.682,653.6614473999998,,,,,562,19,Woman,Right,
,,,,,,,,,,,,,,,,,562,19,Woman,Right,0,5,1,2,0,180,180,0.6996555999999146,['y'],1.239249700000073,1.74,658.9614425,,,,,562,19,Woman,Right,
,,,,,,,,,,,,,,,,,562,19,Woman,Right,0,28,0.4,1,0,-,0,0.5000992000000224,['n'],0.9513104000002386,1.94,663.5944481000001,,,,,562,19,Woman,Right,
,,,,,,,,,,,,,,,,,562,19,Woman,Right,0,74,0.15,1,180,-,180,0.9331566000000748,['n'],1.0231835999998111,1.592,668.7609738000001,,,,,562,19,Woman,Right,
,,,,,,,,,,,,,,,,,562,19,Woman,Right,0,19,0.4,2,180,0,0,0.4879255999999259,['n'],0.9267891999998028,1.016,674.5609943999998,,,,,562,19,Woman,Right,
,,,,,,,,,,,,,,,,,562,19,Woman,Right,0,62,0.15,1,180,-,0,0.7906256999999641,['y'],1.3751114000001508,1.704,679.8608627999997,,,,,562,19,Woman,Right,
,,,,,,,,,,,,,,,,,562,19,Woman,Right,0,53,0.15,2,0,180,180,0.6347151999998459,['y'],1.0390411999997013,1.692,685.3275051,,,,,562,19,Woman,Right,
,,,,,,,,,,,,,,,,,562,19,Woman,Right,0,6,1,1,180,-,180,0.6005267000000458,['n'],1.0858754000000772,1.6139999999999999,690.8774889000001,,,,,562,19,Woman,Right,
,,,,,,,,,,,,,,,,,562,19,Woman,Right,0,26,0.4,1,180,-,180,0.7989763999999013,['n'],1.190697999999884,1.678,696.1774737999999,,,,,562,19,Woman,Right,
,,,,,,,,,,,,,,,,,562,19,Woman,Right,0,41,0.4,2,0,180,180,0.7478197999998883,['y'],1.7426446999998007,1.708,701.8274118999998,,,,,562,19,Woman,Right,
,,,,,,,,,,,,,,,,,562,19,Woman,Right,0,50,0.15,1,180,-,180,1.1317543999998634,['y'],1.8467733000002227,1.752,708.2106948,,,,,562,19,Woman,Right,
,,,,,,,,,,,,,,,,,562,19,Woman,Right,0,2,1,1,180,-,180,0.7091455999998288,['n'],0.9028137000000243,1.6640000000000001,712.6440217999998,,,,,562,19,Woman,Right,
,,,,,,,,,,,,,,,,,562,19,Woman,Right,0,64,0.15,1,0,-,180,1.9318889999999556,['n'],1.7588308999997935,1.0,719.9772478,,,,,562,19,Woman,Right,
,,,,,,,,,,,,,,,,,562,19,Woman,Right,0,32,0.4,1,0,-,0,0.5519460999998955,['n'],2.3427128999996967,1.6179999999999999,725.9272108,,,,,562,19,Woman,Right,
,,,,,,,,,,,,,,,,,562,19,Woman,Right,0,35,0.4,2,180,0,0,0.5136923000000024,['y'],1.0713832999999795,2.0,730.2605914999999,,,,,562,19,Woman,Right,
,,,,,,,,,,,,,,,,,562,19,Woman,Right,0,78,0.15,1,180,-,180,1.039955899999768,['n'],0.7670912999997199,1.3719999999999999,735.1938857999999,,,,,562,19,Woman,Right,
,,,,,,,,,,,,,,,,,562,19,Woman,Right,0,0,1,1,0,-,0,0.4666010999999344,['n'],0.935152300000027,1.6219999999999999,739.3105405000001,,,,,562,19,Woman,Right,
,,,,,,,,,,,,,,,,,562,19,Woman,Right,0,37,0.4,2,0,180,180,0.5371637999996892,['y'],1.0631164999999783,1.742,743.7105968999999,,,,,562,19,Woman,Right,
,,,,,,,,,,,,,,,,,562,19,Woman,Right,0,29,0.4,2,0,180,180,0.9501008000002003,['y'],1.0393396999998004,1.412,749.1770200000001,,,,,562,19,Woman,Right,
,,,,,,,,,,,,,,,,,562,19,Woman,Right,0,4,1,1,0,-,0,0.4393438000001879,['n'],0.958797499999946,2.0,753.5603212999999,,,,,562,19,Woman,Right,
,,,,,,,,,,,,,,,,,562,19,Woman,Right,0,59,0.15,2,180,0,0,3.5632573999996566,['n'],1.1590813000002527,1.338,761.3271894,,,,,562,19,Woman,Right,
,,,,,,,,,,,,,,,,,562,19,Woman,Right,0,22,0.4,1,180,-,180,0.6633959000000687,['n'],0.8313242999997783,1.744,766.2767178999998,,,,,562,19,Woman,Right,
,,,,,,,,,,,,,,,,,562,19,Woman,Right,0,42,0.4,1,180,-,180,1.3700177000000622,['n'],2.4794769000000088,1.6179999999999999,773.2267572999999,,,,,562,19,Woman,Right,
,,,,,,,,,,,,,,,,,562,19,Woman,Right,0,79,0.15,2,180,0,0,0.967484599999807,['y'],0.9988100999999006,1.188,778.2271003999999,,,,,562,19,Woman,Right,
,,,,,,,,,,,,,,,,,562,19,Woman,Right,0,12,0.4,1,0,-,0,0.8503293999997368,['n'],1.3029481999997188,1.73,784.3266954000001,,,,,562,19,Woman,Right,
,,,,,,,,,,,,,,,,,562,19,Woman,Right,0,1,1,2,0,180,180,0.6510572000001957,['y'],2.519083799999862,1.704,790.9099836,,,,,562,19,Woman,Right,
,,,,,,,,,,,,,,,,,562,19,Woman,Right,0,30,0.4,1,180,-,180,1.3777373999996598,['n'],0.6232084000002942,1.734,796.2599454000001,,,,,562,19,Woman,Right,
,,,,,,,,,,,,,,,,,562,19,Woman,Right,0,20,0.4,1,0,-,0,0.4997207999999773,['n'],0.9591995999999199,1.782,801.1101537,,,,,562,19,Woman,Right,
,,,,,,,,,,,,,,,,,562,19,Woman,Right,0,47,0.15,2,180,0,0,0.4337767000001804,['y'],0.9428699999998571,1.646,805.6431837,,,,,562,19,Woman,Right,
,,,,,,,,,,,,,,,,,562,19,Woman,Right,0,18,0.4,1,180,-,0,0.466699300000073,['y'],1.0400429999999687,1.6219999999999999,809.9099495,,,,,562,19,Woman,Right,
,,,,,,,,,,,,,,,,,562,19,Woman,Right,0,51,0.15,2,180,0,180,1.7929973000000246,['n'],0.5587844000001496,1.072,815.3099487999998,,,,,562,19,Woman,Right,
,,,,,,,,,,,,,,,,,562,19,Woman,Right,0,76,0.15,1,0,-,0,1.275556300000062,['n'],1.6868349999999737,1.13,821.4264147999997,,,,,562,19,Woman,Right,
,,,,,,,,,,,,,,,,,562,19,Woman,Right,0,21,0.4,2,0,180,180,2.0365655000000515,['y'],1.1509184999999889,1.308,827.4929521999998,,,,,562,19,Woman,Right,
,,,,,,,,,,,,,,,,,562,19,Woman,Right,0,63,0.15,2,180,0,0,0.9533934000000954,['n'],1.230771300000015,1.438,833.3427499999998,,,,,562,19,Woman,Right,
,,,,,,,,,,,,,,,,,562,19,Woman,Right,0,25,0.4,2,0,180,0,4.017606800000067,['y'],2.1186367999998765,1.5939999999999999,845.4263897000001,,,,,562,19,Woman,Right,
,,,,,,,,,,,,,,,,,562,19,Woman,Right,0,17,0.4,2,0,180,180,0.7038285999997242,['y'],1.399301899999955,1.828,852.1594117999998,,,,,562,19,Woman,Right,
,,,,,,,,,,,,,,,,,562,19,Woman,Right,0,23,0.4,2,180,0,0,0.7003189999995811,['y'],1.2068632999998954,1.826,858.0593052999998,,,,,562,19,Woman,Right,
,,,,,,,,,,,,,,,,,562,19,Woman,Right,1,42,0.4,1,180,-,180,1.8003287000001365,['n'],1.3670882000001257,1.3479999999999999,885.5090203999998,85.0,80.0,72.5,,562,19,Woman,Right,
,,,,,,,,,,,,,,,,,562,19,Woman,Right,1,34,0.4,1,180,-,180,0.5550321999999142,['n'],0.9266440000001239,1.716,891.4592600999999,,,,,562,19,Woman,Right,
,,,,,,,,,,,,,,,,,562,19,Woman,Right,1,27,0.4,2,180,0,0,1.7068728999997802,['y'],1.3028552000000673,1.68,897.8589496999998,,,,,562,19,Woman,Right,
,,,,,,,,,,,,,,,,,562,19,Woman,Right,1,52,0.15,1,0,-,0,0.9140894000001936,['n'],0.934801399999742,1.376,903.2589367,,,,,562,19,Woman,Right,
,,,,,,,,,,,,,,,,,562,19,Woman,Right,1,24,0.4,1,0,-,0,1.597240900000088,['y'],1.7187607000000753,1.164,910.8089881000001,,,,,562,19,Woman,Right,
,,,,,,,,,,,,,,,,,562,19,Woman,Right,1,29,0.4,2,0,180,180,2.7709897999998248,['y'],1.2711123000003681,1.342,919.4094342999997,,,,,562,19,Woman,Right,
,,,,,,,,,,,,,,,,,562,19,Woman,Right,1,0,1,1,0,-,0,1.6530942999997933,['n'],2.1506726999996317,1.78,927.5420254999999,,,,,562,19,Woman,Right,
,,,,,,,,,,,,,,,,,562,19,Woman,Right,1,39,0.4,2,180,0,0,0.952836699999807,['y'],1.7589725000002545,1.362,934.5588665999999,,,,,562,19,Woman,Right,
,,,,,,,,,,,,,,,,,562,19,Woman,Right,1,3,1,2,180,0,0,1.453956400000152,['y'],1.8311554000001706,1.762,942.1753371,,,,,562,19,Woman,Right,
,,,,,,,,,,,,,,,,,562,19,Woman,Right,1,46,0.15,1,180,-,180,3.2398198999999295,['n'],1.2631015000001753,1.288,950.5251868,,,,,562,19,Woman,Right,
,,,,,,,,,,,,,,,,,562,19,Woman,Right,1,1,1,2,0,180,180,1.4719397999997454,['y'],5.135443399999986,1.6320000000000001,961.4083990999998,,,,,562,19,Woman,Right,
,,,,,,,,,,,,,,,,,562,19,Woman,Right,1,65,0.15,2,0,180,180,0.8619614999997793,['y'],1.0309403999999631,1.692,967.6582955999997,,,,,562,19,Woman,Right,
,,,,,,,,,,,,,,,,,562,19,Woman,Right,1,61,0.15,2,0,180,0,1.4607777999999598,['n'],3.39091499999995,1.286,976.2250313999998,,,,,562,19,Woman,Right,
,,,,,,,,,,,,,,,,,562,19,Woman,Right,1,58,0.15,1,180,-,0,0.9042921000000206,['n'],1.3827673999999206,1.278,986.0749557999998,,,,,562,19,Woman,Right,
,,,,,,,,,,,,,,,,,562,19,Woman,Right,1,32,0.4,1,0,-,0,0.746791900000062,['y'],0.6624769000000015,1.69,990.4749038999998,,,,,562,19,Woman,Right,
,,,,,,,,,,,,,,,,,562,19,Woman,Right,1,38,0.4,1,180,-,180,0.285491600000114,['y'],0.7111179999997148,1.69,994.8591004,,,,,562,19,Woman,Right,
,,,,,,,,,,,,,,,,,562,19,Woman,Right,1,14,0.4,1,180,-,0,0.1451418999999987,['y'],4.735022699999718,1.688,1002.7413127999998,,,,,562,19,Woman,Right,
,,,,,,,,,,,,,,,,,562,19,Woman,Right,1,33,0.4,2,0,180,180,0.6235446999999112,['y'],1.0390400000001137,1.686,1007.0255892999999,,,,,562,19,Woman,Right,
,,,,,,,,,,,,,,,,,562,19,Woman,Right,1,53,0.15,2,0,180,180,6.588910699999815,['y'],1.3268573000000288,1.688,1017.9578704999999,,,,,562,19,Woman,Right,
,,,,,,,,,,,,,,,,,562,19,Woman,Right,1,11,0.4,2,180,0,0,0.5099043999998685,['y'],1.1350754000000052,1.688,1022.3413108,,,,,562,19,Woman,Right,
,,,,,,,,,,,,,,,,,562,19,Woman,Right,1,28,0.4,1,0,-,0,0.7351246000002902,['n'],1.006960600000184,1.688,1026.8078981999997,,,,,562,19,Woman,Right,
,,,,,,,,,,,,,,,,,562,19,Woman,Right,1,35,0.4,2,180,0,0,0.404695200000333,['y'],0.8630238999999165,1.688,1030.8911684,,,,,562,19,Woman,Right,
,,,,,,,,,,,,,,,,,562,19,Woman,Right,1,60,0.15,1,0,-,0,0.6346100000000661,['n'],0.7589995000003,1.688,1034.8745985,,,,,562,19,Woman,Right,
,,,,,,,,,,,,,,,,,562,19,Woman,Right,1,23,0.4,2,180,0,180,0.6807371999998395,['n'],0.7990088000001379,1.688,1038.8585831,,,,,562,19,Woman,Right,
,,,,,,,,,,,,,,,,,562,19,Woman,Right,1,68,0.15,1,0,-,0,2.2813406999998733,['y'],1.134335799999917,1.294,1047.524383,,,,,562,19,Woman,Right,
,,,,,,,,,,,,,,,,,562,19,Woman,Right,1,70,0.15,1,180,-,0,0.8500879000002897,['y'],1.6548561999998128,1.3820000000000001,1054.107736,,,,,562,19,Woman,Right,
,,,,,,,,,,,,,,,,,562,19,Woman,Right,1,75,0.15,2,180,0,0,1.076273399999991,['n'],3.166924999999992,1.272,1061.5909937000001,,,,,562,19,Woman,Right,
,,,,,,,,,,,,,,,,,562,19,Woman,Right,1,26,0.4,1,180,-,0,1.683790399999907,['y'],0.8706561999997575,1.32,1067.7407957,,,,,562,19,Woman,Right,
,,,,,,,,,,,,,,,,,562,19,Woman,Right,1,50,0.15,1,180,-,0,2.211707899999965,['y'],1.3753703999996105,1.314,1074.9573633,,,,,562,19,Woman,Right,
,,,,,,,,,,,,,,,,,562,19,Woman,Right,1,16,0.4,1,0,-,0,0.7096823000001677,['n'],2.358858600000076,1.662,1081.2905863,,,,,562,19,Woman,Right,
,,,,,,,,,,,,,,,,,562,19,Woman,Right,1,37,0.4,2,0,180,180,1.171428300000116,['y'],1.6147459999997409,1.638,1087.4070609,,,,,562,19,Woman,Right,
,,,,,,,,,,,,,,,,,562,19,Woman,Right,1,4,1,1,0,-,0,1.3196881999997458,['n'],0.8795506000001296,1.626,1092.2238483,,,,,562,19,Woman,Right,
,,,,,,,,,,,,,,,,,562,19,Woman,Right,1,56,0.15,1,0,-,180,1.2526333000000704,['y'],1.374786800000038,1.626,1097.4570992,,,,,562,19,Woman,Right,
,,,,,,,,,,,,,,,,,562,19,Woman,Right,1,48,0.15,1,0,-,180,4.604648500000167,['n'],1.022868600000038,1.298,1105.8236773999997,,,,,562,19,Woman,Right,
,,,,,,,,,,,,,,,,,562,19,Woman,Right,1,73,0.15,2,0,180,180,2.2453654000000824,['n'],1.6303931000002194,1.288,1112.423655,,,,,562,19,Woman,Right,
,,,,,,,,,,,,,,,,,562,19,Woman,Right,1,25,0.4,2,0,180,180,0.9353209000000788,['y'],0.9830394000000524,1.288,1117.4237546999998,,,,,562,19,Woman,Right,
,,,,,,,,,,,,,,,,,562,19,Woman,Right,1,18,0.4,1,180,-,180,0.773475899999994,['n'],0.7909185000003163,1.682,1121.9077720999999,,,,,562,19,Woman,Right,
,,,,,,,,,,,,,,,,,562,19,Woman,Right,1,55,0.15,2,180,0,180,1.0528924000000188,['n'],0.8390493000001698,1.676,1126.3738000999997,,,,,562,19,Woman,Right,
,,,,,,,,,,,,,,,,,562,19,Woman,Right,1,74,0.15,1,180,-,0,1.0713816000002225,['n'],3.559081399999741,1.676,1134.6734526999999,,,,,562,19,Woman,Right,
,,,,,,,,,,,,,,,,,562,19,Woman,Right,1,43,0.4,2,180,0,0,0.5643457999999555,['y'],1.087105000000065,1.676,1139.1067724,,,,,562,19,Woman,Right,
,,,,,,,,,,,,,,,,,562,19,Woman,Right,1,22,0.4,1,180,-,180,0.749933599999622,['n'],5.933395200000177,1.676,1148.5899516,,,,,562,19,Woman,Right,
,,,,,,,,,,,,,,,,,562,19,Woman,Right,1,57,0.15,2,0,180,180,4.627936800000043,['n'],1.462926900000184,1.822,1158.6731792,,,,,562,19,Woman,Right,
,,,,,,,,,,,,,,,,,562,19,Woman,Right,1,15,0.4,2,180,0,180,5.470373000000109,['n'],1.0630961000001662,1.774,1169.6069007,,,,,562,19,Woman,Right,
,,,,,,,,,,,,,,,,,562,19,Woman,Right,1,59,0.15,2,180,0,0,1.7524202999998124,['n'],1.0149617999995826,1.312,1176.8067972,,,,,562,19,Woman,Right,
,,,,,,,,,,,,,,,,,562,19,Woman,Right,1,20,0.4,1,0,-,0,0.7919302000000243,['n'],0.9909665999998651,1.57,1183.5229902,,,,,562,19,Woman,Right,
,,,,,,,,,,,,,,,,,562,19,Woman,Right,1,78,0.15,1,180,-,180,1.1762594000001627,['n'],0.9587587000000894,1.3940000000000001,1190.9062405,,,,,562,19,Woman,Right,
,,,,,,,,,,,,,,,,,562,19,Woman,Right,1,79,0.15,2,180,0,0,0.3938978999999563,['n'],3.5107727999998133,1.658,1198.6061555,,,,,562,19,Woman,Right,
,,,,,,,,,,,,,,,,,562,19,Woman,Right,1,10,0.4,1,180,-,180,0.5454565999998522,['n'],3.5990575999999237,1.658,1206.7396442,,,,,562,19,Woman,Right,
,,,,,,,,,,,,,,,,,562,19,Woman,Right,1,41,0.4,2,0,180,180,0.6524349000001166,['y'],1.4391255000000456,1.6360000000000001,1213.4560828999997,,,,,562,19,Woman,Right,
,,,,,,,,,,,,,,,,,562,19,Woman,Right,1,54,0.15,1,180,-,0,0.9134480000002441,['y'],2.2388378000000557,1.3639999999999999,1225.4559387999998,,,,,562,19,Woman,Right,
,,,,,,,,,,,,,,,,,562,19,Woman,Right,1,63,0.15,2,180,0,180,1.1167941000003339,['n'],4.530531599999904,1.15,1239.3899594,,,,,562,19,Woman,Right,
,,,,,,,,,,,,,,,,,562,19,Woman,Right,1,19,0.4,2,180,0,0,1.076829699999962,['y'],1.0308696000001873,1.62,1245.6890976,,,,,562,19,Woman,Right,
,,,,,,,,,,,,,,,,,562,19,Woman,Right,1,51,0.15,2,180,0,0,1.3355047999998533,['y'],1.0467886000001272,1.62,1251.738953,,,,,562,19,Woman,Right,
,,,,,,,,,,,,,,,,,562,19,Woman,Right,1,72,0.15,1,0,-,0,2.431795200000124,['n'],0.8465744999998606,1.754,1258.9223404999998,,,,,562,19,Woman,Right,
,,,,,,,,,,,,,,,,,562,19,Woman,Right,1,5,1,2,0,180,180,2.938802200000282,['y'],1.4148956000003636,1.704,1266.8223865,,,,,562,19,Woman,Right,
,,,,,,,,,,,,,,,,,562,19,Woman,Right,1,44,0.15,1,0,-,0,4.463757599999553,['n'],2.0704350000000886,1.786,1278.7387751,,,,,562,19,Woman,Right,
,,,,,,,,,,,,,,,,,562,19,Woman,Right,1,66,0.15,1,180,-,0,1.192185000000336,['n'],0.6864454999999907,1.316,1283.8886828999998,,,,,562,19,Woman,Right,
,,,,,,,,,,,,,,,,,562,19,Woman,Right,1,71,0.15,2,180,0,0,0.5832216999997399,['y'],1.1636303999998745,1.3639999999999999,1288.3222541,,,,,562,19,Woman,Right,
,,,,,,,,,,,,,,,,,562,19,Woman,Right,1,45,0.15,2,0,180,180,0.7596785999999156,['n'],1.6469935000000078,1.3639999999999999,1292.9886685000001,,,,,562,19,Woman,Right,
,,,,,,,,,,,,,,,,,562,19,Woman,Right,1,64,0.15,1,0,-,0,3.5062041999999565,['n'],2.1109612999998717,1.198,1305.8052173,,,,,562,19,Woman,Right,
,,,,,,,,,,,,,,,,,562,19,Woman,Right,1,77,0.15,2,0,180,180,1.1038846999999805,['y'],1.5750436000002992,1.702,1311.1719165,,,,,562,19,Woman,Right,
,,,,,,,,,,,,,,,,,562,19,Woman,Right,1,62,0.15,1,180,-,180,0.40943689999994604,['n'],1.1586723999998867,1.71,1315.4884711,,,,,562,19,Woman,Right,
,,,,,,,,,,,,,,,,,562,19,Woman,Right,1,76,0.15,1,0,-,180,0.7852413000000524,['n'],1.2232033999998748,1.708,1320.0385889999998,,,,,562,19,Woman,Right,
,,,,,,,,,,,,,,,,,562,19,Woman,Right,1,21,0.4,2,0,180,180,0.6335549000000356,['y'],1.1772804000001997,1.708,1324.1549667999998,,,,,562,19,Woman,Right,
,,,,,,,,,,,,,,,,,562,19,Woman,Right,1,7,1,2,180,0,0,0.47670930000003864,['y'],1.7028998999999203,1.708,1328.7550133,,,,,562,19,Woman,Right,
,,,,,,,,,,,,,,,,,562,19,Woman,Right,1,2,1,1,180,-,180,0.5251888000002509,['n'],1.04697299999998,1.708,1332.6218863,,,,,562,19,Woman,Right,
,,,,,,,,,,,,,,,,,562,19,Woman,Right,1,31,0.4,2,180,0,0,0.4348888999998053,['y'],1.0630384000000959,1.708,1336.3882562,,,,,562,19,Woman,Right,
,,,,,,,,,,,,,,,,,562,19,Woman,Right,1,13,0.4,2,0,180,180,0.8213696000002528,['y'],0.9749451999996381,1.708,1340.3548921000001,,,,,562,19,Woman,Right,
,,,,,,,,,,,,,,,,,562,19,Woman,Right,1,30,0.4,1,180,-,180,1.1096713000001728,['n'],0.5830528000001323,1.708,1344.4718417999998,,,,,562,19,Woman,Right,
,,,,,,,,,,,,,,,,,562,19,Woman,Right,1,6,1,1,180,-,180,0.4671736000000237,['n'],0.6298014999997577,1.708,1347.8551677,,,,,562,19,Woman,Right,
,,,,,,,,,,,,,,,,,562,19,Woman,Right,1,67,0.15,2,180,0,0,0.4570074000002933,['n'],0.8709550999997191,1.708,1352.1381728000001,,,,,562,19,Woman,Right,
,,,,,,,,,,,,,,,,,562,19,Woman,Right,1,17,0.4,2,0,180,180,0.6796335999997609,['y'],0.8789191000000756,1.72,1356.3547379000001,,,,,562,19,Woman,Right,
,,,,,,,,,,,,,,,,,562,19,Woman,Right,1,12,0.4,1,0,-,0,0.31998760000033144,['n'],0.7988703999999416,1.6560000000000001,1359.7714483999998,,,,,562,19,Woman,Right,
,,,,,,,,,,,,,,,,,562,19,Woman,Right,1,69,0.15,2,0,180,180,0.9746228999997584,['y'],1.3666722000002665,1.744,1365.4546673999998,,,,,562,19,Woman,Right,
,,,,,,,,,,,,,,,,,562,19,Woman,Right,1,47,0.15,2,180,0,180,0.44293470000002344,['n'],0.9668133000000125,1.31,1369.9378988999997,,,,,562,19,Woman,Right,
,,,,,,,,,,,,,,,,,562,19,Woman,Right,1,9,0.4,2,0,180,0,0.8051682000000255,['n'],1.2390316000000894,1.31,1374.4878877,,,,,562,19,Woman,Right,
,,,,,,,,,,,,,,,,,562,19,Woman,Right,1,49,0.15,2,0,180,180,0.773226700000123,['n'],0.8788926000001993,1.31,1379.2711128,,,,,562,19,Woman,Right,
,,,,,,,,,,,,,,,,,562,19,Woman,Right,1,36,0.4,1,0,-,180,6.351845900000171,['n'],1.4470634999997856,1.252,1390.0544863,,,,,562,19,Woman,Right,
,,,,,,,,,,,,,,,,,562,19,Woman,Right,1,40,0.4,1,0,-,0,0.6729417000001376,['n'],0.935136600000078,1.256,1395.4543611,,,,,562,19,Woman,Right,
,,,,,,,,,,,,,,,,,562,19,Woman,Right,1,8,0.4,1,0,-,0,0.41806580000002214,['n'],0.7752012000000832,1.6480000000000001,1400.3377148,,,,,562,19,Woman,Right,
,,,,,,,,,,,,,,,,,562,19,Woman,Right,2,22,0.4,1,180,-,180,1.3029888000000938,['n'],0.9188451999998506,1.818,1409.8543368,76.25,75.0,62.5,,562,19,Woman,Right,
,,,,,,,,,,,,,,,,,562,19,Woman,Right,2,13,0.4,2,0,180,180,0.5936910000000353,['y'],1.1910885000002054,1.804,1415.8709358,,,,,562,19,Woman,Right,
,,,,,,,,,,,,,,,,,562,19,Woman,Right,2,48,0.15,1,0,-,0,0.6934291000002304,['n'],0.7431949000001623,1.62,1421.4709425,,,,,562,19,Woman,Right,
,,,,,,,,,,,,,,,,,562,19,Woman,Right,2,79,0.15,2,180,0,0,0.6936271999998098,['n'],1.9268951000003653,1.274,1426.9040125000001,,,,,562,19,Woman,Right,
,,,,,,,,,,,,,,,,,562,19,Woman,Right,2,42,0.4,1,180,-,180,0.2524349999998776,['n'],0.8628767999998672,1.6019999999999999,1430.9543516999997,,,,,562,19,Woman,Right,
,,,,,,,,,,,,,,,,,562,19,Woman,Right,2,56,0.15,1,0,-,0,0.30904050000026473,['n'],1.0549509000002217,1.26,1435.5882016,,,,,562,19,Woman,Right,
,,,,,,,,,,,,,,,,,562,19,Woman,Right,2,74,0.15,1,180,-,180,0.6143907999999101,['n'],1.1833796999999322,1.228,1439.7542574,,,,,562,19,Woman,Right,
,,,,,,,,,,,,,,,,,562,19,Woman,Right,2,49,0.15,2,0,180,0,0.4805650999996942,['n'],3.559191700000156,1.214,1446.2878572,,,,,562,19,Woman,Right,
,,,,,,,,,,,,,,,,,562,19,Woman,Right,2,71,0.15,2,180,0,0,0.7518110000000888,['n'],0.926802299999963,1.266,1450.7871583,,,,,562,19,Woman,Right,
,,,,,,,,,,,,,,,,,562,19,Woman,Right,2,55,0.15,2,180,0,180,0.5597882000001846,['n'],0.8068880000000718,1.218,1454.6542061999999,,,,,562,19,Woman,Right,
,,,,,,,,,,,,,,,,,562,19,Woman,Right,2,68,0.15,1,0,-,180,1.0826388999998926,['n'],1.0549753999998757,1.218,1459.3037509,,,,,562,19,Woman,Right,
,,,,,,,,,,,,,,,,,562,19,Woman,Right,2,33,0.4,2,0,180,180,0.8779381999997895,['y'],1.2312663999996403,1.218,1464.2705152999997,,,,,562,19,Woman,Right,
,,,,,,,,,,,,,,,,,562,19,Woman,Right,2,20,0.4,1,0,-,0,0.5331676000000698,['n'],0.9437109000000419,1.786,1468.4873907,,,,,562,19,Woman,Right,
,,,,,,,,,,,,,,,,,562,19,Woman,Right,2,34,0.4,1,180,-,0,1.5834423999999672,['n'],1.6229248999998163,1.244,1475.7202115,,,,,562,19,Woman,Right,
,,,,,,,,,,,,,,,,,562,19,Woman,Right,2,63,0.15,2,180,0,0,2.3417460000000574,['n'],0.7904806999999892,1.206,1482.2535438,,,,,562,19,Woman,Right,
,,,,,,,,,,,,,,,,,562,19,Woman,Right,2,50,0.15,1,180,-,0,0.4255327999999281,['n'],3.08689349999986,1.206,1489.3869535,,,,,562,19,Woman,Right,
,,,,,,,,,,,,,,,,,562,19,Woman,Right,2,66,0.15,1,180,-,0,1.554945499999576,['n'],1.7510769000000437,1.204,1496.4201168,,,,,562,19,Woman,Right,
,,,,,,,,,,,,,,,,,562,19,Woman,Right,2,28,0.4,1,0,-,0,0.9439069000000018,['n'],3.375050199999805,1.63,1505.3869111999998,,,,,562,19,Woman,Right,
,,,,,,,,,,,,,,,,,562,19,Woman,Right,2,9,0.4,2,0,180,180,0.6203285999999935,['y'],0.9668281999997816,1.63,1510.4033384999998,,,,,562,19,Woman,Right,
,,,,,,,,,,,,,,,,,562,19,Woman,Right,2,11,0.4,2,180,0,0,1.1097217000001365,['y'],0.9109575000002224,1.63,1515.7536688,,,,,562,19,Woman,Right,
,,,,,,,,,,,,,,,,,562,19,Woman,Right,2,57,0.15,2,0,180,0,1.3220238999997491,['y'],1.7428094000001693,1.6059999999999999,1522.1532088999998,,,,,562,19,Woman,Right,
,,,,,,,,,,,,,,,,,562,19,Woman,Right,2,14,0.4,1,180,-,180,1.2012939999999617,['y'],4.271035199999915,1.282,1532.2697429999998,,,,,562,19,Woman,Right,
,,,,,,,,,,,,,,,,,562,19,Woman,Right,2,21,0.4,2,0,180,180,0.42929019999974116,['y'],1.0791075999995883,1.674,1537.5198953,,,,,562,19,Woman,Right,
,,,,,,,,,,,,,,,,,562,19,Woman,Right,2,15,0.4,2,180,0,0,0.5594295000000784,['y'],1.4709386000004088,1.588,1543.3033769999997,,,,,562,19,Woman,Right,
,,,,,,,,,,,,,,,,,562,19,Woman,Right,2,12,0.4,1,0,-,0,0.5460206000002472,['y'],1.72727789999999,1.5739999999999998,1549.3529079999998,,,,,562,19,Woman,Right,
,,,,,,,,,,,,,,,,,562,19,Woman,Right,2,41,0.4,2,0,180,0,3.8282404000001407,['n'],3.7188936000002286,1.024,1561.1032857999999,,,,,562,19,Woman,Right,
,,,,,,,,,,,,,,,,,562,19,Woman,Right,2,67,0.15,2,180,0,0,6.350553200000377,['n'],1.3988647999999557,1.08,1572.9694322999999,,,,,562,19,Woman,Right,
,,,,,,,,,,,,,,,,,562,19,Woman,Right,2,7,1,2,180,0,0,1.3237939000000551,['y'],0.8468363000001773,1.734,1579.5693502999998,,,,,562,19,Woman,Right,
,,,,,,,,,,,,,,,,,562,19,Woman,Right,2,52,0.15,1,0,-,0,0.7995880000003126,['n'],1.119043099999999,1.192,1585.3193441999997,,,,,562,19,Woman,Right,
,,,,,,,,,,,,,,,,,562,19,Woman,Right,2,53,0.15,2,0,180,0,0.6332957999998143,['n'],0.9739807000000837,1.192,1589.9525144999998,,,,,562,19,Woman,Right,
,,,,,,,,,,,,,,,,,562,19,Woman,Right,2,19,0.4,2,180,0,0,1.1592503999995643,['n'],13.879312499999742,1.188,1608.9357418,,,,,562,19,Woman,Right,
,,,,,,,,,,,,,,,,,562,19,Woman,Right,2,2,1,1,180,-,180,0.727035800000067,['n'],0.8226904000002833,1.762,1614.8523615,,,,,562,19,Woman,Right,
,,,,,,,,,,,,,,,,,562,19,Woman,Right,2,61,0.15,2,0,180,0,0.8551542000000154,['n'],1.9427752999999939,1.306,1621.8023092999997,,,,,562,19,Woman,Right,
,,,,,,,,,,,,,,,,,562,19,Woman,Right,2,45,0.15,2,0,180,0,0.3703830000004018,['y'],1.222913999999946,1.262,1626.885628,,,,,562,19,Woman,Right,
,,,,,,,,,,,,,,,,,562,19,Woman,Right,2,0,1,1,0,-,0,1.965507500000058,['n'],0.9192376999999397,1.798,1633.7022078,,,,,562,19,Woman,Right,
,,,,,,,,,,,,,,,,,562,19,Woman,Right,2,69,0.15,2,0,180,180,1.597727500000019,['y'],1.7508441999998468,1.142,1641.5854998,,,,,562,19,Woman,Right,
,,,,,,,,,,,,,,,,,562,19,Woman,Right,2,18,0.4,1,180,-,180,0.4437150000003385,['n'],1.1991471999999703,1.604,1647.7687415999999,,,,,562,19,Woman,Right,
,,,,,,,,,,,,,,,,,562,19,Woman,Right,2,3,1,2,180,0,0,0.5216443999997864,['y'],0.9349965999999768,1.604,1652.6353722,,,,,562,19,Woman,Right,
,,,,,,,,,,,,,,,,,562,19,Woman,Right,2,32,0.4,1,0,-,0,0.5071402000003218,['n'],0.7909155000002102,1.604,1657.2019928,,,,,562,19,Woman,Right,
,,,,,,,,,,,,,,,,,562,19,Woman,Right,2,51,0.15,2,180,0,0,0.533885900000314,['y'],0.8950833999997485,1.604,1661.7353001000001,,,,,562,19,Woman,Right,
,,,,,,,,,,,,,,,,,562,19,Woman,Right,2,40,0.4,1,0,-,0,0.5945637999998326,['n'],0.9030726000000868,1.604,1666.4185512999998,,,,,562,19,Woman,Right,
,,,,,,,,,,,,,,,,,562,19,Woman,Right,2,62,0.15,1,180,-,180,0.7379781999998158,['y'],1.6070613000001686,1.708,1673.4684831999998,,,,,562,19,Woman,Right,
,,,,,,,,,,,,,,,,,562,19,Woman,Right,2,60,0.15,1,0,-,180,0.6465634000001046,['y'],1.086435899999742,1.396,1679.3350442,,,,,562,19,Woman,Right,
,,,,,,,,,,,,,,,,,562,19,Woman,Right,2,5,1,2,0,180,180,0.48705029999973704,['y'],1.5748200000002726,1.218,1684.9683765999998,,,,,562,19,Woman,Right,
,,,,,,,,,,,,,,,,,562,19,Woman,Right,2,47,0.15,2,180,0,0,0.6361974000001283,['y'],1.342852600000242,1.224,1691.1517804,,,,,562,19,Woman,Right,
,,,,,,,,,,,,,,,,,562,19,Woman,Right,2,29,0.4,2,0,180,180,1.4582117999998445,['y'],1.7350188000000344,1.274,1698.8017795,,,,,562,19,Woman,Right,
,,,,,,,,,,,,,,,,,562,19,Woman,Right,2,54,0.15,1,180,-,180,0.5578590999998596,['n'],2.454688900000292,1.304,1705.7182262000001,,,,,562,19,Woman,Right,
,,,,,,,,,,,,,,,,,562,19,Woman,Right,2,10,0.4,1,180,-,180,3.0333827999997993,['n'],1.4325000999997428,1.304,1714.2848233,,,,,562,19,Woman,Right,
,,,,,,,,,,,,,,,,,562,19,Woman,Right,2,59,0.15,2,180,0,180,9.600639499999943,['y'],2.438790700000027,1.188,1731.2516523,,,,,562,19,Woman,Right,
,,,,,,,,,,,,,,,,,562,19,Woman,Right,2,76,0.15,1,0,-,0,2.4503976999999395,['y'],1.670721699999831,1.296,1739.3345479999998,,,,,562,19,Woman,Right,
,,,,,,,,,,,,,,,,,562,19,Woman,Right,2,37,0.4,2,0,180,180,1.2291850999999951,['y'],1.614410399999997,1.298,1745.5514087000001,,,,,562,19,Woman,Right,
,,,,,,,,,,,,,,,,,562,19,Woman,Right,2,31,0.4,2,180,0,0,0.36814979999962816,['y'],2.9752464000002874,1.666,1752.7844448,,,,,562,19,Woman,Right,
,,,,,,,,,,,,,,,,,562,19,Woman,Right,2,30,0.4,1,180,-,180,0.7061033999998472,['n'],0.9190213000001677,1.264,1758.3510720999998,,,,,562,19,Woman,Right,
,,,,,,,,,,,,,,,,,562,19,Woman,Right,2,4,1,1,0,-,0,0.8616563000000497,['n'],1.2629057999997713,1.786,1764.9843071,,,,,562,19,Woman,Right,
,,,,,,,,,,,,,,,,,562,19,Woman,Right,2,26,0.4,1,180,-,180,0.7170451000001776,['n'],4.36284360000036,1.786,1773.650885,,,,,562,19,Woman,Right,
,,,,,,,,,,,,,,,,,562,19,Woman,Right,2,35,0.4,2,180,0,0,0.9115527999997539,['y'],1.1429361999998946,1.24,1781.0675132000001,,,,,562,19,Woman,Right,
,,,,,,,,,,,,,,,,,562,19,Woman,Right,2,58,0.15,1,180,-,0,0.8396379000000707,['y'],1.8149334999998246,1.24,1787.9008485999998,,,,,562,19,Woman,Right,
,,,,,,,,,,,,,,,,,562,19,Woman,Right,2,78,0.15,1,180,-,180,2.217198499999995,['n'],1.326946499999849,1.24,1795.0674147,,,,,562,19,Woman,Right,
,,,,,,,,,,,,,,,,,562,19,Woman,Right,2,24,0.4,1,0,-,0,0.43084010000029593,['n'],1.1274749999997766,1.688,1801.8006725999999,,,,,562,19,Woman,Right,
,,,,,,,,,,,,,,,,,562,19,Woman,Right,2,8,0.4,1,0,-,0,1.3004030000001876,['y'],1.6897031000003153,1.154,1809.7005897,,,,,562,19,Woman,Right,
,,,,,,,,,,,,,,,,,562,19,Woman,Right,2,65,0.15,2,0,180,180,4.452045200000157,['n'],2.271308300000328,1.6320000000000001,1821.5004415999997,,,,,562,19,Woman,Right,
,,,,,,,,,,,,,,,,,562,19,Woman,Right,2,25,0.4,2,0,180,180,1.954586500000005,['y'],1.61437049999995,1.19,1833.0837345999998,,,,,562,19,Woman,Right,
,,,,,,,,,,,,,,,,,562,19,Woman,Right,2,36,0.4,1,0,-,180,2.83135749999974,['n'],1.3351345000000947,1.19,1840.8505126999999,,,,,562,19,Woman,Right,
,,,,,,,,,,,,,,,,,562,19,Woman,Right,2,73,0.15,2,0,180,180,1.2428061999999045,['y'],1.030953800000134,1.19,1846.9002774,,,,,562,19,Woman,Right,
,,,,,,,,,,,,,,,,,562,19,Woman,Right,2,46,0.15,1,180,-,180,0.8116964999999254,['y'],1.6710790000001907,1.244,1854.5671478999998,,,,,562,19,Woman,Right,
,,,,,,,,,,,,,,,,,562,19,Woman,Right,2,72,0.15,1,0,-,0,0.7276279000002432,['n'],1.4233174000000872,1.188,1860.6501946999997,,,,,562,19,Woman,Right,
,,,,,,,,,,,,,,,,,562,19,Woman,Right,2,27,0.4,2,180,0,0,0.507209999999759,['n'],1.150872199999867,1.5939999999999999,1867.1833809,,,,,562,19,Woman,Right,
,,,,,,,,,,,,,,,,,562,19,Woman,Right,2,70,0.15,1,180,-,0,0.8498060000001715,['n'],3.918876100000034,1.232,1875.9166102,,,,,562,19,Woman,Right,
,,,,,,,,,,,,,,,,,562,19,Woman,Right,2,1,1,2,0,180,180,3.0099615999997695,['n'],0.44672170000012557,1.1440000000000001,1882.7668118000001,,,,,562,19,Woman,Right,
,,,,,,,,,,,,,,,,,562,19,Woman,Right,2,23,0.4,2,180,0,0,0.6557410000000345,['y'],0.559085999999752,1.702,1887.3832794,,,,,562,19,Woman,Right,
,,,,,,,,,,,,,,,,,562,19,Woman,Right,2,75,0.15,2,180,0,0,1.553356200000053,['n'],0.7587988999998743,1.568,1892.1833467000001,,,,,562,19,Woman,Right,
,,,,,,,,,,,,,,,,,562,19,Woman,Right,2,17,0.4,2,0,180,0,1.17986239999982,['n'],0.8549358000000211,1.4,1897.0166664999997,,,,,562,19,Woman,Right,
,,,,,,,,,,,,,,,,,562,19,Woman,Right,2,77,0.15,2,0,180,0,1.0592455000000882,['y'],0.9270267000001695,1.4,1901.6664385,,,,,562,19,Woman,Right,
,,,,,,,,,,,,,,,,,562,19,Woman,Right,2,39,0.4,2,180,0,0,1.3223050000001422,['y'],0.9748891999997795,1.6480000000000001,1907.4497398999997,,,,,562,19,Woman,Right,
,,,,,,,,,,,,,,,,,562,19,Woman,Right,2,64,0.15,1,0,-,180,0.7978342999999768,['y'],1.0307780000002822,1.4140000000000001,1912.1833634,,,,,562,19,Woman,Right,
,,,,,,,,,,,,,,,,,562,19,Woman,Right,2,16,0.4,1,0,-,0,1.272418099999868,['n'],0.518821100000423,1.5979999999999999,1916.7329286,,,,,562,19,Woman,Right,
,,,,,,,,,,,,,,,,,562,19,Woman,Right,2,38,0.4,1,180,-,180,1.6802504999996017,['n'],0.9266631999998935,1.596,1922.1495427,,,,,562,19,Woman,Right,
,,,,,,,,,,,,,,,,,562,19,Woman,Right,2,44,0.15,1,0,-,0,0.38317879999976867,['n'],0.7873528999998598,1.62,1926.5328377,,,,,562,19,Woman,Right,
,,,,,,,,,,,,,,,,,562,19,Woman,Right,2,43,0.4,2,180,0,0,0.6558596999998372,['y'],0.46322330000020884,1.558,1929.9995430999998,,,,,562,19,Woman,Right,
,,,,,,,,,,,,,,,,,562,19,Woman,Right,2,6,1,1,180,-,180,1.1596497999998974,['n'],1.030782000000272,1.558,1934.6328454,,,,,562,19,Woman,Right,
,,,,,,,,,,,,,,,,,562,19,Woman,Right,3,61,0.15,2,0,180,180,1.5926502000002074,['n'],0.8950501999997869,1.756,1952.7992586999999,76.25,77.5,62.5,,562,19,Woman,Right,
,,,,,,,,,,,,,,,,,562,19,Woman,Right,3,8,0.4,1,0,-,0,0.6904411000000437,['n'],0.7504794000001311,1.324,1957.3492056999999,,,,,562,19,Woman,Right,
,,,,,,,,,,,,,,,,,562,19,Woman,Right,3,69,0.15,2,0,180,180,0.5551080000000184,['y'],0.9269643999996333,1.324,1961.3658271999998,,,,,562,19,Woman,Right,
,,,,,,,,,,,,,,,,,562,19,Woman,Right,3,27,0.4,2,180,0,0,0.3845493999997416,['n'],1.7429333000000042,1.324,1966.0994194999998,,,,,562,19,Woman,Right,
,,,,,,,,,,,,,,,,,562,19,Woman,Right,3,1,1,2,0,180,180,0.6286365000000842,['y'],0.735078700000031,1.792,1970.7666408,,,,,562,19,Woman,Right,
,,,,,,,,,,,,,,,,,562,19,Woman,Right,3,24,0.4,1,0,-,0,0.7628468999996585,['n'],1.4708624999998392,1.744,1975.7829690999997,,,,,562,19,Woman,Right,
,,,,,,,,,,,,,,,,,562,19,Woman,Right,3,37,0.4,2,0,180,180,1.488255400000071,['n'],1.5427926999996089,1.744,1981.4656522,,,,,562,19,Woman,Right,
,,,,,,,,,,,,,,,,,562,19,Woman,Right,3,30,0.4,1,180,-,0,0.8568866000000526,['n'],0.35892390000026353,1.744,1985.5822990000001,,,,,562,19,Woman,Right,
,,,,,,,,,,,,,,,,,562,19,Woman,Right,3,46,0.15,1,180,-,0,0.6650625999996009,['n'],0.7428203000004032,1.744,1989.5489997999998,,,,,562,19,Woman,Right,
,,,,,,,,,,,,,,,,,562,19,Woman,Right,3,5,1,2,0,180,180,0.8728989999999612,['y'],0.6629221999996844,1.744,1993.6824513000001,,,,,562,19,Woman,Right,
,,,,,,,,,,,,,,,,,562,19,Woman,Right,3,76,0.15,1,0,-,0,0.5429693000000952,['n'],0.4873735000001034,1.736,1997.1490946,,,,,562,19,Woman,Right,
,,,,,,,,,,,,,,,,,562,19,Woman,Right,3,75,0.15,2,180,0,180,1.481768699999975,['n'],1.2552906999999323,1.736,2002.6488092,,,,,562,19,Woman,Right,
,,,,,,,,,,,,,,,,,562,19,Woman,Right,3,10,0.4,1,180,-,180,1.2864968999997473,['y'],1.7113137999999708,1.736,2008.349032,,,,,562,19,Woman,Right,
,,,,,,,,,,,,,,,,,562,19,Woman,Right,3,59,0.15,2,180,0,180,7.904761900000267,['y'],1.3831555000001572,1.772,2022.3319953,,,,,562,19,Woman,Right,
,,,,,,,,,,,,,,,,,562,19,Woman,Right,3,44,0.15,1,0,-,180,0.01655239999990954,['y'],1.0312674000001607,1.768,2025.9485433999998,,,,,562,19,Woman,Right,
,,,,,,,,,,,,,,,,,562,19,Woman,Right,3,67,0.15,2,180,0,180,1.8220729999998184,['y'],0.3908761000002414,1.28,2031.4985416,,,,,562,19,Woman,Right,
,,,,,,,,,,,,,,,,,562,19,Woman,Right,3,12,0.4,1,0,-,0,0.5170443000001796,['n'],0.560601300000144,1.722,2035.7152001999998,,,,,562,19,Woman,Right,
,,,,,,,,,,,,,,,,,562,19,Woman,Right,3,29,0.4,2,0,180,180,0.41344630000003235,['y'],0.6708575999996356,1.706,2039.2651842999999,,,,,562,19,Woman,Right,
,,,,,,,,,,,,,,,,,562,19,Woman,Right,3,28,0.4,1,0,-,0,0.12083230000007461,['n'],0.6152643000000353,1.704,2042.2820195,,,,,562,19,Woman,Right,
,,,,,,,,,,,,,,,,,562,19,Woman,Right,3,45,0.15,2,0,180,0,0.4462143999999171,['n'],0.6308446000002732,1.704,2045.8150832000001,,,,,562,19,Woman,Right,
,,,,,,,,,,,,,,,,,562,19,Woman,Right,3,66,0.15,1,180,-,0,0.8741390999998657,['n'],0.5510679999997592,1.704,2049.5317544,,,,,562,19,Woman,Right,
,,,,,,,,,,,,,,,,,562,19,Woman,Right,3,53,0.15,2,0,180,0,0.770915099999911,['n'],0.8789467000001423,1.704,2053.565054,,,,,562,19,Woman,Right,
,,,,,,,,,,,,,,,,,562,19,Woman,Right,3,17,0.4,2,0,180,180,1.545606399999997,['y'],0.734828799999832,1.704,2058.2658398999997,,,,,562,19,Woman,Right,
,,,,,,,,,,,,,,,,,562,19,Woman,Right,3,51,0.15,2,180,0,0,0.4309598999998343,['y'],0.44687999999996464,1.704,2061.4819308,,,,,562,19,Woman,Right,
,,,,,,,,,,,,,,,,,562,19,Woman,Right,3,9,0.4,2,0,180,180,0.35107030000017403,['y'],0.3987139000000752,1.704,2065.1815802,,,,,562,19,Woman,Right,
,,,,,,,,,,,,,,,,,562,19,Woman,Right,3,70,0.15,1,180,-,0,0.400294600000052,['y'],1.1661364999999932,1.704,2069.2481746999997,,,,,562,19,Woman,Right,
,,,,,,,,,,,,,,,,,562,19,Woman,Right,3,65,0.15,2,0,180,0,0.6060196999997061,['y'],2.342970200000309,1.704,2074.6314901,,,,,562,19,Woman,Right,
,,,,,,,,,,,,,,,,,562,19,Woman,Right,3,38,0.4,1,180,-,180,0.9364458000000013,['n'],0.7430336000002171,1.704,2081.7989887,,,,,562,19,Woman,Right,
,,,,,,,,,,,,,,,,,562,19,Woman,Right,3,35,0.4,2,180,0,0,0.8716380000000754,['n'],0.7112769999994271,1.704,2085.8315462,,,,,562,19,Woman,Right,
,,,,,,,,,,,,,,,,,562,19,Woman,Right,3,4,1,1,0,-,0,0.5075772999998662,['n'],4.839002499999879,1.708,2093.4980136000004,,,,,562,19,Woman,Right,
,,,,,,,,,,,,,,,,,562,19,Woman,Right,3,63,0.15,2,180,0,0,1.0399406999995335,['y'],0.9030541000001904,1.708,2097.7646674,,,,,562,19,Woman,Right,
,,,,,,,,,,,,,,,,,562,19,Woman,Right,3,43,0.4,2,180,0,0,0.6617102000000159,['y'],1.8233575999993263,1.708,2102.5146077,,,,,562,19,Woman,Right,
,,,,,,,,,,,,,,,,,562,19,Woman,Right,3,25,0.4,2,0,180,180,1.383173799999895,['y'],0.7731939999994211,1.708,2107.0979494000003,,,,,562,19,Woman,Right,
,,,,,,,,,,,,,,,,,562,19,Woman,Right,3,58,0.15,1,180,-,0,3.8708058000001984,['y'],0.8870961000002353,1.708,2114.2314304,,,,,562,19,Woman,Right,
,,,,,,,,,,,,,,,,,562,19,Woman,Right,3,21,0.4,2,0,180,180,0.8473426999998992,['y'],0.3512177000002339,1.708,2117.8478095,,,,,562,19,Woman,Right,
,,,,,,,,,,,,,,,,,562,19,Woman,Right,3,11,0.4,2,180,0,180,2.4329563999999664,['n'],11.118907400000353,1.708,2133.7809399,,,,,562,19,Woman,Right,
,,,,,,,,,,,,,,,,,562,19,Woman,Right,3,15,0.4,2,180,0,0,0.5567019000000073,['y'],0.4865432000005967,1.708,2137.4312164000003,,,,,562,19,Woman,Right,
,,,,,,,,,,,,,,,,,562,19,Woman,Right,3,6,1,1,180,-,180,0.409477500000321,['n'],0.4869013999996241,1.708,2140.7309099000004,,,,,562,19,Woman,Right,
,,,,,,,,,,,,,,,,,562,19,Woman,Right,3,23,0.4,2,180,0,0,0.895090899999559,['y'],0.4149108999999953,1.708,2144.3475056999996,,,,,562,19,Woman,Right,
,,,,,,,,,,,,,,,,,562,19,Woman,Right,3,48,0.15,1,0,-,0,2.2217718000001696,['y'],0.6951559999997698,1.708,2149.7309145,,,,,562,19,Woman,Right,
,,,,,,,,,,,,,,,,,562,19,Woman,Right,3,16,0.4,1,0,-,0,0.5257738000000245,['n'],0.7912421000000904,1.708,2153.4980103999997,,,,,562,19,Woman,Right,
,,,,,,,,,,,,,,,,,562,19,Woman,Right,3,0,1,1,0,-,0,0.4006600000002436,['n'],1.2071277000004557,1.708,2157.6811017,,,,,562,19,Woman,Right,
,,,,,,,,,,,,,,,,,562,19,Woman,Right,3,13,0.4,2,0,180,180,2.3225266999997984,['y'],1.1428881000001638,1.708,2164.6474695999996,,,,,562,19,Woman,Right,
,,,,,,,,,,,,,,,,,562,19,Woman,Right,3,2,1,1,180,-,180,0.43210999999973865,['y'],1.062872200000129,1.708,2168.8640122999996,,,,,562,19,Woman,Right,
,,,,,,,,,,,,,,,,,562,19,Woman,Right,3,55,0.15,2,180,0,0,0.5600178999993659,['n'],0.8469162999999753,1.708,2173.4139698,,,,,562,19,Woman,Right,
,,,,,,,,,,,,,,,,,562,19,Woman,Right,3,41,0.4,2,0,180,180,0.5937515000005078,['y'],0.6548606999995172,1.708,2178.9306962,,,,,562,19,Woman,Right,
,,,,,,,,,,,,,,,,,562,19,Woman,Right,3,60,0.15,1,0,-,180,0.5312194000007366,['y'],0.7029536000000007,1.708,2182.8305503,,,,,562,19,Woman,Right,
,,,,,,,,,,,,,,,,,562,19,Woman,Right,3,20,0.4,1,0,-,180,0.6675826000000598,['n'],0.959560700000111,1.172,2188.3971221,,,,,562,19,Woman,Right,
,,,,,,,,,,,,,,,,,562,19,Woman,Right,3,57,0.15,2,0,180,180,1.0793436000003567,['n'],0.7188739000002897,1.172,2192.6807086999997,,,,,562,19,Woman,Right,
,,,,,,,,,,,,,,,,,562,19,Woman,Right,3,56,0.15,1,0,-,180,0.31902329999957146,['n'],1.53484970000045,1.172,2197.447478,,,,,562,19,Woman,Right,
,,,,,,,,,,,,,,,,,562,19,Woman,Right,3,19,0.4,2,180,0,180,0.3727149999995163,['y'],2.8631138999999166,1.172,2203.8636709,,,,,562,19,Woman,Right,
,,,,,,,,,,,,,,,,,562,19,Woman,Right,3,74,0.15,1,180,-,0,0.8162978000000294,['n'],0.6948978999998872,1.172,2207.7803437000002,,,,,562,19,Woman,Right,
,,,,,,,,,,,,,,,,,562,19,Woman,Right,3,50,0.15,1,180,-,0,1.0603359000006094,['n'],1.3589894999995522,1.172,2212.5635326,,,,,562,19,Woman,Right,
,,,,,,,,,,,,,,,,,562,19,Woman,Right,3,52,0.15,1,0,-,0,0.7958609999996042,['n'],0.5989697000004526,1.172,2216.2635528,,,,,562,19,Woman,Right,
,,,,,,,,,,,,,,,,,562,19,Woman,Right,3,54,0.15,1,180,-,180,0.03179409999938798,['n'],1.7913204999995287,1.172,2220.4301678,,,,,562,19,Woman,Right,
,,,,,,,,,,,,,,,,,562,19,Woman,Right,3,71,0.15,2,180,0,180,0.7287712999996074,['n'],1.0307711999994353,1.186,2224.9968378000003,,,,,562,19,Woman,Right,
,,,,,,,,,,,,,,,,,562,19,Woman,Right,3,78,0.15,1,180,-,0,0.09994469999946887,['n'],1.4378872000006595,1.186,2228.9801509999998,,,,,562,19,Woman,Right,
,,,,,,,,,,,,,,,,,562,19,Woman,Right,3,64,0.15,1,0,-,180,0.068447799999376,['n'],0.5270434999993086,1.186,2232.013428,,,,,562,19,Woman,Right,
,,,,,,,,,,,,,,,,,562,19,Woman,Right,3,31,0.4,2,180,0,0,0.16587389999949664,['n'],0.4791040999998586,1.186,2232.013428,,,,,562,19,Woman,Right,
,,,,,,,,,,,,,,,,,562,19,Woman,Right,3,62,0.15,1,180,-,0,0.01678360000005341,['y'],0.07228870000017196,1.186,2237.5800996999997,,,,,562,19,Woman,Right,
,,,,,,,,,,,,,,,,,562,19,Woman,Right,3,68,0.15,1,0,-,180,0.05916220000017347,['y'],0.7110243999995873,1.186,2240.6633605999996,,,,,562,19,Woman,Right,
,,,,,,,,,,,,,,,,,562,19,Woman,Right,3,14,0.4,1,180,-,180,0.8220761999991737,['n'],0.4948614999993879,1.186,2245.3466307,,,,,562,19,Woman,Right,
,,,,,,,,,,,,,,,,,562,19,Woman,Right,3,73,0.15,2,0,180,180,3.3332046000004993,['y'],0.43008430000008957,1.186,2252.0467147,,,,,562,19,Woman,Right,
,,,,,,,,,,,,,,,,,562,19,Woman,Right,3,49,0.15,2,0,180,180,0.6732987999994293,['y'],1.143197300000793,1.186,2256.2800993,,,,,562,19,Woman,Right,
,,,,,,,,,,,,,,,,,562,19,Woman,Right,3,77,0.15,2,0,180,0,1.2639870000002702,['y'],1.022942999999941,1.186,2260.9631627999997,,,,,562,19,Woman,Right,
,,,,,,,,,,,,,,,,,562,19,Woman,Right,3,33,0.4,2,0,180,180,0.5987646000003224,['y'],0.9109017000000676,1.186,2264.8967531999997,,,,,562,19,Woman,Right,
,,,,,,,,,,,,,,,,,562,19,Woman,Right,3,18,0.4,1,180,-,180,0.8025625000000218,['n'],0.6710255999996662,1.186,2269.4630887000003,,,,,562,19,Woman,Right,
,,,,,,,,,,,,,,,,,562,19,Woman,Right,3,40,0.4,1,0,-,180,0.11160670000026585,['n'],1.0150417999993806,1.186,2273.3796921000003,,,,,562,19,Woman,Right,
,,,,,,,,,,,,,,,,,562,19,Woman,Right,3,36,0.4,1,0,-,0,0.11030910000044969,['n'],0.9991823000000295,1.186,2276.7463910999995,,,,,562,19,Woman,Right,
,,,,,,,,,,,,,,,,,562,19,Woman,Right,3,72,0.15,1,0,-,180,0.31502009999985603,['n'],1.2552343999996083,1.186,2280.679717,,,,,562,19,Woman,Right,
,,,,,,,,,,,,,,,,,562,19,Woman,Right,3,7,1,2,180,0,0,0.3436511999998402,['y'],0.6710384999996677,1.6600000000000001,2284.7129837,,,,,562,19,Woman,Right,
,,,,,,,,,,,,,,,,,562,19,Woman,Right,3,3,1,2,180,0,0,0.4777399999993577,['y'],0.9669060000005629,1.658,2288.5297812999997,,,,,562,19,Woman,Right,
,,,,,,,,,,,,,,,,,562,19,Woman,Right,3,26,0.4,1,180,-,180,0.6618791999999303,['n'],0.5270045000006576,1.658,2292.1464880000003,,,,,562,19,Woman,Right,
,,,,,,,,,,,,,,,,,562,19,Woman,Right,3,22,0.4,1,180,-,180,1.4518341000002692,['n'],0.5667548999999781,1.658,2296.7461021999998,,,,,562,19,Woman,Right,
,,,,,,,,,,,,,,,,,562,19,Woman,Right,3,47,0.15,2,180,0,180,1.4779499999995096,['n'],1.0232161000003543,1.658,2301.6795708,,,,,562,19,Woman,Right,
,,,,,,,,,,,,,,,,,562,19,Woman,Right,3,79,0.15,2,180,0,180,1.175825899999836,['n'],0.8153353999996398,1.1099999999999999,2306.4461748000003,,,,,562,19,Woman,Right,
,,,,,,,,,,,,,,,,,562,19,Woman,Right,3,39,0.4,2,180,0,0,0.7426749999995081,['y'],0.7109153999999762,1.16,2310.5793771,,,,,562,19,Woman,Right,
,,,,,,,,,,,,,,,,,562,19,Woman,Right,3,32,0.4,1,0,-,0,0.35054110000055516,['n'],0.5269413000005443,1.16,2314.0125989,,,,,562,19,Woman,Right,
,,,,,,,,,,,,,,,,,562,19,Woman,Right,3,42,0.4,1,180,-,180,0.14918310000030033,['n'],0.5109164000004967,1.16,2316.9293184,,,,,562,19,Woman,Right,
,,,,,,,,,,,,,,,,,562,19,Woman,Right,3,34,0.4,1,180,-,180,0.3279578000001493,['n'],0.5749775000003865,1.16,2320.1291795999996,,,,,562,19,Woman,Right,
,,,,,,,,,,,,,,,,,562,19,Woman,Right,4,34,0.4,1,180,-,180,0.5856440999996266,['n'],0.5589939000001323,1.16,2325.8624698000003,63.75,77.5,65.0,,562,19,Woman,Right,
,,,,,,,,,,,,,,,,,562,19,Woman,Right,4,3,1,2,180,0,180,0.17656170000009297,['y'],1.0549102000004495,1.16,2329.4292141999995,,,,,562,19,Woman,Right,
,,,,,,,,,,,,,,,,,562,19,Woman,Right,4,38,0.4,1,180,-,180,0.390192300000308,['n'],0.9189278000003469,1.054,2333.945812,,,,,562,19,Woman,Right,
,,,,,,,,,,,,,,,,,562,19,Woman,Right,4,43,0.4,2,180,0,180,3.262089900000319,['n'],4.727122500000405,1.092,2346.61247,,,,,562,19,Woman,Right,
,,,,,,,,,,,,,,,,,562,19,Woman,Right,4,64,0.15,1,0,-,0,0.8060707000004186,['n'],0.5027901000003112,1.092,2346.61247,,,,,562,19,Woman,Right,
,,,,,,,,,,,,,,,,,562,19,Woman,Right,4,9,0.4,2,0,180,180,0.6017148999999336,['y'],0.5994211999995969,1.174,2354.6791378999997,,,,,562,19,Woman,Right,
,,,,,,,,,,,,,,,,,562,19,Woman,Right,4,19,0.4,2,180,0,0,0.5885132000003068,['y'],2.2627339999999094,1.172,2359.8458634999997,,,,,562,19,Woman,Right,
,,,,,,,,,,,,,,,,,562,19,Woman,Right,4,67,0.15,2,180,0,0,1.5898151999999754,['y'],1.0629005999999208,1.164,2364.7790827,,,,,562,19,Woman,Right,
,,,,,,,,,,,,,,,,,562,19,Woman,Right,4,63,0.15,2,180,0,180,2.6063813000000664,['y'],0.5108639000000039,1.238,2370.3955699999997,,,,,562,19,Woman,Right,
,,,,,,,,,,,,,,,,,562,19,Woman,Right,4,24,0.4,1,0,-,0,0.6751395000001139,['n'],1.3347903999992923,1.262,2374.8121212999995,,,,,562,19,Woman,Right,
,,,,,,,,,,,,,,,,,562,19,Woman,Right,4,55,0.15,2,180,0,0,0.5419891999999891,['n'],0.7348345000000336,1.27,2379.1120609,,,,,562,19,Woman,Right,
,,,,,,,,,,,,,,,,,562,19,Woman,Right,4,52,0.15,1,0,-,0,0.2404977999995026,['n'],0.8068254999998317,1.27,2382.6299215999998,,,,,562,19,Woman,Right,
,,,,,,,,,,,,,,,,,562,19,Woman,Right,4,48,0.15,1,0,-,0,0.01677209999979823,['n'],1.1733014000001276,1.27,2386.2953896999998,,,,,562,19,Woman,Right,
,,,,,,,,,,,,,,,,,562,19,Woman,Right,4,31,0.4,2,180,0,180,0.3265626999991582,['n'],0.4222791000001962,1.27,2389.9451940999998,,,,,562,19,Woman,Right,
,,,,,,,,,,,,,,,,,562,19,Woman,Right,4,60,0.15,1,0,-,180,0.943958400000156,['n'],0.5109153000003062,1.27,2393.8621015999997,,,,,562,19,Woman,Right,
,,,,,,,,,,,,,,,,,562,19,Woman,Right,4,53,0.15,2,0,180,180,0.8885737999999037,['n'],0.24689589999979944,1.27,2397.8618890999996,,,,,562,19,Woman,Right,
,,,,,,,,,,,,,,,,,562,19,Woman,Right,4,74,0.15,1,180,-,180,0.580133599999499,['n'],0.2708976000003531,1.27,2402.5618594,,,,,562,19,Woman,Right,
,,,,,,,,,,,,,,,,,562,19,Woman,Right,4,46,0.15,1,180,-,180,0.3422302999997555,['n'],0.8389447999998083,1.27,2406.6617912,,,,,562,19,Woman,Right,
,,,,,,,,,,,,,,,,,562,19,Woman,Right,4,78,0.15,1,180,-,180,0.5941745999998602,['n'],0.3029801000002408,1.27,2410.1950799999995,,,,,562,19,Woman,Right,
,,,,,,,,,,,,,,,,,562,19,Woman,Right,4,70,0.15,1,180,-,180,0.49322790000042005,['n'],0.3826110999998491,1.27,2413.9283604,,,,,562,19,Woman,Right,
,,,,,,,,,,,,,,,,,562,19,Woman,Right,4,4,1,1,0,-,0,0.7807512999997925,['n'],1.150930800000424,1.728,2419.1950776000003,,,,,562,19,Woman,Right,
,,,,,,,,,,,,,,,,,562,19,Woman,Right,4,2,1,1,180,-,180,0.4962593999998717,['n'],1.1272651999997834,1.726,2423.0449272999995,,,,,562,19,Woman,Right,
,,,,,,,,,,,,,,,,,562,19,Woman,Right,4,5,1,2,0,180,180,0.7663468000000648,['y'],0.6229169999996884,1.726,2426.6284629,,,,,562,19,Woman,Right,
,,,,,,,,,,,,,,,,,562,19,Woman,Right,4,45,0.15,2,0,180,180,0.9920930999996926,['n'],0.8385197000006883,1.1560000000000001,2431.1782882999996,,,,,562,19,Woman,Right,
,,,,,,,,,,,,,,,,,562,19,Woman,Right,4,50,0.15,1,180,-,180,1.0012380999996822,['n'],1.0628783000001931,1.1560000000000001,2436.1281280000003,,,,,562,19,Woman,Right,
,,,,,,,,,,,,,,,,,562,19,Woman,Right,4,36,0.4,1,0,-,180,0.488928599999781,['y'],1.8310696999997162,1.158,2440.9615175,,,,,562,19,Woman,Right,
,,,,,,,,,,,,,,,,,562,19,Woman,Right,4,12,0.4,1,0,-,0,0.4603706999996575,['n'],0.6465612000001784,1.896,2444.8614805999996,,,,,562,19,Woman,Right,
,,,,,,,,,,,,,,,,,562,19,Woman,Right,4,71,0.15,2,180,0,180,1.0598448999999164,['n'],1.0148718000000372,1.138,2449.2615957999997,,,,,562,19,Woman,Right,
,,,,,,,,,,,,,,,,,562,19,Woman,Right,4,16,0.4,1,0,-,180,0.8711923999999271,['n'],0.2148603000005096,1.138,2452.7781185000003,,,,,562,19,Woman,Right,
,,,,,,,,,,,,,,,,,562,19,Woman,Right,4,49,0.15,2,0,180,180,0.45782689999941795,['n'],1.7589081000005535,1.138,2458.1612439,,,,,562,19,Woman,Right,
,,,,,,,,,,,,,,,,,562,19,Woman,Right,4,26,0.4,1,180,-,180,0.7492906999996194,['n'],0.3989611999995759,1.776,2462.2279798,,,,,562,19,Woman,Right,
,,,,,,,,,,,,,,,,,562,19,Woman,Right,4,10,0.4,1,180,-,180,0.44539979999990464,['n'],0.5910789999998087,1.776,2465.6946534999997,,,,,562,19,Woman,Right,
,,,,,,,,,,,,,,,,,562,19,Woman,Right,4,72,0.15,1,0,-,180,0.7000946000007389,['n'],1.421669700000166,1.05,2470.4614542,,,,,562,19,Woman,Right,
,,,,,,,,,,,,,,,,,562,19,Woman,Right,4,68,0.15,1,0,-,0,0.7068513000003804,['n'],1.1028698999998596,1.256,2475.7278353,,,,,562,19,Woman,Right,
,,,,,,,,,,,,,,,,,562,19,Woman,Right,4,17,0.4,2,0,180,180,1.1508319000004121,['y'],0.6232517000007647,1.256,2480.1113453999997,,,,,562,19,Woman,Right,
,,,,,,,,,,,,,,,,,562,19,Woman,Right,4,41,0.4,2,0,180,180,0.6022013000001607,['y'],0.7271749999999884,1.256,2483.8287474,,,,,562,19,Woman,Right,
,,,,,,,,,,,,,,,,,562,19,Woman,Right,4,51,0.15,2,180,0,180,0.3671856000000844,['y'],0.3666846000005535,1.256,2487.0444645999996,,,,,562,19,Woman,Right,
,,,,,,,,,,,,,,,,,562,19,Woman,Right,4,8,0.4,1,0,-,0,0.759598300000107,['n'],0.8708436999995683,1.256,2491.1786905,,,,,562,19,Woman,Right,
,,,,,,,,,,,,,,,,,562,19,Woman,Right,4,32,0.4,1,0,-,0,0.5017272000004596,['n'],0.75908999999956,1.256,2494.8279119,,,,,562,19,Woman,Right,
,,,,,,,,,,,,,,,,,562,19,Woman,Right,4,30,0.4,1,180,-,180,0.6837171999995917,['n'],0.37520860000040557,1.256,2498.2610404999996,,,,,562,19,Woman,Right,
,,,,,,,,,,,,,,,,,562,19,Woman,Right,4,44,0.15,1,0,-,180,0.5170310000003155,['n'],0.3828791000005367,1.256,2501.9611628000002,,,,,562,19,Woman,Right,
,,,,,,,,,,,,,,,,,562,19,Woman,Right,4,15,0.4,2,180,0,180,0.6672208999998475,['n'],0.47101220000058674,1.256,2505.5277649,,,,,562,19,Woman,Right,
,,,,,,,,,,,,,,,,,562,19,Woman,Right,4,62,0.15,1,180,-,180,0.16536989999985963,['n'],0.8310519000006025,1.26,2509.4277703999996,,,,,562,19,Woman,Right,
,,,,,,,,,,,,,,,,,562,19,Woman,Right,4,6,1,1,180,-,180,0.5193807000005108,['n'],0.46327540000038425,1.28,2514.2940489000002,,,,,562,19,Woman,Right,
,,,,,,,,,,,,,,,,,562,19,Woman,Right,4,29,0.4,2,0,180,180,3.3778071000006094,['n'],0.4552675000004456,1.284,2520.5606925,,,,,562,19,Woman,Right,
,,,,,,,,,,,,,,,,,562,19,Woman,Right,4,69,0.15,2,0,180,180,1.4311722000002192,['n'],1.0073081000000457,1.284,2525.3278865,,,,,562,19,Woman,Right,
,,,,,,,,,,,,,,,,,562,19,Woman,Right,4,40,0.4,1,0,-,0,0.40011479999975563,['n'],0.45696349999980157,1.6440000000000001,2529.4107076,,,,,562,19,Woman,Right,
,,,,,,,,,,,,,,,,,562,19,Woman,Right,4,7,1,2,180,0,0,0.6714267999996082,['y'],0.42300389999945764,1.6440000000000001,2532.7605942,,,,,562,19,Woman,Right,
,,,,,,,,,,,,,,,,,562,19,Woman,Right,4,13,0.4,2,0,180,180,0.7338333999996394,['n'],0.6869378000001234,1.6440000000000001,2536.7775243999995,,,,,562,19,Woman,Right,
,,,,,,,,,,,,,,,,,562,19,Woman,Right,4,14,0.4,1,180,-,180,0.4993712000004962,['n'],1.3189869999996517,1.6440000000000001,2541.14401,,,,,562,19,Woman,Right,
,,,,,,,,,,,,,,,,,562,19,Woman,Right,4,79,0.15,2,180,0,0,0.35133200000018405,['y'],0.6789607000000615,1.6440000000000001,2544.4781323999996,,,,,562,19,Woman,Right,
,,,,,,,,,,,,,,,,,562,19,Woman,Right,4,66,0.15,1,180,-,180,0.8988132999993468,['n'],0.6630776000001788,1.038,2548.3772244,,,,,562,19,Woman,Right,
,,,,,,,,,,,,,,,,,562,19,Woman,Right,4,0,1,1,0,-,0,0.5299527999995917,['n'],0.5110998999998628,1.686,2553.0938292,,,,,562,19,Woman,Right,
,,,,,,,,,,,,,,,,,562,19,Woman,Right,4,73,0.15,2,0,180,180,0.6734327000003759,['n'],0.8712250999997195,1.092,2557.72753,,,,,562,19,Woman,Right,
,,,,,,,,,,,,,,,,,562,19,Woman,Right,4,77,0.15,2,0,180,180,0.7495992999993177,['y'],0.5905555999997887,1.7,2561.4773094,,,,,562,19,Woman,Right,
,,,,,,,,,,,,,,,,,562,19,Woman,Right,4,57,0.15,2,0,180,180,0.7201684999999998,['n'],0.5672522999993816,1.0979999999999999,2565.0939025999996,,,,,562,19,Woman,Right,
,,,,,,,,,,,,,,,,,562,19,Woman,Right,4,37,0.4,2,0,180,180,0.5723502999999255,['y'],1.1429105999995954,1.78,2569.4603973000003,,,,,562,19,Woman,Right,
,,,,,,,,,,,,,,,,,562,19,Woman,Right,4,56,0.15,1,0,-,180,0.42363010000008217,['n'],0.6230630000000019,1.17,2573.0946959000003,,,,,562,19,Woman,Right,
,,,,,,,,,,,,,,,,,562,19,Woman,Right,4,28,0.4,1,0,-,0,0.48499600000013743,['n'],0.678962899999533,1.174,2577.1114648000002,,,,,562,19,Woman,Right,
,,,,,,,,,,,,,,,,,562,19,Woman,Right,4,27,0.4,2,180,0,180,0.4684853999997358,['n'],0.44708059999993566,1.176,2580.410336,,,,,562,19,Woman,Right,
,,,,,,,,,,,,,,,,,562,19,Woman,Right,4,75,0.15,2,180,0,180,0.9457026999998561,['n'],0.5432584000000134,1.176,2584.1768062,,,,,562,19,Woman,Right,
,,,,,,,,,,,,,,,,,562,19,Woman,Right,4,54,0.15,1,180,-,180,0.7998135999996521,['n'],0.3408558000000994,1.176,2587.6601660999995,,,,,562,19,Woman,Right,
,,,,,,,,,,,,,,,,,562,19,Woman,Right,4,76,0.15,1,0,-,0,0.3878480000003037,['n'],1.3111843000006047,1.802,2593.1438230000003,,,,,562,19,Woman,Right,
,,,,,,,,,,,,,,,,,562,19,Woman,Right,4,20,0.4,1,0,-,0,0.3244862000001376,['n'],0.31083790000047884,1.802,2595.9434855,,,,,562,19,Woman,Right,
,,,,,,,,,,,,,,,,,562,19,Woman,Right,4,59,0.15,2,180,0,180,0.7118011000002298,['n'],0.9989955999999438,1.23,2600.5434944999997,,,,,562,19,Woman,Right,
,,,,,,,,,,,,,,,,,562,19,Woman,Right,4,23,0.4,2,180,0,0,0.7559406999998828,['y'],0.6309063999997306,1.748,2604.3600035,,,,,562,19,Woman,Right,
,,,,,,,,,,,,,,,,,562,19,Woman,Right,4,25,0.4,2,0,180,180,1.1164840000001277,['n'],0.5829898000001776,1.282,2608.49334,,,,,562,19,Woman,Right,
,,,,,,,,,,,,,,,,,562,19,Woman,Right,4,39,0.4,2,180,0,180,1.6233358999998018,['n'],0.9750260000000708,1.282,2613.4435458999997,,,,,562,19,Woman,Right,
,,,,,,,,,,,,,,,,,562,19,Woman,Right,4,11,0.4,2,180,0,0,0.5620445000004111,['y'],1.4710322999999335,1.274,2618.4598940999995,,,,,562,19,Woman,Right,
,,,,,,,,,,,,,,,,,562,19,Woman,Right,4,22,0.4,1,180,-,180,0.6614971999997579,['y'],0.6710587999996278,1.274,2622.1266067999995,,,,,562,19,Woman,Right,
,,,,,,,,,,,,,,,,,562,19,Woman,Right,4,35,0.4,2,180,0,180,0.5628858999998556,['n'],2.1110542000005807,1.274,2627.3265284999998,,,,,562,19,Woman,Right,
,,,,,,,,,,,,,,,,,562,19,Woman,Right,4,21,0.4,2,0,180,180,1.1769756000003326,['n'],2.2868149999994785,1.274,2633.1773114999996,,,,,562,19,Woman,Right,
,,,,,,,,,,,,,,,,,562,19,Woman,Right,4,33,0.4,2,0,180,180,2.984387699999388,['n'],0.3588789999994333,1.268,2638.6597473,,,,,562,19,Woman,Right,
,,,,,,,,,,,,,,,,,562,19,Woman,Right,4,65,0.15,2,0,180,180,0.7401808999993591,['n'],0.535433600000033,1.268,2642.6100134999997,,,,,562,19,Woman,Right,
,,,,,,,,,,,,,,,,,562,19,Woman,Right,4,61,0.15,2,0,180,180,0.01671170000008715,['y'],0.3510007000004407,1.268,2645.2430400000003,,,,,562,19,Woman,Right,
,,,,,,,,,,,,,,,,,562,19,Woman,Right,4,42,0.4,1,180,-,180,0.6333514999996623,['n'],0.2776766000006319,1.268,2648.6599127,,,,,562,19,Woman,Right,
,,,,,,,,,,,,,,,,,562,19,Woman,Right,4,58,0.15,1,180,-,180,0.22042080000028363,['n'],0.5592471999998452,1.268,2651.8605586000003,,,,,562,19,Woman,Right,
,,,,,,,,,,,,,,,,,562,19,Woman,Right,4,1,1,2,0,180,180,0.751831100000345,['y'],0.9833817999997336,1.268,2655.9596985,,,,,562,19,Woman,Right,
,,,,,,,,,,,,,,,,,562,19,Woman,Right,4,47,0.15,2,180,0,180,0.34661659999983385,['n'],0.326884400000381,1.268,2659.3596848999996,,,,,562,19,Woman,Right,
,,,,,,,,,,,,,,,,,562,19,Woman,Right,4,18,0.4,1,180,-,180,0.5926474999996572,['n'],0.3985776999998052,1.272,2662.8928656999997,,,,,562,19,Woman,Right,
,,,,,,,,,,,,,,,,,562,19,Woman,Right,5,16,0.4,1,0,-,180,0.8837568999997529,['n'],0.09468699999979435,1.322,2669.0096808,76.25,95.0,42.5,,562,19,Woman,Right,
,,,,,,,,,,,,,,,,,562,19,Woman,Right,5,27,0.4,2,180,0,180,1.0032732999998188,['n'],0.6789184999997815,1.254,2673.3926834000004,,,,,562,19,Woman,Right,
,,,,,,,,,,,,,,,,,562,19,Woman,Right,5,18,0.4,1,180,-,180,0.31402930000058404,['n'],0.31110110000008717,1.272,2676.5429146999995,,,,,562,19,Woman,Right,
,,,,,,,,,,,,,,,,,562,19,Woman,Right,5,58,0.15,1,180,-,180,0.5385589000006803,['n'],0.5588405999997121,1.274,2680.1935413,,,,,562,19,Woman,Right,
,,,,,,,,,,,,,,,,,562,19,Woman,Right,5,48,0.15,1,0,-,0,0.8081547000001592,['n'],3.1588628999998036,1.274,2686.6095136000004,,,,,562,19,Woman,Right,
,,,,,,,,,,,,,,,,,562,19,Woman,Right,5,13,0.4,2,0,180,180,0.7635331999999835,['y'],2.43069960000048,1.254,2692.6761951999997,,,,,562,19,Woman,Right,
,,,,,,,,,,,,,,,,,562,19,Woman,Right,5,68,0.15,1,0,-,0,0.19894199999998818,['y'],0.4709023999994315,1.254,2695.5594436,,,,,562,19,Woman,Right,
,,,,,,,,,,,,,,,,,562,19,Woman,Right,5,23,0.4,2,180,0,180,0.30404640000051586,['n'],0.37530879999940225,1.254,2698.4425721999996,,,,,562,19,Woman,Right,
,,,,,,,,,,,,,,,,,562,19,Woman,Right,5,64,0.15,1,0,-,180,0.4481500000001688,['y'],0.42305430000033084,1.254,2701.8757826,,,,,562,19,Woman,Right,
,,,,,,,,,,,,,,,,,562,19,Woman,Right,5,75,0.15,2,180,0,180,0.016773600000306033,['y'],0.3429505000003701,1.254,2701.8757826,,,,,562,19,Woman,Right,
,,,,,,,,,,,,,,,,,562,19,Woman,Right,5,54,0.15,1,180,-,180,0.01670620000004419,['n'],0.32391830000051414,1.254,2707.8090739,,,,,562,19,Woman,Right,
,,,,,,,,,,,,,,,,,562,19,Woman,Right,5,4,1,1,0,-,0,1.1424372999999832,['y'],0.5271651000002748,1.254,2712.0592965999995,,,,,562,19,Woman,Right,
,,,,,,,,,,,,,,,,,562,19,Woman,Right,5,10,0.4,1,180,-,180,0.2693801999994321,['n'],1.631052599999748,1.254,2716.3257093,,,,,562,19,Woman,Right,
,,,,,,,,,,,,,,,,,562,19,Woman,Right,5,67,0.15,2,180,0,180,0.21904629999971803,['n'],0.39085810000051424,1.254,2719.0589142999997,,,,,562,19,Woman,Right,
,,,,,,,,,,,,,,,,,562,19,Woman,Right,5,73,0.15,2,0,180,180,0.5371177000006355,['y'],0.3751095000006899,1.254,2722.2756846,,,,,562,19,Woman,Right,
,,,,,,,,,,,,,,,,,562,19,Woman,Right,5,17,0.4,2,0,180,180,0.3637682999997196,['y'],1.231081500000073,1.254,2726.1422374000003,,,,,562,19,Woman,Right,
,,,,,,,,,,,,,,,,,562,19,Woman,Right,5,19,0.4,2,180,0,0,0.08331790000011097,['n'],1.2478799999998955,1.254,2729.9426467000003,,,,,562,19,Woman,Right,
,,,,,,,,,,,,,,,,,562,19,Woman,Right,5,7,1,2,180,0,0,0.5491804000002958,['y'],0.702795000000151,1.254,2733.3761183999995,,,,,562,19,Woman,Right,
,,,,,,,,,,,,,,,,,562,19,Woman,Right,5,24,0.4,1,0,-,180,0.43041009999978996,['y'],0.4948100000001432,1.254,2737.0921718,,,,,562,19,Woman,Right,
,,,,,,,,,,,,,,,,,562,19,Woman,Right,5,78,0.15,1,180,-,180,0.01667489999999816,['y'],0.36283409999941796,1.254,2739.7590100999996,,,,,562,19,Woman,Right,
,,,,,,,,,,,,,,,,,562,19,Woman,Right,5,1,1,2,0,180,180,0.33054119999997056,['y'],0.2633124999993015,1.638,2743.0253795999997,,,,,562,19,Woman,Right,
,,,,,,,,,,,,,,,,,562,19,Woman,Right,5,29,0.4,2,0,180,180,0.016725899999983085,['y'],0.6863475999998627,1.3439999999999999,2746.1753932,,,,,562,19,Woman,Right,
,,,,,,,,,,,,,,,,,562,19,Woman,Right,5,37,0.4,2,0,180,180,0.40618220000033034,['n'],1.1827167000001282,1.742,2750.358948,,,,,562,19,Woman,Right,
,,,,,,,,,,,,,,,,,562,19,Woman,Right,5,38,0.4,1,180,-,180,0.609329500000058,['n'],0.422896000000037,1.742,2753.7756787,,,,,562,19,Woman,Right,
,,,,,,,,,,,,,,,,,562,19,Woman,Right,5,70,0.15,1,180,-,180,0.6641049999998359,['n'],1.3108939000003375,1.262,2758.1924484,,,,,562,19,Woman,Right,
,,,,,,,,,,,,,,,,,562,19,Woman,Right,5,60,0.15,1,0,-,180,0.728689000000486,['n'],0.7268716999997196,1.262,2761.9088143,,,,,562,19,Woman,Right,
,,,,,,,,,,,,,,,,,562,19,Woman,Right,5,65,0.15,2,0,180,180,0.28342520000023796,['n'],0.7747900999993362,1.262,2765.6252323,,,,,562,19,Woman,Right,
,,,,,,,,,,,,,,,,,562,19,Woman,Right,5,20,0.4,1,0,-,0,0.6498891999999614,['n'],1.3820341999999073,1.708,2770.5085486999997,,,,,562,19,Woman,Right,
,,,,,,,,,,,,,,,,,562,19,Woman,Right,5,33,0.4,2,0,180,180,0.9047327000007499,['n'],0.6154865999997128,1.2,2774.3087506,,,,,562,19,Woman,Right,
,,,,,,,,,,,,,,,,,562,19,Woman,Right,5,44,0.15,1,0,-,0,0.558839700000135,['y'],1.9429823000000397,1.192,2779.8085777999995,,,,,562,19,Woman,Right,
,,,,,,,,,,,,,,,,,562,19,Woman,Right,5,14,0.4,1,180,-,180,0.6118471999998292,['n'],0.2952046000000337,1.196,2783.3251027999995,,,,,562,19,Woman,Right,
,,,,,,,,,,,,,,,,,562,19,Woman,Right,5,22,0.4,1,180,-,180,0.6175451999997676,['n'],0.6216530000001512,1.22,2787.4250575999995,,,,,562,19,Woman,Right,
,,,,,,,,,,,,,,,,,562,19,Woman,Right,5,15,0.4,2,180,0,180,0.7603561000005357,['n'],0.3752392000005784,1.26,2790.8584173,,,,,562,19,Woman,Right,
,,,,,,,,,,,,,,,,,562,19,Woman,Right,5,79,0.15,2,180,0,180,0.28508590000001277,['n'],0.7989049000007071,1.26,2794.2416482999997,,,,,562,19,Woman,Right,
,,,,,,,,,,,,,,,,,562,19,Woman,Right,5,61,0.15,2,0,180,180,0.02324430000044231,['n'],0.3748230999999578,1.26,2796.8583043,,,,,562,19,Woman,Right,
,,,,,,,,,,,,,,,,,562,19,Woman,Right,5,36,0.4,1,0,-,0,0.3804494000005434,['y'],2.158994800000073,1.792,2802.7749216,,,,,562,19,Woman,Right,
,,,,,,,,,,,,,,,,,562,19,Woman,Right,5,8,0.4,1,0,-,0,0.8675653000000239,['n'],0.8542074999995748,1.762,2807.6749496,,,,,562,19,Woman,Right,
,,,,,,,,,,,,,,,,,562,19,Woman,Right,5,34,0.4,1,180,-,180,0.1451588999998421,['n'],0.7988849999992453,1.5899999999999999,2811.5083852,,,,,562,19,Woman,Right,
,,,,,,,,,,,,,,,,,562,19,Woman,Right,5,30,0.4,1,180,-,180,0.6707585000003746,['n'],0.7508957000000009,1.5859999999999999,2815.2080494,,,,,562,19,Woman,Right,
,,,,,,,,,,,,,,,,,562,19,Woman,Right,5,69,0.15,2,0,180,0,0.5065973999999187,['n'],0.4869662999999491,1.6219999999999999,2818.9580957999997,,,,,562,19,Woman,Right,
,,,,,,,,,,,,,,,,,562,19,Woman,Right,5,50,0.15,1,180,-,180,1.4466701000001194,['n'],1.2469606000004205,1.3,2824.3247315,,,,,562,19,Woman,Right,
,,,,,,,,,,,,,,,,,562,19,Woman,Right,5,66,0.15,1,180,-,180,0.39395319999948697,['n'],0.6465587000002415,1.3,2827.7746214999997,,,,,562,19,Woman,Right,
,,,,,,,,,,,,,,,,,562,19,Woman,Right,5,51,0.15,2,180,0,180,0.21070120000058523,['n'],0.16696119999960501,1.3,2830.4081813000003,,,,,562,19,Woman,Right,
,,,,,,,,,,,,,,,,,562,19,Woman,Right,5,52,0.15,1,0,-,180,0.3417522999998255,['n'],0.9586782000005769,1.3,2834.0079613,,,,,562,19,Woman,Right,
,,,,,,,,,,,,,,,,,562,19,Woman,Right,5,35,0.4,2,180,0,0,0.9472612999998091,['y'],0.5665583999998489,1.6219999999999999,2838.5087495,,,,,562,19,Woman,Right,
,,,,,,,,,,,,,,,,,562,19,Woman,Right,5,45,0.15,2,0,180,0,0.1350468999999066,['n'],0.8710424999999304,1.544,2841.7745859999995,,,,,562,19,Woman,Right,
,,,,,,,,,,,,,,,,,562,19,Woman,Right,5,0,1,1,0,-,180,0.32831290000012814,['n'],0.27880219999951805,1.5739999999999998,2845.3079225,,,,,562,19,Woman,Right,
,,,,,,,,,,,,,,,,,562,19,Woman,Right,5,55,0.15,2,180,0,180,1.1428734000000986,['n'],0.702996400000302,1.366,2850.5078217,,,,,562,19,Woman,Right,
,,,,,,,,,,,,,,,,,562,19,Woman,Right,5,9,0.4,2,0,180,180,0.016402199999902223,['n'],0.41792680000071414,1.418,2853.5076747000003,,,,,562,19,Woman,Right,
,,,,,,,,,,,,,,,,,562,19,Woman,Right,5,71,0.15,2,180,0,0,0.6010042999996585,['y'],0.4469388000006802,1.418,2856.8744203999995,,,,,562,19,Woman,Right,
,,,,,,,,,,,,,,,,,562,19,Woman,Right,5,40,0.4,1,0,-,0,0.39642039999944245,['n'],0.43137359999946057,1.418,2860.0410226000004,,,,,562,19,Woman,Right,
,,,,,,,,,,,,,,,,,562,19,Woman,Right,5,59,0.15,2,180,0,180,0.6789969999999812,['n'],0.3510341999999582,1.418,2863.4752031999997,,,,,562,19,Woman,Right,
,,,,,,,,,,,,,,,,,562,19,Woman,Right,5,28,0.4,1,0,-,0,0.8776818000005733,['y'],1.9270746000001964,1.3940000000000001,2868.7076578999995,,,,,562,19,Woman,Right,
,,,,,,,,,,,,,,,,,562,19,Woman,Right,5,12,0.4,1,0,-,0,0.5357492000002821,['n'],0.5429529000002731,1.3940000000000001,2871.9743467999997,,,,,562,19,Woman,Right,
,,,,,,,,,,,,,,,,,562,19,Woman,Right,5,63,0.15,2,180,0,180,0.2824392999991687,['n'],0.35153119999995397,1.3940000000000001,2874.9914804,,,,,562,19,Woman,Right,
,,,,,,,,,,,,,,,,,562,19,Woman,Right,5,32,0.4,1,0,-,0,0.15561040000011417,['n'],0.39863420000074257,1.3940000000000001,2877.8577833,,,,,562,19,Woman,Right,
,,,,,,,,,,,,,,,,,562,19,Woman,Right,5,39,0.4,2,180,0,0,0.5219184999996287,['y'],0.6632644000001164,1.3940000000000001,2881.2408124000003,,,,,562,19,Woman,Right,
,,,,,,,,,,,,,,,,,562,19,Woman,Right,5,5,1,2,0,180,180,0.8825600999998642,['y'],0.9670856000002459,1.3940000000000001,2886.0242031999996,,,,,562,19,Woman,Right,
,,,,,,,,,,,,,,,,,562,19,Woman,Right,5,62,0.15,1,180,-,180,0.3997818999996525,['y'],0.5799471999998786,1.3940000000000001,2889.3410253,,,,,562,19,Woman,Right,
,,,,,,,,,,,,,,,,,562,19,Woman,Right,5,53,0.15,2,0,180,180,0.016646799999762152,['n'],0.610125700000026,1.3940000000000001,2892.4077534999997,,,,,562,19,Woman,Right,
,,,,,,,,,,,,,,,,,562,19,Woman,Right,5,72,0.15,1,0,-,180,0.5199526999995214,['n'],0.24687970000013593,1.3940000000000001,2895.5740409,,,,,562,19,Woman,Right,
,,,,,,,,,,,,,,,,,562,19,Woman,Right,5,46,0.15,1,180,-,180,0.05793479999920237,['n'],0.5429509000005055,1.3940000000000001,2898.5243023000003,,,,,562,19,Woman,Right,
,,,,,,,,,,,,,,,,,562,19,Woman,Right,5,57,0.15,2,0,180,180,0.354680799999187,['n'],0.3830456999994567,1.3940000000000001,2901.5241488,,,,,562,19,Woman,Right,
,,,,,,,,,,,,,,,,,562,19,Woman,Right,5,11,0.4,2,180,0,0,0.5955010999996375,['y'],0.4870057000007364,1.226,2905.5242884,,,,,562,19,Woman,Right,
,,,,,,,,,,,,,,,,,562,19,Woman,Right,5,76,0.15,1,0,-,180,0.8501807000002373,['n'],0.3049825000007331,1.226,2908.9909767,,,,,562,19,Woman,Right,
,,,,,,,,,,,,,,,,,562,19,Woman,Right,5,6,1,1,180,-,180,0.4672819999996136,['n'],0.5193527000001268,1.76,2912.6741248,,,,,562,19,Woman,Right,
,,,,,,,,,,,,,,,,,562,19,Woman,Right,5,74,0.15,1,180,-,180,0.4261659999992844,['n'],0.3831736000001911,1.3820000000000001,2916.9740807999997,,,,,562,19,Woman,Right,
,,,,,,,,,,,,,,,,,562,19,Woman,Right,5,25,0.4,2,0,180,180,0.535591700000623,['y'],0.5431788000005326,1.634,2920.6073295999995,,,,,562,19,Woman,Right,
,,,,,,,,,,,,,,,,,562,19,Woman,Right,5,2,1,1,180,-,180,0.38964430000032735,['n'],0.5989835999998832,1.634,2923.807122,,,,,562,19,Woman,Right,
,,,,,,,,,,,,,,,,,562,19,Woman,Right,5,42,0.4,1,180,-,180,0.4818111999993562,['n'],0.8472745999997642,1.634,2927.5571414999995,,,,,562,19,Woman,Right,
,,,,,,,,,,,,,,,,,562,19,Woman,Right,5,26,0.4,1,180,-,180,0.46774360000017623,['n'],1.4554815000001327,1.6320000000000001,2931.8404353999995,,,,,562,19,Woman,Right,
,,,,,,,,,,,,,,,,,562,19,Woman,Right,5,21,0.4,2,0,180,180,0.8168573000002652,['y'],0.3898690000005445,1.6320000000000001,2935.7570932,,,,,562,19,Woman,Right,
,,,,,,,,,,,,,,,,,562,19,Woman,Right,5,3,1,2,180,0,0,0.5404042000000118,['y'],0.6709743000001254,1.6320000000000001,2939.1571685999997,,,,,562,19,Woman,Right,
,,,,,,,,,,,,,,,,,562,19,Woman,Right,5,31,0.4,2,180,0,0,0.4117881000001944,['y'],0.39097319999928004,1.6320000000000001,2942.5739464,,,,,562,19,Woman,Right,
,,,,,,,,,,,,,,,,,562,19,Woman,Right,5,77,0.15,2,0,180,180,0.6116423000003124,['y'],0.3829630999998699,1.184,2946.5236605,,,,,562,19,Woman,Right,
,,,,,,,,,,,,,,,,,562,19,Woman,Right,5,41,0.4,2,0,180,180,0.5335549000001265,['y'],0.8873742000005223,1.6099999999999999,2950.7235948,,,,,562,19,Woman,Right,
,,,,,,,,,,,,,,,,,562,19,Woman,Right,5,43,0.4,2,180,0,0,0.44050330000027316,['y'],0.31878359999973327,1.5979999999999999,2953.6734651999996,,,,,562,19,Woman,Right,
,,,,,,,,,,,,,,,,,562,19,Woman,Right,5,47,0.15,2,180,0,0,0.7193967000002885,['y'],0.6868838000000324,1.5979999999999999,2957.3568727,,,,,562,19,Woman,Right,
,,,,,,,,,,,,,,,,,562,19,Woman,Right,5,49,0.15,2,0,180,180,0.18053739999959362,['y'],0.49471579999953974,1.5979999999999999,2960.2902430000004,,,,,562,19,Woman,Right,
,,,,,,,,,,,,,,,,,562,19,Woman,Right,5,56,0.15,1,0,-,180,0.6056913000002169,['y'],0.15899519999948097,1.5979999999999999,2963.4067937,,,,,562,19,Woman,Right,
,,,,,,,,,,,,,,,,,,,,,,,,,,,,,,,,,73.75,75.0,52.5,2631.3046380000005,,,,,
