p_block,p_section,p_coherence,p_direction1,p_direction2,p_direction_response,p_direction_RT,p_change_response,p_change_RT,p_confidence,p_full_correct,p_without5_correct,p_full_total,p_without5_total,p_full_avg,p_witout5_avg,p_total_time,sub,age,sex,handedness,loop,trial randomization,coherence,condition,direction1,direction2,direction_response,direction_RT,change_response,change_RT,change_confidence,change_confidence_RT,block_direction_avg,block_stable_avg,block_change_avg,total_time,sub,age,sex,handedness,
1,1,1.0,0,-,180,3.8240288999995755,-,-,-,,,,,,,,567,19,Woman,Right,,,,,,,,,,,,,,,,,567,19,Woman,Right,
1,1,1.0,0,-,0,0.41833540000061475,-,-,-,,,,,,,,567,19,Woman,Right,,,,,,,,,,,,,,,,,567,19,Woman,Right,
1,1,1.0,180,-,0,0.3768663999999262,-,-,-,,,,,,,,567,19,Woman,Right,,,,,,,,,,,,,,,,,567,19,Woman,Right,
1,1,1.0,0,-,0,2.0966712000008556,-,-,-,,,,,,,,567,19,Woman,Right,,,,,,,,,,,,,,,,,567,19,Woman,Right,
1,1,1.0,0,-,180,0.42594869999993534,-,-,-,,,,,,,,567,19,Woman,Right,,,,,,,,,,,,,,,,,567,19,Woman,Right,
1,1,1.0,0,-,180,1.1037564999996903,-,-,-,,,,,,,,567,19,Woman,Right,,,,,,,,,,,,,,,,,567,19,Woman,Right,
1,1,1.0,0,-,0,1.113644000000022,-,-,-,,,,,,,,567,19,Woman,Right,,,,,,,,,,,,,,,,,567,19,Woman,Right,
1,1,1.0,180,-,180,0.6672346000004836,-,-,-,,,,,,,,567,19,Woman,Right,,,,,,,,,,,,,,,,,567,19,Woman,Right,
1,1,1.0,0,-,0,0.41497569999955886,-,-,-,,,,,,,,567,19,Woman,Right,,,,,,,,,,,,,,,,,567,19,Woman,Right,
1,1,1.0,0,-,0,0.4466144999996686,-,-,-,,,,,,,,567,19,Woman,Right,,,,,,,,,,,,,,,,,567,19,Woman,Right,
1,1,1.0,180,-,0,0.4758643999994092,-,-,-,,,,,,,,567,19,Woman,Right,,,,,,,,,,,,,,,,,567,19,Woman,Right,
1,1,1.0,0,-,180,0.5913814000005004,-,-,-,,,,,,,,567,19,Woman,Right,,,,,,,,,,,,,,,,,567,19,Woman,Right,
1,1,1.0,0,-,180,1.263890100000026,-,-,-,,,,,,,,567,19,Woman,Right,,,,,,,,,,,,,,,,,567,19,Woman,Right,
1,1,1.0,180,-,0,0.6515480999996726,-,-,-,,,,,,,,567,19,Woman,Right,,,,,,,,,,,,,,,,,567,19,Woman,Right,
1,1,1.0,180,-,180,0.9196643999994194,-,-,-,,,,,,,,567,19,Woman,Right,,,,,,,,,,,,,,,,,567,19,Woman,Right,
1,1,1.0,0,-,180,0.6096509999997579,-,-,-,,,,,,,,567,19,Woman,Right,,,,,,,,,,,,,,,,,567,19,Woman,Right,
1,1,1.0,0,-,180,1.2679043999996793,-,-,-,,,,,,,,567,19,Woman,Right,,,,,,,,,,,,,,,,,567,19,Woman,Right,
1,1,1.0,0,-,0,0.42675730000064505,-,-,-,,,,,,,,567,19,Woman,Right,,,,,,,,,,,,,,,,,567,19,Woman,Right,
1,1,1.0,0,-,180,0.37653190000037284,-,-,-,,,,,,,,567,19,Woman,Right,,,,,,,,,,,,,,,,,567,19,Woman,Right,
1,1,1.0,0,-,0,0.3927056000002267,-,-,-,,,,,,,,567,19,Woman,Right,,,,,,,,,,,,,,,,,567,19,Woman,Right,
1,1,1.0,180,-,180,0.6475020000007135,-,-,-,,,,,,,,567,19,Woman,Right,,,,,,,,,,,,,,,,,567,19,Woman,Right,
1,1,1.0,0,-,180,0.7564834999993764,-,-,-,,,,,,,,567,19,Woman,Right,,,,,,,,,,,,,,,,,567,19,Woman,Right,
1,1,1.0,180,-,0,0.3884773999998288,-,-,-,,,,,,,,567,19,Woman,Right,,,,,,,,,,,,,,,,,567,19,Woman,Right,
1,1,1.0,0,-,0,0.12447810000048776,-,-,-,,,,,,,,567,19,Woman,Right,,,,,,,,,,,,,,,,,567,19,Woman,Right,
1,1,1.0,180,-,180,0.4303877000002103,-,-,-,,,,,,,,567,19,Woman,Right,,,,,,,,,,,,,,,,,567,19,Woman,Right,
1,1,1.0,180,-,0,0.285018300000047,-,-,-,,,,,,,,567,19,Woman,Right,,,,,,,,,,,,,,,,,567,19,Woman,Right,
1,1,1.0,180,-,0,0.40036570000029315,-,-,-,,,,,,,,567,19,Woman,Right,,,,,,,,,,,,,,,,,567,19,Woman,Right,
1,1,1.0,0,-,0,0.3904456999998729,-,-,-,,,,,,,,567,19,Woman,Right,,,,,,,,,,,,,,,,,567,19,Woman,Right,
1,1,1.0,180,-,180,1.2617855999997118,-,-,-,,,,,,,,567,19,Woman,Right,,,,,,,,,,,,,,,,,567,19,Woman,Right,
1,1,1.0,0,-,0,0.5945484000003489,-,-,-,,,,,,,,567,19,Woman,Right,,,,,,,,,,,,,,,,,567,19,Woman,Right,
1,1,1.0,0,-,0,0.5064925999995467,-,-,-,,,,,,,,567,19,Woman,Right,,,,,,,,,,,,,,,,,567,19,Woman,Right,
1,1,1.0,180,-,0,0.7407216000001426,-,-,-,,,,,,,,567,19,Woman,Right,,,,,,,,,,,,,,,,,567,19,Woman,Right,
1,1,1.0,180,-,0,0.36706189999949856,-,-,-,,,,,,,,567,19,Woman,Right,,,,,,,,,,,,,,,,,567,19,Woman,Right,
1,1,1.0,0,-,180,0.35734620000039286,-,-,-,,,,,,,,567,19,Woman,Right,,,,,,,,,,,,,,,,,567,19,Woman,Right,
1,1,1.0,180,-,0,0.5018072000002576,-,-,-,,,,,,,,567,19,Woman,Right,,,,,,,,,,,,,,,,,567,19,Woman,Right,
1,1,1.0,180,-,0,0.2816671000000497,-,-,-,,,,,,,,567,19,Woman,Right,,,,,,,,,,,,,,,,,567,19,Woman,Right,
1,1,1.0,0,-,180,0.2708495999995648,-,-,-,,,,,,,,567,19,Woman,Right,,,,,,,,,,,,,,,,,567,19,Woman,Right,
1,1,1.0,180,-,0,0.410871699999916,-,-,-,,,,,,,,567,19,Woman,Right,,,,,,,,,,,,,,,,,567,19,Woman,Right,
1,1,1.0,0,-,180,0.618692999999439,-,-,-,,,,,,,,567,19,Woman,Right,,,,,,,,,,,,,,,,,567,19,Woman,Right,
1,1,1.0,180,-,180,0.24850340000011784,-,-,-,,,,,,,,567,19,Woman,Right,,,,,,,,,,,,,,,,,567,19,Woman,Right,
1,1,1.0,180,-,0,0.016427200000180164,-,-,-,,,,,,,,567,19,Woman,Right,,,,,,,,,,,,,,,,,567,19,Woman,Right,
1,1,1.0,0,-,0,0.7963498999997682,-,-,-,,,,,,,,567,19,Woman,Right,,,,,,,,,,,,,,,,,567,19,Woman,Right,
1,1,1.0,180,-,180,0.034356400000433496,-,-,-,,,,,,,,567,19,Woman,Right,,,,,,,,,,,,,,,,,567,19,Woman,Right,
1,1,1.0,180,-,180,0.24009799999930692,-,-,-,,,,,,,,567,19,Woman,Right,,,,,,,,,,,,,,,,,567,19,Woman,Right,
1,1,1.0,180,-,0,0.01702709999972285,-,-,-,,,,,,,,567,19,Woman,Right,,,,,,,,,,,,,,,,,567,19,Woman,Right,
1,1,1.0,0,-,0,0.812175600000046,-,-,-,,,,,,,,567,19,Woman,Right,,,,,,,,,,,,,,,,,567,19,Woman,Right,
1,1,1.0,180,-,180,0.7788135000000693,-,-,-,,,,,,,,567,19,Woman,Right,,,,,,,,,,,,,,,,,567,19,Woman,Right,
1,1,1.0,0,-,0,1.1067955999997139,-,-,-,,,,,,,,567,19,Woman,Right,,,,,,,,,,,,,,,,,567,19,Woman,Right,
1,1,1.0,0,-,180,0.4766647999995257,-,-,-,,,,,,,,567,19,Woman,Right,,,,,,,,,,,,,,,,,567,19,Woman,Right,
1,1,1.0,0,-,0,0.41698340000039025,-,-,-,,,,,,,,567,19,Woman,Right,,,,,,,,,,,,,,,,,567,19,Woman,Right,
1,1,1.0,0,-,0,0.3747334999998202,-,-,-,,,,,,,,567,19,Woman,Right,,,,,,,,,,,,,,,,,567,19,Woman,Right,
1,1,1.0,180,-,0,0.262727299999824,-,-,-,,,,,,,,567,19,Woman,Right,,,,,,,,,,,,,,,,,567,19,Woman,Right,
1,1,1.0,0,-,0,0.267336100000648,-,-,-,,,,,,,,567,19,Woman,Right,,,,,,,,,,,,,,,,,567,19,Woman,Right,
1,1,1.0,180,-,180,0.45525089999955526,-,-,-,,,,,,,,567,19,Woman,Right,,,,,,,,,,,,,,,,,567,19,Woman,Right,
1,1,1.0,180,-,0,0.5321994999994786,-,-,-,,,,,,,,567,19,Woman,Right,,,,,,,,,,,,,,,,,567,19,Woman,Right,
1,1,1.0,0,-,0,0.3659671999994316,-,-,-,,,,,,,,567,19,Woman,Right,,,,,,,,,,,,,,,,,567,19,Woman,Right,
1,1,1.0,0,-,180,0.30971629999930883,-,-,-,,,,,,,,567,19,Woman,Right,,,,,,,,,,,,,,,,,567,19,Woman,Right,
1,1,1.0,0,-,0,0.36033319999933155,-,-,-,,,,,,,,567,19,Woman,Right,,,,,,,,,,,,,,,,,567,19,Woman,Right,
1,1,1.0,180,-,180,0.6087501000001794,-,-,-,,,,,,,,567,19,Woman,Right,,,,,,,,,,,,,,,,,567,19,Woman,Right,
1,1,1.0,180,-,0,0.38380030000007537,-,-,-,,,,,,,,567,19,Woman,Right,,,,,,,,,,,,,,,,,567,19,Woman,Right,
1,1,1.0,0,-,0,0.5828363000000536,-,-,-,,,,,,,,567,19,Woman,Right,,,,,,,,,,,,,,,,,567,19,Woman,Right,
1,1,1.0,0,-,180,0.4065381000000343,-,-,-,,,,,,,,567,19,Woman,Right,,,,,,,,,,,,,,,,,567,19,Woman,Right,
1,1,1.0,180,-,0,0.35790739999993093,-,-,-,,,,,,,,567,19,Woman,Right,,,,,,,,,,,,,,,,,567,19,Woman,Right,
1,1,1.0,0,-,180,0.638884699999835,-,-,-,,,,,,,,567,19,Woman,Right,,,,,,,,,,,,,,,,,567,19,Woman,Right,
1,1,1.0,0,-,0,1.3957535999998072,-,-,-,,,,,,,,567,19,Woman,Right,,,,,,,,,,,,,,,,,567,19,Woman,Right,
1,1,1.0,180,-,0,0.586590800000522,-,-,-,,,,,,,,567,19,Woman,Right,,,,,,,,,,,,,,,,,567,19,Woman,Right,
1,1,1.0,180,-,0,0.521519800000533,-,-,-,,,,,,,,567,19,Woman,Right,,,,,,,,,,,,,,,,,567,19,Woman,Right,
1,1,1.0,180,-,180,0.5640587999996569,-,-,-,,,,,,,,567,19,Woman,Right,,,,,,,,,,,,,,,,,567,19,Woman,Right,
1,1,1.0,0,-,180,0.8122159000004103,-,-,-,,,,,,,,567,19,Woman,Right,,,,,,,,,,,,,,,,,567,19,Woman,Right,
1,1,1.0,0,-,0,0.322209699999803,-,-,-,,,,,,,,567,19,Woman,Right,,,,,,,,,,,,,,,,,567,19,Woman,Right,
1,1,1.0,180,-,0,0.40405269999973825,-,-,-,,,,,,,,567,19,Woman,Right,,,,,,,,,,,,,,,,,567,19,Woman,Right,
1,1,1.0,0,-,180,0.6752685999999812,-,-,-,,,,,,,,567,19,Woman,Right,,,,,,,,,,,,,,,,,567,19,Woman,Right,
1,1,1.0,0,-,0,0.5507510999996157,-,-,-,,,,,,,,567,19,Woman,Right,,,,,,,,,,,,,,,,,567,19,Woman,Right,
1,1,1.0,180,-,0,0.639665700000478,-,-,-,,,,,,,,567,19,Woman,Right,,,,,,,,,,,,,,,,,567,19,Woman,Right,
1,1,1.0,180,-,180,0.8047307000006185,-,-,-,,,,,,,,567,19,Woman,Right,,,,,,,,,,,,,,,,,567,19,Woman,Right,
1,1,1.0,0,-,0,0.29138590000002296,-,-,-,,,,,,,,567,19,Woman,Right,,,,,,,,,,,,,,,,,567,19,Woman,Right,
1,1,1.0,0,-,180,0.3507970999999088,-,-,-,,,,,,,,567,19,Woman,Right,,,,,,,,,,,,,,,,,567,19,Woman,Right,
1,1,1.0,180,-,180,0.2878190999999788,-,-,-,,,,,,,,567,19,Woman,Right,,,,,,,,,,,,,,,,,567,19,Woman,Right,
1,1,1.0,0,-,0,0.2917741000001115,-,-,-,,,,,,,,567,19,Woman,Right,,,,,,,,,,,,,,,,,567,19,Woman,Right,
1,1,1.0,180,-,0,0.4236973000006401,-,-,-,,,,,,,,567,19,Woman,Right,,,,,,,,,,,,,,,,,567,19,Woman,Right,
1,1,1.0,180,-,0,0.39731699999993,-,-,-,,,,,,,,567,19,Woman,Right,,,,,,,,,,,,,,,,,567,19,Woman,Right,
1,1,1.0,180,-,0,0.5166657999998279,-,-,-,,,,,,,,567,19,Woman,Right,,,,,,,,,,,,,,,,,567,19,Woman,Right,
1,1,1.0,180,-,0,0.33362769999985176,-,-,-,,,,,,,,567,19,Woman,Right,,,,,,,,,,,,,,,,,567,19,Woman,Right,
1,1,1.0,180,-,180,0.2724436999997124,-,-,-,,,,,,,,567,19,Woman,Right,,,,,,,,,,,,,,,,,567,19,Woman,Right,
1,1,1.0,0,-,180,1.028160000000753,-,-,-,,,,,,,,567,19,Woman,Right,,,,,,,,,,,,,,,,,567,19,Woman,Right,
1,1,1.0,0,-,0,0.658108099999481,-,-,-,,,,,,,,567,19,Woman,Right,,,,,,,,,,,,,,,,,567,19,Woman,Right,
1,1,1.0,180,-,180,0.34248219999972207,-,-,-,,,,,,,,567,19,Woman,Right,,,,,,,,,,,,,,,,,567,19,Woman,Right,
1,1,1.0,180,-,0,0.32732170000053884,-,-,-,,,,,,,,567,19,Woman,Right,,,,,,,,,,,,,,,,,567,19,Woman,Right,
1,1,1.0,0,-,180,0.9053670000002967,-,-,-,,,,,,,,567,19,Woman,Right,,,,,,,,,,,,,,,,,567,19,Woman,Right,
1,1,1.0,0,-,0,0.3883875999999873,-,-,-,,,,,,,,567,19,Woman,Right,,,,,,,,,,,,,,,,,567,19,Woman,Right,
1,1,1.0,180,-,0,0.32385379999959696,-,-,-,,,,,,,,567,19,Woman,Right,,,,,,,,,,,,,,,,,567,19,Woman,Right,
1,1,1.0,0,-,0,0.6216036999994685,-,-,-,,,,,,,,567,19,Woman,Right,,,,,,,,,,,,,,,,,567,19,Woman,Right,
1,1,1.0,0,-,0,0.4111634000000777,-,-,-,,,,,,,,567,19,Woman,Right,,,,,,,,,,,,,,,,,567,19,Woman,Right,
1,1,1.0,180,-,0,0.32282649999979185,-,-,-,,,,,,,,567,19,Woman,Right,,,,,,,,,,,,,,,,,567,19,Woman,Right,
1,1,1.0,180,-,180,0.3488902000008238,-,-,-,,,,,,,,567,19,Woman,Right,,,,,,,,,,,,,,,,,567,19,Woman,Right,
1,1,1.0,0,-,0,0.4171212999999625,-,-,-,,,,,,,,567,19,Woman,Right,,,,,,,,,,,,,,,,,567,19,Woman,Right,
1,1,1.0,180,-,180,0.5798000999993747,-,-,-,,,,,,,,567,19,Woman,Right,,,,,,,,,,,,,,,,,567,19,Woman,Right,
1,1,1.0,0,-,0,0.30819180000071356,-,-,-,,,,,,,,567,19,Woman,Right,,,,,,,,,,,,,,,,,567,19,Woman,Right,
1,1,1.0,180,-,0,0.3593911999996635,-,-,-,,,,,,,,567,19,Woman,Right,,,,,,,,,,,,,,,,,567,19,Woman,Right,
1,1,1.0,0,-,180,0.3925709999994069,-,-,-,,,,,,,,567,19,Woman,Right,,,,,,,,,,,,,,,,,567,19,Woman,Right,
1,1,1.0,180,-,0,0.4076867999992828,-,-,-,,,,,,,,567,19,Woman,Right,,,,,,,,,,,,,,,,,567,19,Woman,Right,
1,1,1.0,180,-,0,0.35006550000071,-,-,-,,,,,,,,567,19,Woman,Right,,,,,,,,,,,,,,,,,567,19,Woman,Right,
1,1,1.0,180,-,180,0.302654099999927,-,-,-,,,,,,,,567,19,Woman,Right,,,,,,,,,,,,,,,,,567,19,Woman,Right,
1,1,1.0,180,-,180,0.3538882000002559,-,-,-,,,,,,,,567,19,Woman,Right,,,,,,,,,,,,,,,,,567,19,Woman,Right,
1,1,1.0,180,-,0,0.32242610000048444,-,-,-,,,,,,,,567,19,Woman,Right,,,,,,,,,,,,,,,,,567,19,Woman,Right,
1,1,1.0,180,-,0,0.4049418999993577,-,-,-,,,,,,,,567,19,Woman,Right,,,,,,,,,,,,,,,,,567,19,Woman,Right,
1,1,1.0,180,-,180,0.411425500000405,-,-,-,,,,,,,,567,19,Woman,Right,,,,,,,,,,,,,,,,,567,19,Woman,Right,
1,1,1.0,180,-,0,0.41780740000012884,-,-,-,,,,,,,,567,19,Woman,Right,,,,,,,,,,,,,,,,,567,19,Woman,Right,
1,1,1.0,180,-,0,0.391740099999879,-,-,-,,,,,,,,567,19,Woman,Right,,,,,,,,,,,,,,,,,567,19,Woman,Right,
1,1,1.0,0,-,180,0.031234000000040396,-,-,-,,,,,,,,567,19,Woman,Right,,,,,,,,,,,,,,,,,567,19,Woman,Right,
1,1,1.0,0,-,0,0.30902510000032635,-,-,-,,,,,,,,567,19,Woman,Right,,,,,,,,,,,,,,,,,567,19,Woman,Right,
1,1,1.0,0,-,180,0.343610500000068,-,-,-,,,,,,,,567,19,Woman,Right,,,,,,,,,,,,,,,,,567,19,Woman,Right,
1,1,1.0,0,-,0,0.016733600000407023,-,-,-,,,,,,,,567,19,Woman,Right,,,,,,,,,,,,,,,,,567,19,Woman,Right,
1,1,1.0,180,-,0,0.30381300000044575,-,-,-,,,,,,,,567,19,Woman,Right,,,,,,,,,,,,,,,,,567,19,Woman,Right,
1,1,1.0,180,-,180,0.946185300000252,-,-,-,,,,,,,,567,19,Woman,Right,,,,,,,,,,,,,,,,,567,19,Woman,Right,
1,1,1.0,180,-,180,0.9706538999998884,-,-,-,,,,,,,,567,19,Woman,Right,,,,,,,,,,,,,,,,,567,19,Woman,Right,
1,1,1.0,0,-,0,0.29789099999925384,-,-,-,,,,,,,,567,19,Woman,Right,,,,,,,,,,,,,,,,,567,19,Woman,Right,
1,1,1.0,180,-,0,0.3659212000002299,-,-,-,,,,,,,,567,19,Woman,Right,,,,,,,,,,,,,,,,,567,19,Woman,Right,
1,1,1.0,0,-,180,0.7508948000004239,-,-,-,,,,,,,,567,19,Woman,Right,,,,,,,,,,,,,,,,,567,19,Woman,Right,
1,1,1.0,0,-,0,0.39013580000028014,-,-,-,,,,,,,,567,19,Woman,Right,,,,,,,,,,,,,,,,,567,19,Woman,Right,
1,1,1.0,0,-,0,0.8129346000005171,-,-,-,,,,,,,,567,19,Woman,Right,,,,,,,,,,,,,,,,,567,19,Woman,Right,
1,1,1.0,0,-,180,0.35575040000003355,-,-,-,,,,,,,,567,19,Woman,Right,,,,,,,,,,,,,,,,,567,19,Woman,Right,
1,1,1.0,0,-,0,0.8928509999996095,-,-,-,,,,,,,,567,19,Woman,Right,,,,,,,,,,,,,,,,,567,19,Woman,Right,
1,1,1.0,0,-,0,0.5922117000000071,-,-,-,,,,,,,,567,19,Woman,Right,,,,,,,,,,,,,,,,,567,19,Woman,Right,
1,1,1.0,180,-,0,0.3511164000001372,-,-,-,,,,,,,,567,19,Woman,Right,,,,,,,,,,,,,,,,,567,19,Woman,Right,
1,1,1.0,180,-,180,0.5917342000002463,-,-,-,,,,,,,,567,19,Woman,Right,,,,,,,,,,,,,,,,,567,19,Woman,Right,
1,1,1.0,180,-,0,0.6634355999995023,-,-,-,,,,,,,,567,19,Woman,Right,,,,,,,,,,,,,,,,,567,19,Woman,Right,
1,1,1.0,180,-,180,0.2845249000001786,-,-,-,,,,,,,,567,19,Woman,Right,,,,,,,,,,,,,,,,,567,19,Woman,Right,
1,1,1.0,0,-,180,0.25543410000045697,-,-,-,,,,,,,,567,19,Woman,Right,,,,,,,,,,,,,,,,,567,19,Woman,Right,
1,1,1.0,0,-,0,0.016737299999476818,-,-,-,,,,,,,,567,19,Woman,Right,,,,,,,,,,,,,,,,,567,19,Woman,Right,
1,1,1.0,0,-,0,0.027661799999805226,-,-,-,,,,,,,,567,19,Woman,Right,,,,,,,,,,,,,,,,,567,19,Woman,Right,
1,1,1.0,0,-,180,0.34659780000038154,-,-,-,,,,,,,,567,19,Woman,Right,,,,,,,,,,,,,,,,,567,19,Woman,Right,
1,1,1.0,0,-,0,0.7339265999999043,-,-,-,,,,,,,,567,19,Woman,Right,,,,,,,,,,,,,,,,,567,19,Woman,Right,
1,1,1.0,180,-,0,0.18848500000058266,-,-,-,,,,,,,,567,19,Woman,Right,,,,,,,,,,,,,,,,,567,19,Woman,Right,
1,1,1.0,180,-,180,1.1558125999999902,-,-,-,,,,,,,,567,19,Woman,Right,,,,,,,,,,,,,,,,,567,19,Woman,Right,
1,1,1.0,180,-,0,0.13216629999988072,-,-,-,,,,,,,,567,19,Woman,Right,,,,,,,,,,,,,,,,,567,19,Woman,Right,
1,1,1.0,0,-,180,0.4061065999994753,-,-,-,,,,,,,,567,19,Woman,Right,,,,,,,,,,,,,,,,,567,19,Woman,Right,
1,1,1.0,0,-,0,0.3489836999997351,-,-,-,,,,,,,,567,19,Woman,Right,,,,,,,,,,,,,,,,,567,19,Woman,Right,
1,1,1.0,180,-,0,0.10190010000042093,-,-,-,,,,,,,,567,19,Woman,Right,,,,,,,,,,,,,,,,,567,19,Woman,Right,
1,1,1.0,0,-,180,0.14504200000010314,-,-,-,,,,,,,,567,19,Woman,Right,,,,,,,,,,,,,,,,,567,19,Woman,Right,
1,1,1.0,0,-,0,0.2900082999994993,-,-,-,,,,,,,,567,19,Woman,Right,,,,,,,,,,,,,,,,,567,19,Woman,Right,
1,1,1.0,180,-,0,0.5332561999994141,-,-,-,,,,,,,,567,19,Woman,Right,,,,,,,,,,,,,,,,,567,19,Woman,Right,
1,1,1.0,0,-,0,0.486320799999703,-,-,-,,,,,,,,567,19,Woman,Right,,,,,,,,,,,,,,,,,567,19,Woman,Right,
1,1,1.0,0,-,0,0.3380160999995496,-,-,-,,,,,,,,567,19,Woman,Right,,,,,,,,,,,,,,,,,567,19,Woman,Right,
1,1,1.0,180,-,0,0.11517999999978201,-,-,-,,,,,,,,567,19,Woman,Right,,,,,,,,,,,,,,,,,567,19,Woman,Right,
1,1,1.0,0,-,180,0.2780276000003141,-,-,-,,,,,,,,567,19,Woman,Right,,,,,,,,,,,,,,,,,567,19,Woman,Right,
1,1,1.0,0,-,180,0.2834863999996742,-,-,-,,,,,,,,567,19,Woman,Right,,,,,,,,,,,,,,,,,567,19,Woman,Right,
1,1,1.0,180,-,0,0.23778609999953915,-,-,-,,,,,,,,567,19,Woman,Right,,,,,,,,,,,,,,,,,567,19,Woman,Right,
1,1,1.0,180,-,0,0.3795310999994399,-,-,-,,,,,,,,567,19,Woman,Right,,,,,,,,,,,,,,,,,567,19,Woman,Right,
1,1,1.0,180,-,0,0.2429096000005302,-,-,-,,,,,,,,567,19,Woman,Right,,,,,,,,,,,,,,,,,567,19,Woman,Right,
1,1,1.0,180,-,0,0.44020459999956074,-,-,-,,,,,,,,567,19,Woman,Right,,,,,,,,,,,,,,,,,567,19,Woman,Right,
1,1,1.0,180,-,180,0.016743400000450492,-,-,-,,,,,,,,567,19,Woman,Right,,,,,,,,,,,,,,,,,567,19,Woman,Right,
1,1,1.0,180,-,180,0.17952820000027714,-,-,-,,,,,,,,567,19,Woman,Right,,,,,,,,,,,,,,,,,567,19,Woman,Right,
1,1,1.0,0,-,180,0.2674971000005826,-,-,-,,,,,,,,567,19,Woman,Right,,,,,,,,,,,,,,,,,567,19,Woman,Right,
1,1,1.0,0,-,0,0.01673789999949804,-,-,-,,,,,,,,567,19,Woman,Right,,,,,,,,,,,,,,,,,567,19,Woman,Right,
1,1,1.0,0,-,180,0.2550429000002623,-,-,-,,,,,,,,567,19,Woman,Right,,,,,,,,,,,,,,,,,567,19,Woman,Right,
1,1,1.0,0,-,0,0.016808499999569904,-,-,-,,,,,,,,567,19,Woman,Right,,,,,,,,,,,,,,,,,567,19,Woman,Right,
1,1,1.0,0,-,0,0.2183167000002868,-,-,-,,,,,,,,567,19,Woman,Right,,,,,,,,,,,,,,,,,567,19,Woman,Right,
1,1,1.0,180,-,0,0.2562219000001278,-,-,-,,,,,,,,567,19,Woman,Right,,,,,,,,,,,,,,,,,567,19,Woman,Right,
1,1,1.0,180,-,180,0.01673190000019531,-,-,-,,,,,,,,567,19,Woman,Right,,,,,,,,,,,,,,,,,567,19,Woman,Right,
1,1,1.0,0,-,180,0.28374320000057196,-,-,-,,,,,,,,567,19,Woman,Right,,,,,,,,,,,,,,,,,567,19,Woman,Right,
1,1,1.0,180,-,0,0.2482006000000183,-,-,-,,,,,,,,567,19,Woman,Right,,,,,,,,,,,,,,,,,567,19,Woman,Right,
1,1,1.0,180,-,0,0.02917539999998553,-,-,-,,,,,,,,567,19,Woman,Right,,,,,,,,,,,,,,,,,567,19,Woman,Right,
1,1,1.0,180,-,0,0.30795429999943735,-,-,-,,,,,,,,567,19,Woman,Right,,,,,,,,,,,,,,,,,567,19,Woman,Right,
1,1,1.0,0,-,180,0.41699919999973645,-,-,-,,,,,,,,567,19,Woman,Right,,,,,,,,,,,,,,,,,567,19,Woman,Right,
1,1,1.0,180,-,180,0.01683690000027127,-,-,-,,,,,,,,567,19,Woman,Right,,,,,,,,,,,,,,,,,567,19,Woman,Right,
1,1,1.0,0,-,0,0.11443030000009458,-,-,-,,,,,,,,567,19,Woman,Right,,,,,,,,,,,,,,,,,567,19,Woman,Right,
1,1,1.0,180,-,0,0.3092272000003504,-,-,-,,,,,,,,567,19,Woman,Right,,,,,,,,,,,,,,,,,567,19,Woman,Right,
1,1,1.0,180,-,0,0.2318436000005022,-,-,-,,,,,,,,567,19,Woman,Right,,,,,,,,,,,,,,,,,567,19,Woman,Right,
1,1,1.0,0,-,180,0.4622208999999202,-,-,-,,,,,,,,567,19,Woman,Right,,,,,,,,,,,,,,,,,567,19,Woman,Right,
1,1,1.0,180,-,0,0.6189463999999134,-,-,-,,,,,,,,567,19,Woman,Right,,,,,,,,,,,,,,,,,567,19,Woman,Right,
1,1,1.0,0,-,0,0.016805299999759882,-,-,-,,,,,,,,567,19,Woman,Right,,,,,,,,,,,,,,,,,567,19,Woman,Right,
1,1,1.0,0,-,0,0.07924120000006951,-,-,-,,,,,,,,567,19,Woman,Right,,,,,,,,,,,,,,,,,567,19,Woman,Right,
1,1,1.0,180,-,180,0.33275830000002316,-,-,-,,,,,,,,567,19,Woman,Right,,,,,,,,,,,,,,,,,567,19,Woman,Right,
1,1,1.0,180,-,180,0.35907159999987925,-,-,-,,,,,,,,567,19,Woman,Right,,,,,,,,,,,,,,,,,567,19,Woman,Right,
1,1,1.0,0,-,180,0.09547589999965567,-,-,-,,,,,,,,567,19,Woman,Right,,,,,,,,,,,,,,,,,567,19,Woman,Right,
1,1,1.0,180,-,180,1.0347104000002219,-,-,-,,,,,,,,567,19,Woman,Right,,,,,,,,,,,,,,,,,567,19,Woman,Right,
1,1,1.0,180,-,0,0.3829869000001054,-,-,-,,,,,,,,567,19,Woman,Right,,,,,,,,,,,,,,,,,567,19,Woman,Right,
1,1,1.0,180,-,0,0.38272849999975733,-,-,-,,,,,,,,567,19,Woman,Right,,,,,,,,,,,,,,,,,567,19,Woman,Right,
1,1,1.0,0,-,180,0.016872799999873678,-,-,-,,,,,,,,567,19,Woman,Right,,,,,,,,,,,,,,,,,567,19,Woman,Right,
1,1,1.0,0,-,0,0.7184308999994755,-,-,-,,,,,,,,567,19,Woman,Right,,,,,,,,,,,,,,,,,567,19,Woman,Right,
1,1,1.0,180,-,0,0.34308820000023843,-,-,-,,,,,,,,567,19,Woman,Right,,,,,,,,,,,,,,,,,567,19,Woman,Right,
1,1,1.0,180,-,180,0.27285940000001574,-,-,-,,,,,,,,567,19,Woman,Right,,,,,,,,,,,,,,,,,567,19,Woman,Right,
1,1,1.0,180,-,180,0.23760570000013104,-,-,-,,,,,,,,567,19,Woman,Right,,,,,,,,,,,,,,,,,567,19,Woman,Right,
1,1,1.0,0,-,0,0.01694939999924827,-,-,-,,,,,,,,567,19,Woman,Right,,,,,,,,,,,,,,,,,567,19,Woman,Right,
1,1,1.0,180,-,0,0.0833929000000353,-,-,-,,,,,,,,567,19,Woman,Right,,,,,,,,,,,,,,,,,567,19,Woman,Right,
1,1,1.0,180,-,180,0.5024263999994218,-,-,-,,,,,,,,567,19,Woman,Right,,,,,,,,,,,,,,,,,567,19,Woman,Right,
1,1,1.0,180,-,180,0.016915700000026845,-,-,-,,,,,,,,567,19,Woman,Right,,,,,,,,,,,,,,,,,567,19,Woman,Right,
1,1,1.0,0,-,0,0.016722099999242346,-,-,-,,,,,,,,567,19,Woman,Right,,,,,,,,,,,,,,,,,567,19,Woman,Right,
1,1,1.0,180,-,0,0.2545964000000822,-,-,-,,,,,,,,567,19,Woman,Right,,,,,,,,,,,,,,,,,567,19,Woman,Right,
1,1,1.0,180,-,180,0.01674319999983709,-,-,-,,,,,,,,567,19,Woman,Right,,,,,,,,,,,,,,,,,567,19,Woman,Right,
1,1,1.0,180,-,180,0.4094734000000244,-,-,-,,,,,,,,567,19,Woman,Right,,,,,,,,,,,,,,,,,567,19,Woman,Right,
1,1,1.0,180,-,0,0.32748240000000806,-,-,-,,,,,,,,567,19,Woman,Right,,,,,,,,,,,,,,,,,567,19,Woman,Right,
1,1,1.0,180,-,180,0.3144164000004821,-,-,-,,,,,,,,567,19,Woman,Right,,,,,,,,,,,,,,,,,567,19,Woman,Right,
1,1,1.0,0,-,180,0.3090238999993744,-,-,-,,,,,,,,567,19,Woman,Right,,,,,,,,,,,,,,,,,567,19,Woman,Right,
1,1,1.0,0,-,0,0.016695199999958277,-,-,-,,,,,,,,567,19,Woman,Right,,,,,,,,,,,,,,,,,567,19,Woman,Right,
1,1,1.0,0,-,0,0.11773059999995894,-,-,-,,,,,,,,567,19,Woman,Right,,,,,,,,,,,,,,,,,567,19,Woman,Right,
1,1,1.0,180,-,180,0.06510989999969752,-,-,-,,,,,,,,567,19,Woman,Right,,,,,,,,,,,,,,,,,567,19,Woman,Right,
1,1,1.0,180,-,180,0.2938131999999314,-,-,-,,,,,,,,567,19,Woman,Right,,,,,,,,,,,,,,,,,567,19,Woman,Right,
1,1,1.0,0,-,0,0.016739800000323157,-,-,-,8,8,10,10,0.8,0.8,,567,19,Woman,Right,,,,,,,,,,,,,,,,,567,19,Woman,Right,
2,1,0.15,0,-,0,0.2523635000006834,-,-,-,,,,,,,,567,19,Woman,Right,,,,,,,,,,,,,,,,,567,19,Woman,Right,
2,1,0.15,180,-,180,0.272693299999446,-,-,-,,,,,,,,567,19,Woman,Right,,,,,,,,,,,,,,,,,567,19,Woman,Right,
2,1,0.15,180,-,0,0.016732799999772396,-,-,-,,,,,,,,567,19,Woman,Right,,,,,,,,,,,,,,,,,567,19,Woman,Right,
2,1,0.4,180,-,180,0.13163020000047254,-,-,-,,,,,,,,567,19,Woman,Right,,,,,,,,,,,,,,,,,567,19,Woman,Right,
2,1,0.4,0,-,180,0.01692650000040885,-,-,-,,,,,,,,567,19,Woman,Right,,,,,,,,,,,,,,,,,567,19,Woman,Right,
2,1,0.15,180,-,0,0.016727199999877485,-,-,-,,,,,,,,567,19,Woman,Right,,,,,,,,,,,,,,,,,567,19,Woman,Right,
2,1,0.4,0,-,180,0.09074599999985367,-,-,-,,,,,,,,567,19,Woman,Right,,,,,,,,,,,,,,,,,567,19,Woman,Right,
2,1,0.15,180,-,180,0.31119440000020404,-,-,-,,,,,,,,567,19,Woman,Right,,,,,,,,,,,,,,,,,567,19,Woman,Right,
2,1,0.15,180,-,0,0.29806680000001506,-,-,-,,,,,,,,567,19,Woman,Right,,,,,,,,,,,,,,,,,567,19,Woman,Right,
2,1,0.15,0,-,180,0.30150009999942995,-,-,-,,,,,,,,567,19,Woman,Right,,,,,,,,,,,,,,,,,567,19,Woman,Right,
2,1,0.15,180,-,180,0.2966317999998864,-,-,-,,,,,,,,567,19,Woman,Right,,,,,,,,,,,,,,,,,567,19,Woman,Right,
2,1,0.4,180,-,0,0.3556486000006771,-,-,-,,,,,,,,567,19,Woman,Right,,,,,,,,,,,,,,,,,567,19,Woman,Right,
2,1,0.15,180,-,0,0.28455959999973857,-,-,-,,,,,,,,567,19,Woman,Right,,,,,,,,,,,,,,,,,567,19,Woman,Right,
2,1,0.15,180,-,180,0.4635982999998305,-,-,-,,,,,,,,567,19,Woman,Right,,,,,,,,,,,,,,,,,567,19,Woman,Right,
2,1,0.4,0,-,180,0.2527122999999847,-,-,-,,,,,,,,567,19,Woman,Right,,,,,,,,,,,,,,,,,567,19,Woman,Right,
2,1,0.4,0,-,0,0.09725989999969897,-,-,-,,,,,,,,567,19,Woman,Right,,,,,,,,,,,,,,,,,567,19,Woman,Right,
2,1,0.4,180,-,180,0.28456329999971786,-,-,-,,,,,,,,567,19,Woman,Right,,,,,,,,,,,,,,,,,567,19,Woman,Right,
2,1,0.15,0,-,0,0.26684649999970134,-,-,-,,,,,,,,567,19,Woman,Right,,,,,,,,,,,,,,,,,567,19,Woman,Right,
2,1,0.4,180,-,0,0.2764501999999993,-,-,-,,,,,,,,567,19,Woman,Right,,,,,,,,,,,,,,,,,567,19,Woman,Right,
2,1,0.15,0,-,180,0.26446279999981925,-,-,-,,,,,,,,567,19,Woman,Right,,,,,,,,,,,,,,,,,567,19,Woman,Right,
2,1,0.4,0,-,0,0.4211032000002888,-,-,-,,,,,,,,567,19,Woman,Right,,,,,,,,,,,,,,,,,567,19,Woman,Right,
2,1,0.15,0,-,0,0.04283080000004702,-,-,-,,,,,,,,567,19,Woman,Right,,,,,,,,,,,,,,,,,567,19,Woman,Right,
2,1,0.4,180,-,180,0.2323591000003944,-,-,-,,,,,,,,567,19,Woman,Right,,,,,,,,,,,,,,,,,567,19,Woman,Right,
2,1,0.15,180,-,0,0.9102038999999422,-,-,-,,,,,,,,567,19,Woman,Right,,,,,,,,,,,,,,,,,567,19,Woman,Right,
2,1,0.4,180,-,180,0.09709649999967951,-,-,-,,,,,,,,567,19,Woman,Right,,,,,,,,,,,,,,,,,567,19,Woman,Right,
2,1,0.15,0,-,0,0.1490683000001809,-,-,-,,,,,,,,567,19,Woman,Right,,,,,,,,,,,,,,,,,567,19,Woman,Right,
2,1,0.15,180,-,180,0.3337061000001995,-,-,-,,,,,,,,567,19,Woman,Right,,,,,,,,,,,,,,,,,567,19,Woman,Right,
2,1,0.15,180,-,0,0.1589325999993889,-,-,-,,,,,,,,567,19,Woman,Right,,,,,,,,,,,,,,,,,567,19,Woman,Right,
2,1,0.15,0,-,0,0.3674823999999717,-,-,-,,,,,,,,567,19,Woman,Right,,,,,,,,,,,,,,,,,567,19,Woman,Right,
2,1,0.15,0,-,180,0.28822279999985767,-,-,-,7,3,10,3,0.7,1.0,,567,19,Woman,Right,,,,,,,,,,,,,,,,,567,19,Woman,Right,
3,2,1.0,0,180,0,0.836895800000093,['n'],5.483863800000108,1.158,,,,,,,,567,19,Woman,Right,,,,,,,,,,,,,,,,,567,19,Woman,Right,
3,2,1.0,180,0,0,0.6552190000002156,['n'],1.7497075000001132,1.222,,,,,,,,567,19,Woman,Right,,,,,,,,,,,,,,,,,567,19,Woman,Right,
3,2,1.0,0,180,0,2.8888800000004267,['y'],2.346704700000373,1.33,,,,,,,,567,19,Woman,Right,,,,,,,,,,,,,,,,,567,19,Woman,Right,
3,2,1.0,0,180,0,0.7894082000002527,['n'],2.0874071999996886,1.162,,,,,,,,567,19,Woman,Right,,,,,,,,,,,,,,,,,567,19,Woman,Right,
3,2,1.0,180,0,0,0.5001238999993802,['n'],1.0247215999997934,1.198,,,,,,,,567,19,Woman,Right,,,,,,,,,,,,,,,,,567,19,Woman,Right,
3,2,1.0,0,180,0,0.782268799999656,['y'],1.3931055000002743,1.198,,,,,,,,567,19,Woman,Right,,,,,,,,,,,,,,,,,567,19,Woman,Right,
3,2,1.0,0,180,0,0.6035175999995772,['n'],2.1003044999997655,1.198,,,,,,,,567,19,Woman,Right,,,,,,,,,,,,,,,,,567,19,Woman,Right,
3,2,1.0,0,180,0,1.5042929999999615,['y'],0.5893882999998823,1.198,,,,,,,,567,19,Woman,Right,,,,,,,,,,,,,,,,,567,19,Woman,Right,
3,2,1.0,180,0,180,0.3514334000001327,['y'],1.218215799999598,1.198,,,,,,,,567,19,Woman,Right,,,,,,,,,,,,,,,,,567,19,Woman,Right,
3,2,1.0,180,0,180,1.5441909000001033,['y'],0.6026566999998977,1.198,,,,,,,,567,19,Woman,Right,,,,,,,,,,,,,,,,,567,19,Woman,Right,
3,2,1.0,180,0,0,0.3063187999996444,['y'],0.6319750000002387,1.198,,,,,,,,567,19,Woman,Right,,,,,,,,,,,,,,,,,567,19,Woman,Right,
3,2,1.0,180,0,0,1.0994485000001077,['y'],0.4004080000004251,1.198,,,,,,,,567,19,Woman,Right,,,,,,,,,,,,,,,,,567,19,Woman,Right,
3,2,1.0,180,0,180,0.7956429000005301,['y'],0.3166421999994782,1.198,,,,,,,,567,19,Woman,Right,,,,,,,,,,,,,,,,,567,19,Woman,Right,
3,2,1.0,180,0,0,0.3636530000003404,['y'],1.4783480999994936,1.384,,,,,,,,567,19,Woman,Right,,,,,,,,,,,,,,,,,567,19,Woman,Right,
3,2,1.0,180,0,0,0.3357291999991503,['y'],0.3398778000000675,1.384,,,,,,,,567,19,Woman,Right,,,,,,,,,,,,,,,,,567,19,Woman,Right,
3,2,1.0,0,180,0,0.01689150000038353,['y'],0.4400545999997121,1.384,,,,,,,,567,19,Woman,Right,,,,,,,,,,,,,,,,,567,19,Woman,Right,
3,2,1.0,0,180,180,0.016518400000677502,['y'],0.5329454000002443,1.384,,,,,,,,567,19,Woman,Right,,,,,,,,,,,,,,,,,567,19,Woman,Right,
3,2,1.0,180,0,180,2.904437400000461,['y'],3.5865484999994806,1.48,,,,,,,,567,19,Woman,Right,,,,,,,,,,,,,,,,,567,19,Woman,Right,
3,2,1.0,180,0,0,0.258464699999422,['y'],0.4571449000004577,1.462,,,,,,,,567,19,Woman,Right,,,,,,,,,,,,,,,,,567,19,Woman,Right,
3,2,1.0,0,180,0,0.030908600000657316,['y'],0.3196822999998403,1.462,,,,,,,,567,19,Woman,Right,,,,,,,,,,,,,,,,,567,19,Woman,Right,
3,2,1.0,180,0,0,0.05383910000000469,['y'],0.43810819999998785,1.462,,,,,,,,567,19,Woman,Right,,,,,,,,,,,,,,,,,567,19,Woman,Right,
3,2,1.0,0,180,180,1.6432395000001634,['y'],0.37763970000014524,1.462,,,,,,,,567,19,Woman,Right,,,,,,,,,,,,,,,,,567,19,Woman,Right,
3,2,1.0,0,180,180,0.9471924999998009,['y'],0.3425009000002319,1.462,,,,,,,,567,19,Woman,Right,,,,,,,,,,,,,,,,,567,19,Woman,Right,
3,2,1.0,180,0,0,0.05025610000029701,['y'],0.31550009999955364,1.462,,,,,,,,567,19,Woman,Right,,,,,,,,,,,,,,,,,567,19,Woman,Right,
3,2,1.0,180,0,180,0.5070088000002215,['y'],0.36016749999998865,1.462,,,,,,,,567,19,Woman,Right,,,,,,,,,,,,,,,,,567,19,Woman,Right,
3,2,1.0,180,0,0,0.01705339999989519,['n'],0.48416439999982686,1.462,,,,,,,,567,19,Woman,Right,,,,,,,,,,,,,,,,,567,19,Woman,Right,
3,2,1.0,0,180,180,0.17898430000059307,['y'],0.341665699999794,1.538,,,,,,,,567,19,Woman,Right,,,,,,,,,,,,,,,,,567,19,Woman,Right,
3,2,1.0,0,180,0,0.20651599999928294,['y'],0.29558970000016416,1.538,,,,,,,,567,19,Woman,Right,,,,,,,,,,,,,,,,,567,19,Woman,Right,
3,2,1.0,180,0,0,0.016596100000242586,['y'],0.26719780000075843,1.538,,,,,,,,567,19,Woman,Right,,,,,,,,,,,,,,,,,567,19,Woman,Right,
3,2,1.0,180,0,180,0.2774061999998594,['y'],0.24324160000014672,1.538,,,,,,,,567,19,Woman,Right,,,,,,,,,,,,,,,,,567,19,Woman,Right,
3,2,1.0,180,0,0,0.262551099999655,['y'],0.2536437999997361,1.538,,,,,,,,567,19,Woman,Right,,,,,,,,,,,,,,,,,567,19,Woman,Right,
3,2,1.0,0,180,180,0.1246486999998524,['y'],0.4097140000003492,1.538,,,,,,,,567,19,Woman,Right,,,,,,,,,,,,,,,,,567,19,Woman,Right,
3,2,1.0,0,180,0,0.057328099999722326,['y'],1.7846653000005972,1.538,,,,,,,,567,19,Woman,Right,,,,,,,,,,,,,,,,,567,19,Woman,Right,
3,2,1.0,0,180,180,0.10606689999985974,['y'],0.6641196999999011,1.538,,,,,,,,567,19,Woman,Right,,,,,,,,,,,,,,,,,567,19,Woman,Right,
3,2,1.0,180,0,0,0.03823489999922458,['y'],0.4634070000001884,1.604,,,,,,,,567,19,Woman,Right,,,,,,,,,,,,,,,,,567,19,Woman,Right,
3,2,1.0,180,0,0,0.09643990000040503,['y'],0.493868300000031,1.6280000000000001,,,,,,,,567,19,Woman,Right,,,,,,,,,,,,,,,,,567,19,Woman,Right,
3,2,1.0,180,0,0,0.023244200000590354,['y'],0.4635740000003352,1.638,,,,,,,,567,19,Woman,Right,,,,,,,,,,,,,,,,,567,19,Woman,Right,
3,2,1.0,180,0,0,0.016732000000047265,['y'],0.4913251999996646,1.638,,,,,,,,567,19,Woman,Right,,,,,,,,,,,,,,,,,567,19,Woman,Right,
3,2,1.0,180,0,180,0.3654921999996077,['y'],0.23263389999920037,1.638,,,,,,,,567,19,Woman,Right,,,,,,,,,,,,,,,,,567,19,Woman,Right,
3,2,1.0,180,0,0,0.04379770000014105,['y'],0.31557429999975284,1.638,8,8,10,10,0.8,0.8,,567,19,Woman,Right,,,,,,,,,,,,,,,,,567,19,Woman,Right,
4,2,0.4,180,0,0,2.2689324999992095,['y'],0.4204285000005257,1.238,,,,,,,,567,19,Woman,Right,,,,,,,,,,,,,,,,,567,19,Woman,Right,
4,2,0.4,0,180,180,0.11689050000040879,['y'],0.268582100000458,1.222,,,,,,,,567,19,Woman,Right,,,,,,,,,,,,,,,,,567,19,Woman,Right,
4,2,0.15,180,0,0,1.609411700000237,['y'],0.5617076999997153,1.222,,,,,,,,567,19,Woman,Right,,,,,,,,,,,,,,,,,567,19,Woman,Right,
4,2,0.4,180,0,0,0.554391200000282,['y'],0.3097061999997095,1.222,,,,,,,,567,19,Woman,Right,,,,,,,,,,,,,,,,,567,19,Woman,Right,
4,2,0.15,0,180,0,0.102350999999544,['y'],0.5155801000000793,1.222,,,,,,,,567,19,Woman,Right,,,,,,,,,,,,,,,,,567,19,Woman,Right,
4,2,0.15,180,0,0,0.5820266999999149,['y'],0.5915924000000814,1.248,,,,,,,,567,19,Woman,Right,,,,,,,,,,,,,,,,,567,19,Woman,Right,
4,2,0.15,0,180,180,0.30746819999967556,['y'],0.6806143000003431,1.248,,,,,,,,567,19,Woman,Right,,,,,,,,,,,,,,,,,567,19,Woman,Right,
4,2,0.4,180,0,180,0.4055894000002809,['y'],1.5428659999997762,1.248,,,,,,,,567,19,Woman,Right,,,,,,,,,,,,,,,,,567,19,Woman,Right,
4,2,0.4,180,0,0,0.016898699999728706,['y'],0.389998800000285,1.248,,,,,,,,567,19,Woman,Right,,,,,,,,,,,,,,,,,567,19,Woman,Right,
4,2,0.4,180,0,0,0.04935230000046431,['y'],0.46734620000006544,1.244,8,5,10,6,0.8,0.8333333333333334,,567,19,Woman,Right,,,,,,,,,,,,,,,,,567,19,Woman,Right,
5,3,0.4,0,180,0,1.9456798000001072,['y'],0.7794380999994246,1.1019999999999999,,,,,,,,567,19,Woman,Right,,,,,,,,,,,,,,,,,567,19,Woman,Right,
5,3,0.4,0,-,0,0.8584104000001389,['n'],0.4091842000016186,1.1019999999999999,,,,,,,,567,19,Woman,Right,,,,,,,,,,,,,,,,,567,19,Woman,Right,
5,3,0.4,180,0,180,0.7064297999986593,['y'],0.4231868000006216,1.1320000000000001,,,,,,,,567,19,Woman,Right,,,,,,,,,,,,,,,,,567,19,Woman,Right,
5,3,0.15,180,-,0,0.3354881999985082,['y'],0.30773079999926267,1.1320000000000001,,,,,,,,567,19,Woman,Right,,,,,,,,,,,,,,,,,567,19,Woman,Right,
5,3,0.15,180,0,180,0.32496639999953914,['y'],0.2814851000002818,1.1320000000000001,,,,,,,,567,19,Woman,Right,,,,,,,,,,,,,,,,,567,19,Woman,Right,
5,3,0.15,0,180,0,0.33082309999917925,['y'],0.46317520000047807,1.1320000000000001,,,,,,,,567,19,Woman,Right,,,,,,,,,,,,,,,,,567,19,Woman,Right,
5,3,0.4,0,180,0,0.36636429999998654,['n'],0.41871720000017376,1.1320000000000001,,,,,,,,567,19,Woman,Right,,,,,,,,,,,,,,,,,567,19,Woman,Right,
5,3,0.15,180,0,0,0.016723800001273048,['n'],0.9211549999999988,1.1320000000000001,,,,,,,,567,19,Woman,Right,,,,,,,,,,,,,,,,,567,19,Woman,Right,
5,3,0.15,0,180,180,0.30055170000014186,['y'],0.30555309999908786,1.1320000000000001,,,,,,,,567,19,Woman,Right,,,,,,,,,,,,,,,,,567,19,Woman,Right,
5,3,0.15,180,0,0,0.33481899999969755,['y'],0.3060739000011381,1.1320000000000001,,,,,,,,567,19,Woman,Right,,,,,,,,,,,,,,,,,567,19,Woman,Right,
5,3,0.15,0,180,0,0.5076805999997305,['y'],0.5280468999990262,1.1320000000000001,,,,,,,,567,19,Woman,Right,,,,,,,,,,,,,,,,,567,19,Woman,Right,
5,3,1.0,0,180,0,0.05794599999899219,['y'],0.25661300000138,1.1320000000000001,,,,,,,,567,19,Woman,Right,,,,,,,,,,,,,,,,,567,19,Woman,Right,
5,3,0.4,180,-,180,0.8924052000002121,['y'],0.5859206999994058,1.142,,,,,,,,567,19,Woman,Right,,,,,,,,,,,,,,,,,567,19,Woman,Right,
5,3,0.15,0,180,0,1.6213664000006247,['y'],0.6283992999997281,1.168,,,,,,,,567,19,Woman,Right,,,,,,,,,,,,,,,,,567,19,Woman,Right,
5,3,1.0,180,-,0,0.09819000000061351,['y'],0.7607733000004373,1.168,,,,,,,,567,19,Woman,Right,,,,,,,,,,,,,,,,,567,19,Woman,Right,
5,3,0.15,0,180,180,0.2660897000005207,['y'],0.31222840000009455,1.168,,,,,,,,567,19,Woman,Right,,,,,,,,,,,,,,,,,567,19,Woman,Right,
5,3,0.4,0,-,180,0.3582764999991923,['y'],0.36880550000023504,1.168,,,,,,,,567,19,Woman,Right,,,,,,,,,,,,,,,,,567,19,Woman,Right,
5,3,1.0,0,180,0,0.10137510000095062,['y'],0.48286540000117384,1.168,,,,,,,,567,19,Woman,Right,,,,,,,,,,,,,,,,,567,19,Woman,Right,
5,3,1.0,0,-,0,0.022096699998655822,['n'],0.31136660000083793,1.168,,,,,,,,567,19,Woman,Right,,,,,,,,,,,,,,,,,567,19,Woman,Right,
5,3,1.0,0,180,180,0.016750799999499577,['y'],1.1269228000001021,1.168,,,,,,,,567,19,Woman,Right,,,,,,,,,,,,,,,,,567,19,Woman,Right,
5,3,0.4,180,-,0,0.09828129999914381,['y'],0.15231189999940398,1.168,,,,,,,,567,19,Woman,Right,,,,,,,,,,,,,,,,,567,19,Woman,Right,
5,3,0.15,0,-,180,0.35613029999876744,['n'],1.1443303000014566,1.172,,,,,,,,567,19,Woman,Right,,,,,,,,,,,,,,,,,567,19,Woman,Right,
5,3,1.0,0,180,0,0.4149158999989595,['y'],0.39981710000029125,1.208,,,,,,,,567,19,Woman,Right,,,,,,,,,,,,,,,,,567,19,Woman,Right,
5,3,0.15,180,0,0,0.2545472999991034,['y'],0.1826603999998042,1.184,,,,,,,,567,19,Woman,Right,,,,,,,,,,,,,,,,,567,19,Woman,Right,
5,3,1.0,180,-,180,0.10000290000061796,['y'],0.3012794999995094,1.184,,,,,,,,567,19,Woman,Right,,,,,,,,,,,,,,,,,567,19,Woman,Right,
5,3,1.0,180,-,0,0.016779600000518258,['y'],0.2976337000000058,1.184,,,,,,,,567,19,Woman,Right,,,,,,,,,,,,,,,,,567,19,Woman,Right,
5,3,0.4,0,-,180,0.1849552000003314,['n'],0.5311070000007021,1.184,,,,,,,,567,19,Woman,Right,,,,,,,,,,,,,,,,,567,19,Woman,Right,
5,3,0.4,180,-,0,0.016679099999237224,['n'],0.26369789999989734,1.184,,,,,,,,567,19,Woman,Right,,,,,,,,,,,,,,,,,567,19,Woman,Right,
5,3,0.4,180,0,180,0.016840199999933247,['y'],2.998964000000342,1.184,,,,,,,,567,19,Woman,Right,,,,,,,,,,,,,,,,,567,19,Woman,Right,
5,3,0.4,0,180,0,0.13466750000043248,['n'],4.522518100000525,1.252,,,,,,,,567,19,Woman,Right,,,,,,,,,,,,,,,,,567,19,Woman,Right,
5,3,0.4,180,-,0,0.8215686999992613,['y'],0.7729241000015463,1.26,,,,,,,,567,19,Woman,Right,,,,,,,,,,,,,,,,,567,19,Woman,Right,
5,3,0.15,0,-,0,0.6247346000000107,['y'],0.27286159999857773,1.26,,,,,,,,567,19,Woman,Right,,,,,,,,,,,,,,,,,567,19,Woman,Right,
5,3,1.0,0,180,180,0.24546460000055959,['y'],0.64521539999987,1.26,,,,,,,,567,19,Woman,Right,,,,,,,,,,,,,,,,,567,19,Woman,Right,
5,3,0.4,0,180,0,0.3495412000011129,['n'],0.8029097999988153,1.26,,,,,,,,567,19,Woman,Right,,,,,,,,,,,,,,,,,567,19,Woman,Right,
5,3,0.4,0,180,0,0.15903109999999288,['y'],0.20936900000015157,1.26,,,,,,,,567,19,Woman,Right,,,,,,,,,,,,,,,,,567,19,Woman,Right,
5,3,0.15,0,180,180,0.016732100000808714,['n'],0.6556931000013719,1.26,,,,,,,,567,19,Woman,Right,,,,,,,,,,,,,,,,,567,19,Woman,Right,
5,3,0.15,0,-,0,0.08069450000039069,['y'],0.5595184000012523,1.26,,,,,,,,567,19,Woman,Right,,,,,,,,,,,,,,,,,567,19,Woman,Right,
5,3,0.15,0,180,180,0.34732529999928374,['y'],0.3425700000007055,1.26,,,,,,,,567,19,Woman,Right,,,,,,,,,,,,,,,,,567,19,Woman,Right,
5,3,0.4,0,180,0,0.49453229999926407,['n'],0.3733840999993845,1.26,,,,,,,,567,19,Woman,Right,,,,,,,,,,,,,,,,,567,19,Woman,Right,
5,3,0.15,180,0,180,0.06868320000103267,['y'],0.26032279999890306,1.26,,,,,,,,567,19,Woman,Right,,,,,,,,,,,,,,,,,567,19,Woman,Right,
5,3,0.15,180,0,0,0.29830220000076224,['y'],1.2235411000001477,1.26,,,,,,,,567,19,Woman,Right,,,,,,,,,,,,,,,,,567,19,Woman,Right,
5,3,1.0,0,180,180,0.6623756999997568,['y'],0.5010073000012198,1.24,,,,,,,,567,19,Woman,Right,,,,,,,,,,,,,,,,,567,19,Woman,Right,
5,3,0.15,180,-,180,0.20318199999928765,['y'],0.4843303999987256,1.224,,,,,,,,567,19,Woman,Right,,,,,,,,,,,,,,,,,567,19,Woman,Right,
5,3,0.4,180,-,0,0.08236910000050557,['y'],1.1921642999986943,1.218,,,,,,,,567,19,Woman,Right,,,,,,,,,,,,,,,,,567,19,Woman,Right,
5,3,0.4,180,0,180,0.3197569999992993,['y'],0.43491530000028433,1.232,,,,,,,,567,19,Woman,Right,,,,,,,,,,,,,,,,,567,19,Woman,Right,
5,3,1.0,0,180,0,0.16930259999935515,['n'],0.5396382999988418,1.214,,,,,,,,567,19,Woman,Right,,,,,,,,,,,,,,,,,567,19,Woman,Right,
5,3,1.0,0,180,180,1.4143927999994048,['y'],0.5341724999998405,1.214,,,,,,,,567,19,Woman,Right,,,,,,,,,,,,,,,,,567,19,Woman,Right,
5,3,1.0,0,-,0,1.1321728000002622,['y'],1.8155281999988802,1.208,,,,,,,,567,19,Woman,Right,,,,,,,,,,,,,,,,,567,19,Woman,Right,
5,3,0.4,0,180,180,2.2336994000015693,['y'],2.1125358999997843,1.208,,,,,,,,567,19,Woman,Right,,,,,,,,,,,,,,,,,567,19,Woman,Right,
5,3,0.4,180,-,0,0.10485119999975723,['y'],0.4458498000003601,1.208,,,,,,,,567,19,Woman,Right,,,,,,,,,,,,,,,,,567,19,Woman,Right,
5,3,0.4,180,0,180,0.26485890000003565,['y'],1.2079616000009992,1.208,,,,,,,,567,19,Woman,Right,,,,,,,,,,,,,,,,,567,19,Woman,Right,
5,3,0.4,0,-,0,0.2782091999997647,['y'],1.7161126999999397,1.208,,,,,,,,567,19,Woman,Right,,,,,,,,,,,,,,,,,567,19,Woman,Right,
5,3,0.15,0,-,180,3.3834563000000344,['y'],0.26274279999961436,1.208,,,,,,,,567,19,Woman,Right,,,,,,,,,,,,,,,,,567,19,Woman,Right,
5,3,1.0,0,180,0,0.36539080000147806,['y'],0.7038996999999654,1.208,,,,,,,,567,19,Woman,Right,,,,,,,,,,,,,,,,,567,19,Woman,Right,
5,3,0.15,180,0,0,0.18995410000025004,['n'],0.3431252999998833,1.208,,,,,,,,567,19,Woman,Right,,,,,,,,,,,,,,,,,567,19,Woman,Right,
5,3,0.4,0,-,180,0.01638029999958235,['y'],0.28479719999995723,1.208,,,,,,,,567,19,Woman,Right,,,,,,,,,,,,,,,,,567,19,Woman,Right,
5,3,0.4,180,0,0,0.01672320000034233,['y'],0.26312290000169014,1.208,,,,,,,,567,19,Woman,Right,,,,,,,,,,,,,,,,,567,19,Woman,Right,
5,3,0.15,180,-,180,0.01696980000087933,['y'],1.6393943000002764,1.208,,,,,,,,567,19,Woman,Right,,,,,,,,,,,,,,,,,567,19,Woman,Right,
5,3,0.4,180,-,0,0.0167793000000529,['y'],0.6491497999995772,1.208,,,,,,,,567,19,Woman,Right,,,,,,,,,,,,,,,,,567,19,Woman,Right,
5,3,0.4,180,-,0,1.2696376999992935,['n'],0.5553875999994489,1.208,,,,,,,,567,19,Woman,Right,,,,,,,,,,,,,,,,,567,19,Woman,Right,
5,3,0.4,0,-,180,0.9396780000006402,['y'],1.1268930999995064,1.208,,,,,,,,567,19,Woman,Right,,,,,,,,,,,,,,,,,567,19,Woman,Right,
5,3,0.15,180,0,0,0.27208749999954307,['y'],0.5027223999986745,1.208,,,,,,,,567,19,Woman,Right,,,,,,,,,,,,,,,,,567,19,Woman,Right,
5,3,0.15,0,180,180,0.1379135999995924,['y'],0.43009600000004866,1.25,,,,,,,,567,19,Woman,Right,,,,,,,,,,,,,,,,,567,19,Woman,Right,
5,3,1.0,0,-,180,1.399063799999567,['n'],0.4153777999999875,1.25,,,,,,,,567,19,Woman,Right,,,,,,,,,,,,,,,,,567,19,Woman,Right,
5,3,1.0,0,-,0,0.33840110000164714,['n'],0.26195240000015474,1.25,,,,,,,,567,19,Woman,Right,,,,,,,,,,,,,,,,,567,19,Woman,Right,
5,3,0.4,0,180,180,1.7585615999996662,['y'],0.6242400999999518,1.248,,,,,,,,567,19,Woman,Right,,,,,,,,,,,,,,,,,567,19,Woman,Right,
5,3,0.15,0,-,0,0.04718159999902127,['n'],0.3109000999993441,1.248,,,,,,,,567,19,Woman,Right,,,,,,,,,,,,,,,,,567,19,Woman,Right,
5,3,1.0,180,0,0,0.2404420000002574,['n'],0.25671190000139177,1.248,,,,,,,,567,19,Woman,Right,,,,,,,,,,,,,,,,,567,19,Woman,Right,
5,3,1.0,180,0,0,0.09825219999947876,['n'],0.992463200000202,1.248,,,,,,,,567,19,Woman,Right,,,,,,,,,,,,,,,,,567,19,Woman,Right,
5,3,0.15,180,0,180,0.7839889000006224,['n'],0.2692756999986159,1.248,,,,,,,,567,19,Woman,Right,,,,,,,,,,,,,,,,,567,19,Woman,Right,
5,3,0.4,0,180,180,0.15022990000034042,['y'],0.39878930000122637,1.248,,,,,,,,567,19,Woman,Right,,,,,,,,,,,,,,,,,567,19,Woman,Right,
5,3,1.0,180,0,0,0.367690400000356,['n'],0.3137631000008696,1.248,,,,,,,,567,19,Woman,Right,,,,,,,,,,,,,,,,,567,19,Woman,Right,
5,3,0.15,0,-,0,0.43680569999924046,['y'],0.03667400000085763,1.248,,,,,,,,567,19,Woman,Right,,,,,,,,,,,,,,,,,567,19,Woman,Right,
5,3,1.0,0,-,0,0.01666549999936251,['n'],0.31156929999997374,1.248,,,,,,,,567,19,Woman,Right,,,,,,,,,,,,,,,,,567,19,Woman,Right,
5,3,0.15,180,0,0,0.2783870000002935,['y'],3.2769578999996156,1.248,,,,,,,,567,19,Woman,Right,,,,,,,,,,,,,,,,,567,19,Woman,Right,
5,3,1.0,0,-,180,0.6217120999990584,['y'],1.135103500000696,1.248,,,,,,,,567,19,Woman,Right,,,,,,,,,,,,,,,,,567,19,Woman,Right,
5,3,1.0,180,0,0,0.0464231000005384,['y'],1.254004200000054,1.248,,,,,,,,567,19,Woman,Right,,,,,,,,,,,,,,,,,567,19,Woman,Right,
5,3,0.4,180,0,0,0.3024081000003207,['y'],3.930930599999556,1.248,,,,,,,,567,19,Woman,Right,,,,,,,,,,,,,,,,,567,19,Woman,Right,
5,3,0.4,0,180,180,1.510035200000857,['y'],1.0905499000000418,1.248,,,,,,,,567,19,Woman,Right,,,,,,,,,,,,,,,,,567,19,Woman,Right,
5,3,0.4,180,0,0,0.03988000000026659,['y'],0.3765121000014915,1.248,9,7,10,8,0.9,0.875,,567,19,Woman,Right,,,,,,,,,,,,,,,,,567,19,Woman,Right,
,,,,,,,,,,,,,,,,4.100000296602957e-06,567,19,Woman,Right,,,,,,,,,,,,,,,,,567,19,Woman,Right,
,,,,,,,,,,,,,,,,,567,19,Woman,Right,0,8,0.4,1,0,-,0,0.9871440999995684,['y'],3.5106436000005488,1.248,939.4515031000001,,,,,567,19,Woman,Right,
,,,,,,,,,,,,,,,,,567,19,Woman,Right,0,50,0.15,1,180,-,180,0.34673449999900186,['y'],1.2951665000000503,1.248,943.8225754000005,,,,,567,19,Woman,Right,
,,,,,,,,,,,,,,,,,567,19,Woman,Right,0,14,0.4,1,180,-,0,0.2932746999995288,['y'],0.9350470999997924,1.248,947.3093192000006,,,,,567,19,Woman,Right,
,,,,,,,,,,,,,,,,,567,19,Woman,Right,0,9,0.4,2,0,180,180,1.916993900000307,['y'],0.6469357999994827,1.248,952.2476763999994,,,,,567,19,Woman,Right,
,,,,,,,,,,,,,,,,,567,19,Woman,Right,0,74,0.15,1,180,-,0,0.3336677999996027,['n'],2.1430053999993106,1.248,958.0200589999995,,,,,567,19,Woman,Right,
,,,,,,,,,,,,,,,,,567,19,Woman,Right,0,38,0.4,1,180,-,0,1.4311913999990793,['n'],1.046938899999077,1.248,963.2255446999998,,,,,567,19,Woman,Right,
,,,,,,,,,,,,,,,,,567,19,Woman,Right,0,64,0.15,1,0,-,0,0.22129010000026028,['y'],1.8709342000001925,1.248,968.2638137000004,,,,,567,19,Woman,Right,
,,,,,,,,,,,,,,,,,567,19,Woman,Right,0,79,0.15,2,180,0,180,1.9830242000007274,['y'],2.2552176999997755,1.248,975.4708514000004,,,,,567,19,Woman,Right,
,,,,,,,,,,,,,,,,,567,19,Woman,Right,0,12,0.4,1,0,-,0,0.05101189999913913,['n'],1.0550382999990688,1.248,978.9575262000008,,,,,567,19,Woman,Right,
,,,,,,,,,,,,,,,,,567,19,Woman,Right,0,4,1,1,0,-,0,0.3023926999994728,['n'],2.598936700000195,1.248,984.1460880999994,,,,,567,19,Woman,Right,
,,,,,,,,,,,,,,,,,567,19,Woman,Right,0,78,0.15,1,180,-,0,0.3400755000002391,['y'],0.4948858999996446,1.248,987.3160426000004,,,,,567,19,Woman,Right,
,,,,,,,,,,,,,,,,,567,19,Woman,Right,0,1,1,2,0,180,180,0.016770700000051875,['y'],0.5707799000010709,1.248,990.9362212000005,,,,,567,19,Woman,Right,
,,,,,,,,,,,,,,,,,567,19,Woman,Right,0,39,0.4,2,180,0,0,0.36218510000071547,['y'],0.5589733000015258,1.248,994.1561372000006,,,,,567,19,Woman,Right,
,,,,,,,,,,,,,,,,,567,19,Woman,Right,0,7,1,2,180,0,180,0.2954230000013922,['y'],0.7025632999993832,1.248,997.5102610000004,,,,,567,19,Woman,Right,
,,,,,,,,,,,,,,,,,567,19,Woman,Right,0,16,0.4,1,0,-,0,0.1889842000000499,['n'],0.6790736000002653,1.248,1000.7291620999995,,,,,567,19,Woman,Right,
,,,,,,,,,,,,,,,,,567,19,Woman,Right,0,43,0.4,2,180,0,0,1.1704501000003802,['y'],0.29487350000090373,1.248,1004.7843724999993,,,,,567,19,Woman,Right,
,,,,,,,,,,,,,,,,,567,19,Woman,Right,0,37,0.4,2,0,180,180,0.32105630000114616,['y'],0.43892959999902814,1.248,1008.6204755999997,,,,,567,19,Woman,Right,
,,,,,,,,,,,,,,,,,567,19,Woman,Right,0,67,0.15,2,180,0,180,1.5472336999991967,['y'],0.6794661000003543,1.248,1013.1916367000003,,,,,567,19,Woman,Right,
,,,,,,,,,,,,,,,,,567,19,Woman,Right,0,18,0.4,1,180,-,0,2.5009310000004916,['y'],0.4468102999999246,1.248,1018.5638427999993,,,,,567,19,Woman,Right,
,,,,,,,,,,,,,,,,,567,19,Woman,Right,0,25,0.4,2,0,180,0,0.3048402000003989,['n'],0.6469969000008859,1.248,1022.4340836000001,,,,,567,19,Woman,Right,
,,,,,,,,,,,,,,,,,567,19,Woman,Right,0,32,0.4,1,0,-,0,0.5193497000000207,['n'],0.5668558999986999,1.248,1026.0878657000003,,,,,567,19,Woman,Right,
,,,,,,,,,,,,,,,,,567,19,Woman,Right,0,66,0.15,1,180,-,180,0.43379750000167405,['y'],0.5703817999983585,1.248,1029.5080604000004,,,,,567,19,Woman,Right,
,,,,,,,,,,,,,,,,,567,19,Woman,Right,0,5,1,2,0,180,0,0.3118688000013208,['y'],0.623044399999344,1.248,1032.761378600001,,,,,567,19,Woman,Right,
,,,,,,,,,,,,,,,,,567,19,Woman,Right,0,3,1,2,180,0,180,0.5453268000001117,['y'],0.35920420000002196,1.248,1036.6151655000003,,,,,567,19,Woman,Right,
,,,,,,,,,,,,,,,,,567,19,Woman,Right,0,68,0.15,1,0,-,0,0.3046496999995725,['n'],0.5986121000005369,1.248,1040.3686824000006,,,,,567,19,Woman,Right,
,,,,,,,,,,,,,,,,,567,19,Woman,Right,0,60,0.15,1,0,-,180,1.811405599999489,['n'],0.7826191999993171,1.248,1046.858612500001,,,,,567,19,Woman,Right,
,,,,,,,,,,,,,,,,,567,19,Woman,Right,0,2,1,1,180,-,0,0.49981710000065505,['n'],0.5349347999999736,1.248,1050.0616512000006,,,,,567,19,Woman,Right,
,,,,,,,,,,,,,,,,,567,19,Woman,Right,0,72,0.15,1,0,-,180,0.4214621999999508,['y'],0.29539890000160085,1.248,1053.098061900001,,,,,567,19,Woman,Right,
,,,,,,,,,,,,,,,,,567,19,Woman,Right,0,31,0.4,2,180,0,0,0.2836979000003339,['n'],1.4708162999995693,1.248,1057.2187299999996,,,,,567,19,Woman,Right,
,,,,,,,,,,,,,,,,,567,19,Woman,Right,0,58,0.15,1,180,-,180,0.29564700000082667,['y'],0.43902040000102716,1.248,1060.3222268,,,,,567,19,Woman,Right,
,,,,,,,,,,,,,,,,,567,19,Woman,Right,0,62,0.15,1,180,-,0,1.5169495999998617,['y'],1.1829589999997552,1.248,1067.1962219999996,,,,,567,19,Woman,Right,
,,,,,,,,,,,,,,,,,567,19,Woman,Right,0,54,0.15,1,180,-,0,0.30240520000006654,['y'],0.3111314999987371,1.248,1070.0985006,,,,,567,19,Woman,Right,
,,,,,,,,,,,,,,,,,567,19,Woman,Right,0,55,0.15,2,180,0,180,0.23470290000113891,['y'],0.3111179000006814,1.248,1073.134673900001,,,,,567,19,Woman,Right,
,,,,,,,,,,,,,,,,,567,19,Woman,Right,0,45,0.15,2,0,180,0,0.15501729999959935,['n'],0.438886599999023,1.248,1076.087592500001,,,,,567,19,Woman,Right,
,,,,,,,,,,,,,,,,,567,19,Woman,Right,0,52,0.15,1,0,-,180,0.8340900000002875,['y'],0.42302009999912116,1.248,1080.1415033000003,,,,,567,19,Woman,Right,
,,,,,,,,,,,,,,,,,567,19,Woman,Right,0,49,0.15,2,0,180,180,0.06679649999932735,['y'],0.47974840000097174,1.248,1082.944347900001,,,,,567,19,Woman,Right,
,,,,,,,,,,,,,,,,,567,19,Woman,Right,0,27,0.4,2,180,0,0,0.03392340000027616,['n'],0.57498730000043,1.248,1085.7640657000002,,,,,567,19,Woman,Right,
,,,,,,,,,,,,,,,,,567,19,Woman,Right,0,56,0.15,1,0,-,180,1.0012189999997645,['y'],1.076290599999993,1.248,1090.0847913999996,,,,,567,19,Woman,Right,
,,,,,,,,,,,,,,,,,567,19,Woman,Right,0,71,0.15,2,180,0,0,0.8716910000002827,['y'],0.4067900999998528,1.248,1094.088801500001,,,,,567,19,Woman,Right,
,,,,,,,,,,,,,,,,,567,19,Woman,Right,0,65,0.15,2,0,180,0,0.1688352000001032,['n'],0.3589096999985486,1.248,1096.8917960999997,,,,,567,19,Woman,Right,
,,,,,,,,,,,,,,,,,567,19,Woman,Right,0,24,0.4,1,0,-,0,1.3997921000009228,['y'],0.4472248000001855,1.248,1101.8465449000005,,,,,567,19,Woman,Right,
,,,,,,,,,,,,,,,,,567,19,Woman,Right,0,42,0.4,1,180,-,180,0.06989199999952689,['y'],0.37529819999872416,1.248,1104.5491838000007,,,,,567,19,Woman,Right,
,,,,,,,,,,,,,,,,,567,19,Woman,Right,0,19,0.4,2,180,0,0,0.05447719999938272,['n'],0.27126310000130616,1.248,1107.0524159000006,,,,,567,19,Woman,Right,
,,,,,,,,,,,,,,,,,567,19,Woman,Right,0,33,0.4,2,0,180,180,0.7147633999993559,['y'],0.4633367999995244,1.248,1111.6563238999997,,,,,567,19,Woman,Right,
,,,,,,,,,,,,,,,,,567,19,Woman,Right,0,21,0.4,2,0,180,0,0.3759442000009585,['n'],0.3194564999994327,1.248,1114.7428828000002,,,,,567,19,Woman,Right,
,,,,,,,,,,,,,,,,,567,19,Woman,Right,0,51,0.15,2,180,0,0,0.15630419999979495,['y'],0.5513129999999364,1.248,1117.5788373999994,,,,,567,19,Woman,Right,
,,,,,,,,,,,,,,,,,567,19,Woman,Right,0,41,0.4,2,0,180,0,0.18980279999959748,['y'],0.2789510999991762,1.248,1120.3151963999999,,,,,567,19,Woman,Right,
,,,,,,,,,,,,,,,,,567,19,Woman,Right,0,23,0.4,2,180,0,0,0.06265290000010282,['n'],0.3273120000012568,1.248,1122.9841010999999,,,,,567,19,Woman,Right,
,,,,,,,,,,,,,,,,,567,19,Woman,Right,0,40,0.4,1,0,-,180,0.21811969999907888,['y'],0.3991451000001689,1.248,1126.0040682000008,,,,,567,19,Woman,Right,
,,,,,,,,,,,,,,,,,567,19,Woman,Right,0,17,0.4,2,0,180,180,0.4407317000004696,['y'],0.37538620000123046,1.248,1131.5426746000003,,,,,567,19,Woman,Right,
,,,,,,,,,,,,,,,,,567,19,Woman,Right,0,35,0.4,2,180,0,0,5.902226700000028,['n'],1.8789219000009325,1.248,1141.7030516000004,,,,,567,19,Woman,Right,
,,,,,,,,,,,,,,,,,567,19,Woman,Right,0,44,0.15,1,0,-,0,1.084376599999814,['y'],1.646360899998399,1.248,1146.6247704999996,,,,,567,19,Woman,Right,
,,,,,,,,,,,,,,,,,567,19,Woman,Right,0,34,0.4,1,180,-,180,0.6340266000006523,['y'],0.25854790000084904,1.248,1150.0280212000007,,,,,567,19,Woman,Right,
,,,,,,,,,,,,,,,,,567,19,Woman,Right,0,59,0.15,2,180,0,180,1.6826947999998083,['y'],0.28698890000123356,1.248,1154.3486808999996,,,,,567,19,Woman,Right,
,,,,,,,,,,,,,,,,,567,19,Woman,Right,0,46,0.15,1,180,-,180,0.3459026000000449,['y'],0.5349550000009913,1.248,1157.585486500001,,,,,567,19,Woman,Right,
,,,,,,,,,,,,,,,,,567,19,Woman,Right,0,6,1,1,180,-,0,0.36150199999974575,['n'],0.6630384000000049,1.248,1161.4228709999998,,,,,567,19,Woman,Right,
,,,,,,,,,,,,,,,,,567,19,Woman,Right,0,26,0.4,1,180,-,0,2.4545765999992,['y'],0.35880679999900167,1.292,1167.128907700001,,,,,567,19,Woman,Right,
,,,,,,,,,,,,,,,,,567,19,Woman,Right,0,13,0.4,2,0,180,0,0.18954519999897457,['y'],0.3351863999996567,1.292,1169.9978686999993,,,,,567,19,Woman,Right,
,,,,,,,,,,,,,,,,,567,19,Woman,Right,0,69,0.15,2,0,180,180,1.9308794000007765,['y'],2.9351740000001882,1.292,1177.3549157000007,,,,,567,19,Woman,Right,
,,,,,,,,,,,,,,,,,567,19,Woman,Right,0,22,0.4,1,180,-,0,0.22279209999942395,['y'],0.7989639000006719,1.3980000000000001,1181.4590307000008,,,,,567,19,Woman,Right,
,,,,,,,,,,,,,,,,,567,19,Woman,Right,0,10,0.4,1,180,-,180,2.3886686000005284,['n'],1.7421688000013091,1.3519999999999999,1188.0989676,,,,,567,19,Woman,Right,
,,,,,,,,,,,,,,,,,567,19,Woman,Right,0,61,0.15,2,0,180,180,0.27939340000011725,['y'],1.3188794999987294,1.328,1191.8535194999995,,,,,567,19,Woman,Right,
,,,,,,,,,,,,,,,,,567,19,Woman,Right,0,20,0.4,1,0,-,180,1.0809287000010954,['y'],0.23873679999996966,1.324,1195.6397134000008,,,,,567,19,Woman,Right,
,,,,,,,,,,,,,,,,,567,19,Woman,Right,0,30,0.4,1,180,-,0,0.3009199999996781,['y'],0.32686199999989185,1.324,1198.6429632000008,,,,,567,19,Woman,Right,
,,,,,,,,,,,,,,,,,567,19,Woman,Right,0,76,0.15,1,0,-,0,0.9126882000000478,['y'],0.6948914000004152,1.324,1202.3970008999995,,,,,567,19,Woman,Right,
,,,,,,,,,,,,,,,,,567,19,Woman,Right,0,36,0.4,1,0,-,180,0.18339770000056888,['y'],0.22819299999900977,1.324,1205.6663909999997,,,,,567,19,Woman,Right,
,,,,,,,,,,,,,,,,,567,19,Woman,Right,0,28,0.4,1,0,-,0,0.3671763000002102,['y'],0.31840200000078767,1.308,1208.6195037999996,,,,,567,19,Woman,Right,
,,,,,,,,,,,,,,,,,567,19,Woman,Right,0,29,0.4,2,0,180,180,1.261389200000849,['y'],0.2788280000004306,1.294,1215.6429887000004,,,,,567,19,Woman,Right,
,,,,,,,,,,,,,,,,,567,19,Woman,Right,0,73,0.15,2,0,180,0,0.1775684000003821,['y'],0.4472743000005721,1.294,1218.8127859000006,,,,,567,19,Woman,Right,
,,,,,,,,,,,,,,,,,567,19,Woman,Right,0,0,1,1,0,-,0,1.3385244000000966,['y'],1.9429715999995096,1.142,1227.388022,,,,,567,19,Woman,Right,
,,,,,,,,,,,,,,,,,567,19,Woman,Right,0,77,0.15,2,0,180,0,1.6884676999998192,['n'],1.334952200000771,1.142,1233.0770108999996,,,,,567,19,Woman,Right,
,,,,,,,,,,,,,,,,,567,19,Woman,Right,0,48,0.15,1,0,-,0,1.3192558999999164,['y'],2.086556799999016,1.1520000000000001,1239.0329826000007,,,,,567,19,Woman,Right,
,,,,,,,,,,,,,,,,,567,19,Woman,Right,0,15,0.4,2,180,0,0,0.32575510000060603,['y'],0.37490749999960826,1.1520000000000001,1242.0025335,,,,,567,19,Woman,Right,
,,,,,,,,,,,,,,,,,567,19,Woman,Right,0,70,0.15,1,180,-,180,0.196794299999965,['y'],0.3110703000002104,1.124,1244.9057813999998,,,,,567,19,Woman,Right,
,,,,,,,,,,,,,,,,,567,19,Woman,Right,0,11,0.4,2,180,0,0,1.1902816000001621,['y'],0.3268692000001465,1.124,1248.6758825999996,,,,,567,19,Woman,Right,
,,,,,,,,,,,,,,,,,567,19,Woman,Right,0,53,0.15,2,0,180,180,0.2773758999992424,['y'],0.21494059999895399,1.124,1251.7789438999998,,,,,567,19,Woman,Right,
,,,,,,,,,,,,,,,,,567,19,Woman,Right,0,47,0.15,2,180,0,180,6.152536499999769,['y'],1.534939500001201,1.124,1261.6887897000006,,,,,567,19,Woman,Right,
,,,,,,,,,,,,,,,,,567,19,Woman,Right,0,57,0.15,2,0,180,180,0.233549700000367,['y'],0.5134648999992351,1.124,1265.0922089000005,,,,,567,19,Woman,Right,
,,,,,,,,,,,,,,,,,567,19,Woman,Right,0,75,0.15,2,180,0,0,0.23670119999951567,['y'],0.5106329999998707,1.162,1268.1953349999994,,,,,567,19,Woman,Right,
,,,,,,,,,,,,,,,,,567,19,Woman,Right,0,63,0.15,2,180,0,180,0.9848980999995547,['y'],0.23133730000154173,1.162,1271.7321956000005,,,,,567,19,Woman,Right,
,,,,,,,,,,,,,,,,,567,19,Woman,Right,1,19,0.4,2,180,0,0,3.4609731000000465,['y'],0.7668554000010772,1.29,1309.1361692,55.0,27.5,75.0,,567,19,Woman,Right,
,,,,,,,,,,,,,,,,,567,19,Woman,Right,1,3,1,2,180,0,0,0.4123015999994095,['y'],0.29402920000029553,1.194,1312.5397421999996,,,,,567,19,Woman,Right,
,,,,,,,,,,,,,,,,,567,19,Woman,Right,1,58,0.15,1,180,-,180,0.06259909999971569,['y'],0.2947414000009303,1.194,1315.0919337000005,,,,,567,19,Woman,Right,
,,,,,,,,,,,,,,,,,567,19,Woman,Right,1,45,0.15,2,0,180,180,1.2216431999986526,['y'],0.2707059999993362,1.194,1319.0290503000006,,,,,567,19,Woman,Right,
,,,,,,,,,,,,,,,,,567,19,Woman,Right,1,62,0.15,1,180,-,0,0.2394698000007338,['n'],0.4957427000008465,1.194,1321.9821819,,,,,567,19,Woman,Right,
,,,,,,,,,,,,,,,,,567,19,Woman,Right,1,73,0.15,2,0,180,0,0.03338550000080431,['y'],0.31828239999958896,1.194,1324.3677730000009,,,,,567,19,Woman,Right,
,,,,,,,,,,,,,,,,,567,19,Woman,Right,1,74,0.15,1,180,-,180,0.365161599998828,['y'],0.25492599999961385,1.194,1328.1882739000002,,,,,567,19,Woman,Right,
,,,,,,,,,,,,,,,,,567,19,Woman,Right,1,26,0.4,1,180,-,0,0.2644318000002386,['y'],0.446844100000817,1.194,1331.0078956000007,,,,,567,19,Woman,Right,
,,,,,,,,,,,,,,,,,567,19,Woman,Right,1,49,0.15,2,0,180,0,1.0727745000003779,['y'],0.30288130000008096,1.194,1334.5615040000002,,,,,567,19,Woman,Right,
,,,,,,,,,,,,,,,,,567,19,Woman,Right,1,65,0.15,2,0,180,180,0.29833940000025905,['y'],0.5349178999986179,1.194,1338.4984983000004,,,,,567,19,Woman,Right,
,,,,,,,,,,,,,,,,,567,19,Woman,Right,1,18,0.4,1,180,-,0,0.47507600000062666,['y'],0.33489410000038333,1.194,1341.7518336000003,,,,,567,19,Woman,Right,
,,,,,,,,,,,,,,,,,567,19,Woman,Right,1,50,0.15,1,180,-,0,0.4326950000013312,['y'],0.27888379999967583,1.194,1345.0052657000006,,,,,567,19,Woman,Right,
,,,,,,,,,,,,,,,,,567,19,Woman,Right,1,25,0.4,2,0,180,0,0.5452576000006957,['y'],0.27912079999987327,1.194,1348.3250228999996,,,,,567,19,Woman,Right,
,,,,,,,,,,,,,,,,,567,19,Woman,Right,1,14,0.4,1,180,-,0,0.2635329000004276,['n'],0.28680229999918083,1.194,1351.2445629999993,,,,,567,19,Woman,Right,
,,,,,,,,,,,,,,,,,567,19,Woman,Right,1,47,0.15,2,180,0,180,0.39952309999898716,['n'],0.4071241000001464,1.194,1354.147639400001,,,,,567,19,Woman,Right,
,,,,,,,,,,,,,,,,,567,19,Woman,Right,1,51,0.15,2,180,0,0,0.584130199998981,['y'],0.40355759999874863,1.194,1357.4509838000004,,,,,567,19,Woman,Right,
,,,,,,,,,,,,,,,,,567,19,Woman,Right,1,68,0.15,1,0,-,180,2.2786882999989757,['y'],0.27928609999980836,1.194,1362.3388640000003,,,,,567,19,Woman,Right,
,,,,,,,,,,,,,,,,,567,19,Woman,Right,1,11,0.4,2,180,0,0,0.5437571999991633,['n'],4.59909190000144,1.194,1369.6463981999996,,,,,567,19,Woman,Right,
,,,,,,,,,,,,,,,,,567,19,Woman,Right,1,9,0.4,2,0,180,180,1.042895899998257,['y'],0.34272930000042834,1.19,1373.249659600001,,,,,567,19,Woman,Right,
,,,,,,,,,,,,,,,,,567,19,Woman,Right,1,63,0.15,2,180,0,0,0.46486149999873305,['n'],0.29514469999958237,1.19,1376.2361492999999,,,,,567,19,Woman,Right,
,,,,,,,,,,,,,,,,,567,19,Woman,Right,1,55,0.15,2,180,0,180,1.337483199999042,['y'],0.2711947000007058,1.19,1381.3410322000009,,,,,567,19,Woman,Right,
,,,,,,,,,,,,,,,,,567,19,Woman,Right,1,61,0.15,2,0,180,0,0.5505223000000115,['y'],0.24019810000027064,1.19,1384.3274551000004,,,,,567,19,Woman,Right,
,,,,,,,,,,,,,,,,,567,19,Woman,Right,1,78,0.15,1,180,-,0,0.716976199999408,['y'],0.24687230000017735,1.19,1387.3640153999995,,,,,567,19,Woman,Right,
,,,,,,,,,,,,,,,,,567,19,Woman,Right,1,75,0.15,2,180,0,180,1.0676917000000685,['y'],1.4447468999987905,1.19,1392.6525622,,,,,567,19,Woman,Right,
,,,,,,,,,,,,,,,,,567,19,Woman,Right,1,67,0.15,2,180,0,0,0.02096940000046743,['y'],0.44711110000025656,1.19,1395.2716193999995,,,,,567,19,Woman,Right,
,,,,,,,,,,,,,,,,,567,19,Woman,Right,1,48,0.15,1,0,-,0,0.53970180000033,['y'],0.2952114999989135,1.19,1399.2256917000004,,,,,567,19,Woman,Right,
,,,,,,,,,,,,,,,,,567,19,Woman,Right,1,64,0.15,1,0,-,180,0.19535890000042855,['n'],1.1907928000000538,1.17,1402.6290404000001,,,,,567,19,Woman,Right,
,,,,,,,,,,,,,,,,,567,19,Woman,Right,1,38,0.4,1,180,-,180,0.4548761999994895,['y'],0.2628678000000946,1.17,1405.4317736000003,,,,,567,19,Woman,Right,
,,,,,,,,,,,,,,,,,567,19,Woman,Right,1,52,0.15,1,0,-,180,1.3013726000008319,['y'],0.35119979999944917,1.17,1409.2855312000002,,,,,567,19,Woman,Right,
,,,,,,,,,,,,,,,,,567,19,Woman,Right,1,8,0.4,1,0,-,0,0.3504496999994444,['n'],0.45507809999980964,1.17,1412.3719888000005,,,,,567,19,Woman,Right,
,,,,,,,,,,,,,,,,,567,19,Woman,Right,1,16,0.4,1,0,-,0,0.46437950000108685,['y'],0.29486240000005637,1.17,1416.2091775,,,,,567,19,Woman,Right,
,,,,,,,,,,,,,,,,,567,19,Woman,Right,1,54,0.15,1,180,-,180,0.365410399999746,['y'],0.231185299999197,1.17,1419.8293717999995,,,,,567,19,Woman,Right,
,,,,,,,,,,,,,,,,,567,19,Woman,Right,1,21,0.4,2,0,180,0,0.3993659999996453,['y'],0.2865167999989353,1.17,1422.8159877000007,,,,,567,19,Woman,Right,
,,,,,,,,,,,,,,,,,567,19,Woman,Right,1,23,0.4,2,180,0,180,0.4649984999996377,['y'],0.24680480000097305,1.17,1425.7686597000002,,,,,567,19,Woman,Right,
,,,,,,,,,,,,,,,,,567,19,Woman,Right,1,70,0.15,1,180,-,0,0.3524782000004052,['y'],0.22291530000075,1.17,1428.5548069000006,,,,,567,19,Woman,Right,
,,,,,,,,,,,,,,,,,567,19,Woman,Right,1,7,1,2,180,0,180,0.23658620000060182,['y'],0.2072043999996822,1.17,1431.2576753000003,,,,,567,19,Woman,Right,
,,,,,,,,,,,,,,,,,567,19,Woman,Right,1,29,0.4,2,0,180,180,0.567031999999017,['y'],1.4550067000000126,1.17,1435.4285479,,,,,567,19,Woman,Right,
,,,,,,,,,,,,,,,,,567,19,Woman,Right,1,46,0.15,1,180,-,0,0.11355729999922914,['n'],0.6552028000005521,1.17,1438.5480988000008,,,,,567,19,Woman,Right,
,,,,,,,,,,,,,,,,,567,19,Woman,Right,1,0,1,1,0,-,0,0.3779549000009865,['y'],0.29536390000066604,1.17,1441.2676923999998,,,,,567,19,Woman,Right,
,,,,,,,,,,,,,,,,,567,19,Woman,Right,1,24,0.4,1,0,-,180,0.18132950000108394,['y'],0.1908714000001055,1.17,1445.254658500001,,,,,567,19,Woman,Right,
,,,,,,,,,,,,,,,,,567,19,Woman,Right,1,39,0.4,2,180,0,0,0.2849163999999291,['y'],0.7586023000003479,1.17,1448.3745248000005,,,,,567,19,Woman,Right,
,,,,,,,,,,,,,,,,,567,19,Woman,Right,1,22,0.4,1,180,-,180,1.32146769999963,['y'],0.5589584999997896,1.17,1452.2450079,,,,,567,19,Woman,Right,
,,,,,,,,,,,,,,,,,567,19,Woman,Right,1,37,0.4,2,0,180,0,0.27281519999996817,['n'],0.5268904000004113,1.17,1455.7652057000005,,,,,567,19,Woman,Right,
,,,,,,,,,,,,,,,,,567,19,Woman,Right,1,44,0.15,1,0,-,180,1.0815963999993983,['y'],0.3191717999998218,1.17,1459.2686043000003,,,,,567,19,Woman,Right,
,,,,,,,,,,,,,,,,,567,19,Woman,Right,1,32,0.4,1,0,-,0,0.23849829999926442,['y'],0.75888440000017,1.17,1462.3720607999994,,,,,567,19,Woman,Right,
,,,,,,,,,,,,,,,,,567,19,Woman,Right,1,40,0.4,1,0,-,180,0.5242819000013696,['y'],1.862857599999188,1.172,1467.7102700000005,,,,,567,19,Woman,Right,
,,,,,,,,,,,,,,,,,567,19,Woman,Right,1,69,0.15,2,0,180,180,2.7716116000010516,['y'],1.1426382999998168,1.172,1475.3516762000008,,,,,567,19,Woman,Right,
,,,,,,,,,,,,,,,,,567,19,Woman,Right,1,6,1,1,180,-,0,0.10991220000141766,['y'],1.2230542999986938,1.172,1478.687942200001,,,,,567,19,Woman,Right,
,,,,,,,,,,,,,,,,,567,19,Woman,Right,1,59,0.15,2,180,0,180,0.4153538999999,['n'],0.5429848999992828,1.172,1481.6578151000003,,,,,567,19,Woman,Right,
,,,,,,,,,,,,,,,,,567,19,Woman,Right,1,17,0.4,2,0,180,0,0.5671247999998741,['y'],0.7831489000000147,1.172,1485.5448802,,,,,567,19,Woman,Right,
,,,,,,,,,,,,,,,,,567,19,Woman,Right,1,66,0.15,1,180,-,180,0.43052239999997255,['y'],0.26314710000042396,1.172,1488.2810058999994,,,,,567,19,Woman,Right,
,,,,,,,,,,,,,,,,,567,19,Woman,Right,1,57,0.15,2,0,180,0,0.06502630000068166,['y'],0.4228421999996499,1.172,1490.9835622,,,,,567,19,Woman,Right,
,,,,,,,,,,,,,,,,,567,19,Woman,Right,1,15,0.4,2,180,0,0,0.5103259999996226,['y'],0.24752579999949376,1.172,1493.8698107999999,,,,,567,19,Woman,Right,
,,,,,,,,,,,,,,,,,567,19,Woman,Right,1,77,0.15,2,0,180,180,0.288117100000818,['y'],0.27096700000038254,1.172,1496.6390923000008,,,,,567,19,Woman,Right,
,,,,,,,,,,,,,,,,,567,19,Woman,Right,1,71,0.15,2,180,0,0,0.23649180000029446,['n'],0.2949058000012883,1.172,1499.5921640999995,,,,,567,19,Woman,Right,
,,,,,,,,,,,,,,,,,567,19,Woman,Right,1,43,0.4,2,180,0,180,0.10877119999895513,['y'],0.20740789999945264,1.172,1502.7953707000006,,,,,567,19,Woman,Right,
,,,,,,,,,,,,,,,,,567,19,Woman,Right,1,28,0.4,1,0,-,180,0.28361149999909685,['n'],0.5568084000005911,1.172,1505.9319358000002,,,,,567,19,Woman,Right,
,,,,,,,,,,,,,,,,,567,19,Woman,Right,1,31,0.4,2,180,0,0,0.3000800000008894,['y'],0.7126008999985061,1.172,1509.084728500001,,,,,567,19,Woman,Right,
,,,,,,,,,,,,,,,,,567,19,Woman,Right,1,41,0.4,2,0,180,180,0.24903160000030766,['y'],1.0555003000008583,1.172,1512.3880915,,,,,567,19,Woman,Right,
,,,,,,,,,,,,,,,,,567,19,Woman,Right,1,34,0.4,1,180,-,0,1.0110906999998406,['y'],0.21475939999982074,1.172,1515.624867200001,,,,,567,19,Woman,Right,
,,,,,,,,,,,,,,,,,567,19,Woman,Right,1,10,0.4,1,180,-,180,0.279852599998776,['y'],0.2069111000000703,1.172,1518.1938805,,,,,567,19,Woman,Right,
,,,,,,,,,,,,,,,,,567,19,Woman,Right,1,53,0.15,2,0,180,0,0.5198397999993176,['n'],0.2868670000007114,1.172,1521.9643802,,,,,567,19,Woman,Right,
,,,,,,,,,,,,,,,,,567,19,Woman,Right,1,4,1,1,0,-,180,0.052281099999163416,['n'],0.7108890999988944,1.172,1524.6837552000006,,,,,567,19,Woman,Right,
,,,,,,,,,,,,,,,,,567,19,Woman,Right,1,20,0.4,1,0,-,0,0.1739386999997805,['n'],1.3429926999997406,1.172,1528.3877956000006,,,,,567,19,Woman,Right,
,,,,,,,,,,,,,,,,,567,19,Woman,Right,1,2,1,1,180,-,180,0.9030473999991955,['n'],1.0789790000017092,1.172,1532.5247341000004,,,,,567,19,Woman,Right,
,,,,,,,,,,,,,,,,,567,19,Woman,Right,1,79,0.15,2,180,0,0,0.977746999998999,['y'],0.18306859999938752,1.172,1535.8117603,,,,,567,19,Woman,Right,
,,,,,,,,,,,,,,,,,567,19,Woman,Right,1,56,0.15,1,0,-,180,0.016714600000341306,['y'],0.24865700000009383,1.172,1535.8117603,,,,,567,19,Woman,Right,
,,,,,,,,,,,,,,,,,567,19,Woman,Right,1,42,0.4,1,180,-,0,0.2692946999995911,['y'],0.2468762999997125,1.172,1543.8360268000006,,,,,567,19,Woman,Right,
,,,,,,,,,,,,,,,,,567,19,Woman,Right,1,35,0.4,2,180,0,180,0.8257709000008617,['y'],0.2390854000004765,1.172,1543.8360268000006,,,,,567,19,Woman,Right,
,,,,,,,,,,,,,,,,,567,19,Woman,Right,1,76,0.15,1,0,-,180,0.6056634000015038,['y'],0.18287149999923713,1.172,1549.7753784000006,,,,,567,19,Woman,Right,
,,,,,,,,,,,,,,,,,567,19,Woman,Right,1,72,0.15,1,0,-,0,0.016735199998947792,['y'],0.26667120000092837,1.172,1552.1947016000004,,,,,567,19,Woman,Right,
,,,,,,,,,,,,,,,,,567,19,Woman,Right,1,30,0.4,1,180,-,0,0.11996519999956945,['y'],0.21492370000123628,1.172,1554.5800320000008,,,,,567,19,Woman,Right,
,,,,,,,,,,,,,,,,,567,19,Woman,Right,1,13,0.4,2,0,180,180,0.22716810000019905,['y'],0.15878910000174074,1.172,1557.1993037000002,,,,,567,19,Woman,Right,
,,,,,,,,,,,,,,,,,567,19,Woman,Right,1,12,0.4,1,0,-,0,0.24609529999906954,['y'],0.2387542000014946,1.172,1560.219636500001,,,,,567,19,Woman,Right,
,,,,,,,,,,,,,,,,,567,19,Woman,Right,1,60,0.15,1,0,-,0,0.1913593999997829,['y'],0.25526999999965483,1.172,1563.4889039,,,,,567,19,Woman,Right,
,,,,,,,,,,,,,,,,,567,19,Woman,Right,1,36,0.4,1,0,-,180,0.2502472000014677,['y'],0.1669465000013588,1.172,1566.0749446,,,,,567,19,Woman,Right,
,,,,,,,,,,,,,,,,,567,19,Woman,Right,1,5,1,2,0,180,0,0.2669050000004063,['y'],0.2664803999996366,1.172,1569.6785367000002,,,,,567,19,Woman,Right,
,,,,,,,,,,,,,,,,,567,19,Woman,Right,1,33,0.4,2,0,180,0,0.20121329999892623,['y'],0.2628249000008509,1.172,1572.4145791,,,,,567,19,Woman,Right,
,,,,,,,,,,,,,,,,,567,19,Woman,Right,1,1,1,2,0,180,180,0.016918400000577094,['n'],0.5146590000003926,1.172,1575.1839119999995,,,,,567,19,Woman,Right,
,,,,,,,,,,,,,,,,,567,19,Woman,Right,1,27,0.4,2,180,0,180,1.1719546999993327,['y'],0.5989047000002756,1.172,1579.0544531999994,,,,,567,19,Woman,Right,
,,,,,,,,,,,,,,,,,567,19,Woman,Right,2,37,0.4,2,0,180,0,0.016565099998842925,['n'],0.31001569999898493,1.172,1593.2685561000008,46.25,22.5,80.0,,567,19,Woman,Right,
,,,,,,,,,,,,,,,,,567,19,Woman,Right,2,22,0.4,1,180,-,180,0.38243279999915103,['y'],0.2470567000000301,1.172,1596.2048808999998,,,,,567,19,Woman,Right,
,,,,,,,,,,,,,,,,,567,19,Woman,Right,2,46,0.15,1,180,-,0,0.016733599999497528,['y'],0.38486829999965266,1.172,1598.8076596,,,,,567,19,Woman,Right,
,,,,,,,,,,,,,,,,,567,19,Woman,Right,2,78,0.15,1,180,-,180,0.020757199999934528,['y'],0.2148390999991534,1.172,1601.1767577,,,,,567,19,Woman,Right,
,,,,,,,,,,,,,,,,,567,19,Woman,Right,2,17,0.4,2,0,180,180,0.016536000000996864,['y'],0.16801219999979367,1.172,1601.1767577,,,,,567,19,Woman,Right,
,,,,,,,,,,,,,,,,,567,19,Woman,Right,2,61,0.15,2,0,180,180,0.09820880000006582,['y'],0.20721249999951397,1.5,1605.4028609000006,,,,,567,19,Woman,Right,
,,,,,,,,,,,,,,,,,567,19,Woman,Right,2,35,0.4,2,180,0,0,0.016801800000393996,['y'],0.3085492999998678,1.172,1608.0166663999998,,,,,567,19,Woman,Right,
,,,,,,,,,,,,,,,,,567,19,Woman,Right,2,25,0.4,2,0,180,180,0.2904464999992342,['y'],0.3188449000008404,1.172,1611.0028883999994,,,,,567,19,Woman,Right,
,,,,,,,,,,,,,,,,,567,19,Woman,Right,2,58,0.15,1,180,-,180,0.9340910999999323,['y'],0.24612469999919995,1.172,1614.8400229999997,,,,,567,19,Woman,Right,
,,,,,,,,,,,,,,,,,567,19,Woman,Right,2,72,0.15,1,0,-,0,0.14578809999875375,['y'],0.3273761000000377,1.172,1618.6771890999999,,,,,567,19,Woman,Right,
,,,,,,,,,,,,,,,,,567,19,Woman,Right,2,33,0.4,2,0,180,0,4.187607800000478,['y'],0.6331848000008904,1.172,1625.8677056000006,,,,,567,19,Woman,Right,
,,,,,,,,,,,,,,,,,567,19,Woman,Right,2,62,0.15,1,180,-,180,0.20015910000074655,['y'],0.3255324000001565,1.172,1628.553685400001,,,,,567,19,Woman,Right,
,,,,,,,,,,,,,,,,,567,19,Woman,Right,2,76,0.15,1,0,-,0,0.01659250000011525,['y'],0.30556979999892064,1.172,1630.8560384000002,,,,,567,19,Woman,Right,
,,,,,,,,,,,,,,,,,567,19,Woman,Right,2,0,1,1,0,-,0,0.2037653000006685,['y'],0.21487969999907364,1.172,1633.3419065999997,,,,,567,19,Woman,Right,
,,,,,,,,,,,,,,,,,567,19,Woman,Right,2,1,1,2,0,180,180,0.32565509999949427,['y'],0.9994735000000219,1.172,1636.8952285999994,,,,,567,19,Woman,Right,
,,,,,,,,,,,,,,,,,567,19,Woman,Right,2,32,0.4,1,0,-,180,0.4103504000013345,['y'],0.1673480000008567,1.172,1639.5313393000006,,,,,567,19,Woman,Right,
,,,,,,,,,,,,,,,,,567,19,Woman,Right,2,29,0.4,2,0,180,0,0.016620899999907124,['y'],0.15494570000009844,1.172,1642.5175886000006,,,,,567,19,Woman,Right,
,,,,,,,,,,,,,,,,,567,19,Woman,Right,2,54,0.15,1,180,-,0,0.5266215000010561,['y'],0.18280589999994845,1.172,1645.7207633999997,,,,,567,19,Woman,Right,
,,,,,,,,,,,,,,,,,567,19,Woman,Right,2,59,0.15,2,180,0,0,0.2333715000004304,['y'],0.14327660000162723,1.172,1648.2240140000004,,,,,567,19,Woman,Right,
,,,,,,,,,,,,,,,,,567,19,Woman,Right,2,36,0.4,1,0,-,0,0.3345698999983142,['n'],0.23908180000034918,1.172,1651.0760397999993,,,,,567,19,Woman,Right,
,,,,,,,,,,,,,,,,,567,19,Woman,Right,2,73,0.15,2,0,180,0,0.5902011999987735,['y'],0.2228912999999011,1.172,1654.1631478000008,,,,,567,19,Woman,Right,
,,,,,,,,,,,,,,,,,567,19,Woman,Right,2,39,0.4,2,180,0,180,0.2003685999989102,['n'],0.21997170000031474,1.172,1657.8327947999996,,,,,567,19,Woman,Right,
,,,,,,,,,,,,,,,,,567,19,Woman,Right,2,64,0.15,1,0,-,180,0.020927699999447213,['n'],0.4713666000006924,1.172,1660.3521749000001,,,,,567,19,Woman,Right,
,,,,,,,,,,,,,,,,,567,19,Woman,Right,2,23,0.4,2,180,0,0,1.4902582000013354,['y'],0.2149122000009811,1.172,1664.2391641000004,,,,,567,19,Woman,Right,
,,,,,,,,,,,,,,,,,567,19,Woman,Right,2,19,0.4,2,180,0,0,0.7804848999985552,['n'],0.5347438999997394,1.172,1667.5767320999994,,,,,567,19,Woman,Right,
,,,,,,,,,,,,,,,,,567,19,Woman,Right,2,4,1,1,0,-,180,0.12100619999910123,['y'],0.8393364000003203,1.172,1671.3631876000009,,,,,567,19,Woman,Right,
,,,,,,,,,,,,,,,,,567,19,Woman,Right,2,7,1,2,180,0,0,0.12262569999984407,['n'],0.5112874000005831,1.172,1673.9988939999994,,,,,567,19,Woman,Right,
,,,,,,,,,,,,,,,,,567,19,Woman,Right,2,11,0.4,2,180,0,180,0.15744380000069214,['n'],0.8629359999995359,1.172,1677.1020610000005,,,,,567,19,Woman,Right,
,,,,,,,,,,,,,,,,,567,19,Woman,Right,2,47,0.15,2,180,0,0,0.01975260000108392,['y'],0.3190331000005244,1.172,1679.5712388000002,,,,,567,19,Woman,Right,
,,,,,,,,,,,,,,,,,567,19,Woman,Right,2,18,0.4,1,180,-,180,0.01695110000036948,['y'],0.20939030000045022,1.172,1681.8401325000004,,,,,567,19,Woman,Right,
,,,,,,,,,,,,,,,,,567,19,Woman,Right,2,57,0.15,2,0,180,0,1.0175457000004826,['n'],0.724260900000445,1.172,1686.3444845999993,,,,,567,19,Woman,Right,
,,,,,,,,,,,,,,,,,567,19,Woman,Right,2,74,0.15,1,180,-,180,0.017070900001272094,['y'],0.2680022000004101,1.172,1688.8470370000005,,,,,567,19,Woman,Right,
,,,,,,,,,,,,,,,,,567,19,Woman,Right,2,48,0.15,1,0,-,0,0.34396039999955974,['y'],0.6232159999999567,1.172,1691.7999193999995,,,,,567,19,Woman,Right,
,,,,,,,,,,,,,,,,,567,19,Woman,Right,2,49,0.15,2,0,180,0,0.43084360000102606,['y'],0.19120640000073763,1.172,1694.3858685999994,,,,,567,19,Woman,Right,
,,,,,,,,,,,,,,,,,567,19,Woman,Right,2,28,0.4,1,0,-,180,0.18082289999983914,['y'],0.5188260000013543,1.172,1697.0383886999998,,,,,567,19,Woman,Right,
,,,,,,,,,,,,,,,,,567,19,Woman,Right,2,9,0.4,2,0,180,0,0.16054309999890393,['n'],0.32690739999998186,1.172,1699.641054300001,,,,,567,19,Woman,Right,
,,,,,,,,,,,,,,,,,567,19,Woman,Right,2,67,0.15,2,180,0,180,0.34065860000009707,['y'],0.19122360000073968,1.172,1702.3104606999996,,,,,567,19,Woman,Right,
,,,,,,,,,,,,,,,,,567,19,Woman,Right,2,79,0.15,2,180,0,0,0.14275050000105693,['y'],0.3269134000001941,1.172,1702.3104606999996,,,,,567,19,Woman,Right,
,,,,,,,,,,,,,,,,,567,19,Woman,Right,2,56,0.15,1,0,-,180,0.2125914999996894,['y'],0.19890940000004775,1.172,1708.1828462000003,,,,,567,19,Woman,Right,
,,,,,,,,,,,,,,,,,567,19,Woman,Right,2,69,0.15,2,0,180,0,0.24928519999957643,['y'],0.29448500000034983,1.172,1711.3028196000005,,,,,567,19,Woman,Right,
,,,,,,,,,,,,,,,,,567,19,Woman,Right,2,20,0.4,1,0,-,180,0.10430350000024191,['y'],0.23111340000104974,1.172,1711.3028196000005,,,,,567,19,Woman,Right,
,,,,,,,,,,,,,,,,,567,19,Woman,Right,2,21,0.4,2,0,180,0,1.7334761999991315,['y'],0.21486929999991844,1.172,1717.4754583000004,,,,,567,19,Woman,Right,
,,,,,,,,,,,,,,,,,567,19,Woman,Right,2,40,0.4,1,0,-,180,0.0507116999997379,['n'],1.2870540999992954,1.172,1720.7956079000005,,,,,567,19,Woman,Right,
,,,,,,,,,,,,,,,,,567,19,Woman,Right,2,43,0.4,2,180,0,0,0.3154123999993317,['y'],0.22289810000074795,1.172,1723.564786,,,,,567,19,Woman,Right,
,,,,,,,,,,,,,,,,,567,19,Woman,Right,2,14,0.4,1,180,-,180,0.1379004000009445,['y'],0.27893369999947026,1.172,1723.564786,,,,,567,19,Woman,Right,
,,,,,,,,,,,,,,,,,567,19,Woman,Right,2,42,0.4,1,180,-,0,0.37698420000015176,['y'],0.4395141999993939,1.172,1729.0038446999997,,,,,567,19,Woman,Right,
,,,,,,,,,,,,,,,,,567,19,Woman,Right,2,26,0.4,1,180,-,180,0.10992930000065826,['y'],0.23076880000007804,1.172,1731.6898085000003,,,,,567,19,Woman,Right,
,,,,,,,,,,,,,,,,,567,19,Woman,Right,2,70,0.15,1,180,-,180,0.2440297000011924,['y'],0.2067322000002605,1.172,1731.6898085000003,,,,,567,19,Woman,Right,
,,,,,,,,,,,,,,,,,567,19,Woman,Right,2,30,0.4,1,180,-,180,0.4755756999984442,['y'],0.19086519999837037,1.172,1737.2452261999997,,,,,567,19,Woman,Right,
,,,,,,,,,,,,,,,,,567,19,Woman,Right,2,44,0.15,1,0,-,180,0.4049520999997185,['y'],0.18283669999982521,1.172,1740.9156047000006,,,,,567,19,Woman,Right,
,,,,,,,,,,,,,,,,,567,19,Woman,Right,2,65,0.15,2,0,180,0,0.32502089999979944,['y'],0.21525079999992158,1.172,1744.6691609,,,,,567,19,Woman,Right,
,,,,,,,,,,,,,,,,,567,19,Woman,Right,2,27,0.4,2,180,0,180,0.016758600000684964,['y'],0.15706289999980072,1.172,1747.0717734,,,,,567,19,Woman,Right,
,,,,,,,,,,,,,,,,,567,19,Woman,Right,2,71,0.15,2,180,0,180,0.18368370000098366,['y'],0.244879600000786,1.172,1750.0916392000008,,,,,567,19,Woman,Right,
,,,,,,,,,,,,,,,,,567,19,Woman,Right,2,52,0.15,1,0,-,180,0.06835989999854064,['y'],0.1828005999996094,1.172,1752.443656800001,,,,,567,19,Woman,Right,
,,,,,,,,,,,,,,,,,567,19,Woman,Right,2,8,0.4,1,0,-,0,0.17472620000080497,['y'],0.23078410000016447,1.172,1755.5138859000008,,,,,567,19,Woman,Right,
,,,,,,,,,,,,,,,,,567,19,Woman,Right,2,55,0.15,2,180,0,180,0.2943173999992723,['y'],0.175064700000803,1.172,1758.0325447000005,,,,,567,19,Woman,Right,
,,,,,,,,,,,,,,,,,567,19,Woman,Right,2,77,0.15,2,0,180,180,0.7147019000003638,['y'],1.5189377999995486,1.172,1763.0040708000006,,,,,567,19,Woman,Right,
,,,,,,,,,,,,,,,,,567,19,Woman,Right,2,16,0.4,1,0,-,180,0.12503400000059628,['y'],0.22325240000100166,1.172,1765.7577539000004,,,,,567,19,Woman,Right,
,,,,,,,,,,,,,,,,,567,19,Woman,Right,2,51,0.15,2,180,0,0,0.09706339999866032,['y'],0.8231567000002542,1.172,1769.7776003000008,,,,,567,19,Woman,Right,
,,,,,,,,,,,,,,,,,567,19,Woman,Right,2,63,0.15,2,180,0,180,0.38871450000078767,['y'],0.47103339999921445,1.172,1769.7776003000008,,,,,567,19,Woman,Right,
,,,,,,,,,,,,,,,,,567,19,Woman,Right,2,12,0.4,1,0,-,0,0.18838679999862507,['y'],0.3909270000003744,1.172,1775.2496001999998,,,,,567,19,Woman,Right,
,,,,,,,,,,,,,,,,,567,19,Woman,Right,2,75,0.15,2,180,0,180,0.06003969999983383,['n'],0.8629980000005162,1.172,1778.4027244,,,,,567,19,Woman,Right,
,,,,,,,,,,,,,,,,,567,19,Woman,Right,2,10,0.4,1,180,-,180,0.01675760000034643,['y'],0.4899344999994355,1.172,1780.8885970000001,,,,,567,19,Woman,Right,
,,,,,,,,,,,,,,,,,567,19,Woman,Right,2,66,0.15,1,180,-,180,0.1916464999994787,['y'],0.35958969999956025,1.172,1783.6079309999996,,,,,567,19,Woman,Right,
,,,,,,,,,,,,,,,,,567,19,Woman,Right,2,24,0.4,1,0,-,0,0.06033030000071449,['y'],0.34288999999989755,1.172,1786.694526100001,,,,,567,19,Woman,Right,
,,,,,,,,,,,,,,,,,567,19,Woman,Right,2,34,0.4,1,180,-,180,0.2924603000010393,['n'],1.2629851999990933,1.172,1790.7819346000006,,,,,567,19,Woman,Right,
,,,,,,,,,,,,,,,,,567,19,Woman,Right,2,45,0.15,2,0,180,180,0.8844420999994327,['y'],0.5992771000001085,1.172,1795.086246400001,,,,,567,19,Woman,Right,
,,,,,,,,,,,,,,,,,567,19,Woman,Right,2,13,0.4,2,0,180,180,1.4954594999999244,['y'],0.38290299999971467,1.172,1799.1902106999996,,,,,567,19,Woman,Right,
,,,,,,,,,,,,,,,,,567,19,Woman,Right,2,50,0.15,1,180,-,180,0.3479188000001159,['y'],0.24678550000135147,1.172,1804.2618432000008,,,,,567,19,Woman,Right,
,,,,,,,,,,,,,,,,,567,19,Woman,Right,2,2,1,1,180,-,0,0.4338533999998617,['y'],0.22849260000111826,1.172,1807.0314456999995,,,,,567,19,Woman,Right,
,,,,,,,,,,,,,,,,,567,19,Woman,Right,2,38,0.4,1,180,-,0,0.18341709999913292,['n'],0.9044259000002057,1.172,1810.0510827999997,,,,,567,19,Woman,Right,
,,,,,,,,,,,,,,,,,567,19,Woman,Right,2,31,0.4,2,180,0,180,0.5560307000014291,['y'],0.2547801000000618,1.172,1812.9371201999993,,,,,567,19,Woman,Right,
,,,,,,,,,,,,,,,,,567,19,Woman,Right,2,53,0.15,2,0,180,0,0.665286900000865,['y'],0.24690760000157752,1.172,1816.4574856000008,,,,,567,19,Woman,Right,
,,,,,,,,,,,,,,,,,567,19,Woman,Right,2,15,0.4,2,180,0,0,0.16868760000033944,['y'],0.23139529999934894,1.172,1816.4574856000008,,,,,567,19,Woman,Right,
,,,,,,,,,,,,,,,,,567,19,Woman,Right,2,68,0.15,1,0,-,180,1.3369632000012643,['n'],1.815069999998741,1.172,1824.2652532000002,,,,,567,19,Woman,Right,
,,,,,,,,,,,,,,,,,567,19,Woman,Right,2,5,1,2,0,180,180,0.7243834999990213,['y'],1.278936500000782,1.172,1828.2690013000001,,,,,567,19,Woman,Right,
,,,,,,,,,,,,,,,,,567,19,Woman,Right,2,60,0.15,1,0,-,0,0.22918919999938225,['y'],0.27902259999973467,1.172,1828.2690013000001,,,,,567,19,Woman,Right,
,,,,,,,,,,,,,,,,,567,19,Woman,Right,2,3,1,2,180,0,180,0.057369800000742543,['y'],0.21502660000078322,1.172,1833.2072481999994,,,,,567,19,Woman,Right,
,,,,,,,,,,,,,,,,,567,19,Woman,Right,2,41,0.4,2,0,180,180,0.7262169000005088,['n'],0.8628962999991927,1.172,1838.1288384999998,,,,,567,19,Woman,Right,
,,,,,,,,,,,,,,,,,567,19,Woman,Right,2,6,1,1,180,-,0,0.27331759999833594,['y'],0.2789842000001954,1.172,1838.1288384999998,,,,,567,19,Woman,Right,
,,,,,,,,,,,,,,,,,567,19,Woman,Right,3,14,0.4,1,180,-,0,0.5846803000004002,['y'],0.9423514999998588,1.24,1855.3125790000004,52.5,15.0,77.5,,567,19,Woman,Right,
,,,,,,,,,,,,,,,,,567,19,Woman,Right,3,34,0.4,1,180,-,180,0.016993900000670692,['y'],0.2174641999990854,1.24,1855.3125790000004,,,,,567,19,Woman,Right,
,,,,,,,,,,,,,,,,,567,19,Woman,Right,3,15,0.4,2,180,0,180,0.2281500999997661,['y'],0.7108362999988458,1.24,1860.4845694000005,,,,,567,19,Woman,Right,
,,,,,,,,,,,,,,,,,567,19,Woman,Right,3,11,0.4,2,180,0,0,0.1428961999990861,['y'],0.7749784000006912,1.24,1863.4372771000008,,,,,567,19,Woman,Right,
,,,,,,,,,,,,,,,,,567,19,Woman,Right,3,41,0.4,2,0,180,0,0.9678154999983235,['y'],0.1580988999994588,1.24,1866.6405244999996,,,,,567,19,Woman,Right,
,,,,,,,,,,,,,,,,,567,19,Woman,Right,3,23,0.4,2,180,0,180,0.3837686000006215,['y'],0.17373520000001008,1.24,1869.2597013999994,,,,,567,19,Woman,Right,
,,,,,,,,,,,,,,,,,567,19,Woman,Right,3,53,0.15,2,0,180,0,0.016733600001316518,['y'],0.29966980000062904,1.24,1871.9458499000002,,,,,567,19,Woman,Right,
,,,,,,,,,,,,,,,,,567,19,Woman,Right,3,57,0.15,2,0,180,180,0.6269427999995969,['n'],0.831148100000064,1.24,1876.0666209,,,,,567,19,Woman,Right,
,,,,,,,,,,,,,,,,,567,19,Woman,Right,3,48,0.15,1,0,-,0,0.30916740000066056,['y'],1.0709642000001622,1.24,1880.8551144000003,,,,,567,19,Woman,Right,
,,,,,,,,,,,,,,,,,567,19,Woman,Right,3,71,0.15,2,180,0,0,0.10772650000035355,['n'],1.2705052999990585,1.24,1884.8586048000006,,,,,567,19,Woman,Right,
,,,,,,,,,,,,,,,,,567,19,Woman,Right,3,27,0.4,2,180,0,180,0.21870769999986805,['y'],0.3034982000008313,1.24,1887.4113339000005,,,,,567,19,Woman,Right,
,,,,,,,,,,,,,,,,,567,19,Woman,Right,3,66,0.15,1,180,-,180,0.6903195000013511,['n'],0.9509297999993578,1.24,1892.3493141999998,,,,,567,19,Woman,Right,
,,,,,,,,,,,,,,,,,567,19,Woman,Right,3,50,0.15,1,180,-,0,0.2620057000003726,['y'],0.27074349999929836,1.24,1895.0187264000006,,,,,567,19,Woman,Right,
,,,,,,,,,,,,,,,,,567,19,Woman,Right,3,52,0.15,1,0,-,180,0.14887390000149026,['n'],0.8147645000008197,1.24,1898.0050239000002,,,,,567,19,Woman,Right,
,,,,,,,,,,,,,,,,,567,19,Woman,Right,3,59,0.15,2,180,0,0,0.471681199998784,['y'],0.959191899999496,1.24,1901.5418307999998,,,,,567,19,Woman,Right,
,,,,,,,,,,,,,,,,,567,19,Woman,Right,3,10,0.4,1,180,-,180,0.01677459999882558,['y'],0.3432052999996813,1.24,1904.127862100001,,,,,567,19,Woman,Right,
,,,,,,,,,,,,,,,,,567,19,Woman,Right,3,45,0.15,2,0,180,0,0.9827685000000201,['y'],1.0468664999989414,1.24,1908.1654052000004,,,,,567,19,Woman,Right,
,,,,,,,,,,,,,,,,,567,19,Woman,Right,3,5,1,2,0,180,0,0.6235780999995768,['y'],0.2072067999997671,1.24,1908.1654052000004,,,,,567,19,Woman,Right,
,,,,,,,,,,,,,,,,,567,19,Woman,Right,3,17,0.4,2,0,180,180,0.01674529999945662,['y'],0.37099449999914214,1.24,1913.3869853000006,,,,,567,19,Woman,Right,
,,,,,,,,,,,,,,,,,567,19,Woman,Right,3,61,0.15,2,0,180,0,0.1624076000007335,['y'],0.2871378999989247,1.24,1915.8394399,,,,,567,19,Woman,Right,
,,,,,,,,,,,,,,,,,567,19,Woman,Right,3,3,1,2,180,0,180,0.3492915999995603,['y'],0.24683180000101856,1.24,1918.8426035000002,,,,,567,19,Woman,Right,
,,,,,,,,,,,,,,,,,567,19,Woman,Right,3,20,0.4,1,0,-,0,0.3379964000014297,['y'],0.478929099999732,1.24,1921.9288449999995,,,,,567,19,Woman,Right,
,,,,,,,,,,,,,,,,,567,19,Woman,Right,3,32,0.4,1,0,-,180,0.24247209999884944,['n'],0.7354485000014392,1.24,1924.9484531999997,,,,,567,19,Woman,Right,
,,,,,,,,,,,,,,,,,567,19,Woman,Right,3,21,0.4,2,0,180,0,0.41727609999907145,['y'],0.28482099999928323,1.24,1927.7847068,,,,,567,19,Woman,Right,
,,,,,,,,,,,,,,,,,567,19,Woman,Right,3,62,0.15,1,180,-,180,0.36192969999865454,['y'],0.6148243000006914,1.24,1930.8210657000009,,,,,567,19,Woman,Right,
,,,,,,,,,,,,,,,,,567,19,Woman,Right,3,46,0.15,1,180,-,180,0.1623237000003428,['y'],0.23084800000106043,1.24,1933.1903630999996,,,,,567,19,Woman,Right,
,,,,,,,,,,,,,,,,,567,19,Woman,Right,3,4,1,1,0,-,180,0.3592358999994758,['y'],0.24727340000026743,1.188,1935.8596511000005,,,,,567,19,Woman,Right,
,,,,,,,,,,,,,,,,,567,19,Woman,Right,3,30,0.4,1,180,-,180,0.44510880000052566,['y'],0.25491689999944356,1.188,1940.030408900001,,,,,567,19,Woman,Right,
,,,,,,,,,,,,,,,,,567,19,Woman,Right,3,26,0.4,1,180,-,0,0.04719939999995404,['y'],0.32655850000082864,1.138,1942.682961900001,,,,,567,19,Woman,Right,
,,,,,,,,,,,,,,,,,567,19,Woman,Right,3,73,0.15,2,0,180,180,0.017060899999705725,['y'],0.27024580000033893,1.172,1945.0185150999996,,,,,567,19,Woman,Right,
,,,,,,,,,,,,,,,,,567,19,Woman,Right,3,47,0.15,2,180,0,0,0.3482205000000249,['y'],0.20707500000025902,1.172,1947.5378111,,,,,567,19,Woman,Right,
,,,,,,,,,,,,,,,,,567,19,Woman,Right,3,25,0.4,2,0,180,180,0.1147928000009415,['y'],0.21493929999996908,1.172,1949.9733408000002,,,,,567,19,Woman,Right,
,,,,,,,,,,,,,,,,,567,19,Woman,Right,3,78,0.15,1,180,-,180,0.2938823999993474,['y'],0.1831280999995215,1.172,1952.509265900001,,,,,567,19,Woman,Right,
,,,,,,,,,,,,,,,,,567,19,Woman,Right,3,6,1,1,180,-,180,0.1356367999997019,['y'],0.19863040000018373,1.172,1954.8616257000003,,,,,567,19,Woman,Right,
,,,,,,,,,,,,,,,,,567,19,Woman,Right,3,16,0.4,1,0,-,180,0.5171331999990798,['y'],0.2000121000000945,1.172,1957.8479249000002,,,,,567,19,Woman,Right,
,,,,,,,,,,,,,,,,,567,19,Woman,Right,3,35,0.4,2,180,0,180,0.07677250000051572,['y'],0.24621140000090236,1.172,1960.2002545000005,,,,,567,19,Woman,Right,
,,,,,,,,,,,,,,,,,567,19,Woman,Right,3,8,0.4,1,0,-,0,1.9957076000009693,['y'],0.27098950000072364,1.172,1964.5712794,,,,,567,19,Woman,Right,
,,,,,,,,,,,,,,,,,567,19,Woman,Right,3,36,0.4,1,0,-,180,0.10321339999973134,['y'],0.2068658999996842,1.172,1966.9403281999994,,,,,567,19,Woman,Right,
,,,,,,,,,,,,,,,,,567,19,Woman,Right,3,63,0.15,2,180,0,0,0.2583438000001479,['y'],0.20704839999962132,1.172,1969.3759875999995,,,,,567,19,Woman,Right,
,,,,,,,,,,,,,,,,,567,19,Woman,Right,3,79,0.15,2,180,0,180,0.06398369999988063,['y'],0.19062750000011874,1.172,1969.3759875999995,,,,,567,19,Woman,Right,
,,,,,,,,,,,,,,,,,567,19,Woman,Right,3,7,1,2,180,0,0,0.31769469999926514,['y'],0.30238459999964107,1.238,1974.2644317000004,,,,,567,19,Woman,Right,
,,,,,,,,,,,,,,,,,567,19,Woman,Right,3,33,0.4,2,0,180,180,0.3489724999999453,['n'],0.27091270000164513,1.238,1976.9501833999993,,,,,567,19,Woman,Right,
,,,,,,,,,,,,,,,,,567,19,Woman,Right,3,70,0.15,1,180,-,0,0.01678630000060366,['y'],0.21419909999895026,1.238,1979.5203229000008,,,,,567,19,Woman,Right,
,,,,,,,,,,,,,,,,,567,19,Woman,Right,3,43,0.4,2,180,0,180,0.016820799999550218,['n'],0.1409113999998226,1.238,1981.838423600001,,,,,567,19,Woman,Right,
,,,,,,,,,,,,,,,,,567,19,Woman,Right,3,39,0.4,2,180,0,0,0.2678600999988703,['n'],0.20685680000133289,1.238,1984.5747039999997,,,,,567,19,Woman,Right,
,,,,,,,,,,,,,,,,,567,19,Woman,Right,3,55,0.15,2,180,0,180,0.6510899999993853,['y'],0.5064207999985229,1.238,1987.9444957999995,,,,,567,19,Woman,Right,
,,,,,,,,,,,,,,,,,567,19,Woman,Right,3,18,0.4,1,180,-,0,0.016886899999008165,['y'],0.2686059000006935,1.238,1990.2138196999995,,,,,567,19,Woman,Right,
,,,,,,,,,,,,,,,,,567,19,Woman,Right,3,29,0.4,2,0,180,180,0.05792739999924379,['y'],0.1912609999999404,1.238,1990.2138196999995,,,,,567,19,Woman,Right,
,,,,,,,,,,,,,,,,,567,19,Woman,Right,3,74,0.15,1,180,-,0,0.32758560000002035,['y'],0.20690239999930782,1.238,1994.9180662000008,,,,,567,19,Woman,Right,
,,,,,,,,,,,,,,,,,567,19,Woman,Right,3,49,0.15,2,0,180,0,0.016812500000014552,['y'],0.18272169999909238,1.238,1997.053611800001,,,,,567,19,Woman,Right,
,,,,,,,,,,,,,,,,,567,19,Woman,Right,3,64,0.15,1,0,-,0,0.04244490000019141,['y'],0.19878349999999045,1.238,1997.053611800001,,,,,567,19,Woman,Right,
,,,,,,,,,,,,,,,,,567,19,Woman,Right,3,42,0.4,1,180,-,180,0.9382757000003039,['n'],1.0869685999987269,1.248,2003.9770720999995,,,,,567,19,Woman,Right,
,,,,,,,,,,,,,,,,,567,19,Woman,Right,3,13,0.4,2,0,180,180,0.5179361000009521,['y'],0.20730720000028668,1.342,2006.8466997999994,,,,,567,19,Woman,Right,
,,,,,,,,,,,,,,,,,567,19,Woman,Right,3,72,0.15,1,0,-,0,0.01668430000063381,['y'],0.23007660000075703,1.248,2008.9987078000004,,,,,567,19,Woman,Right,
,,,,,,,,,,,,,,,,,567,19,Woman,Right,3,68,0.15,1,0,-,0,0.11050299999988056,['y'],0.18292560000008962,1.222,2011.2842845999994,,,,,567,19,Woman,Right,
,,,,,,,,,,,,,,,,,567,19,Woman,Right,3,37,0.4,2,0,180,180,0.09032739999929618,['y'],0.19119750000027125,1.264,2013.804491400001,,,,,567,19,Woman,Right,
,,,,,,,,,,,,,,,,,567,19,Woman,Right,3,51,0.15,2,180,0,180,0.016930600000705454,['y'],0.15851839999959338,1.252,2016.0224829000008,,,,,567,19,Woman,Right,
,,,,,,,,,,,,,,,,,567,19,Woman,Right,3,38,0.4,1,180,-,180,0.15923449999900186,['y'],0.19052240000019083,1.246,2018.5750039000004,,,,,567,19,Woman,Right,
,,,,,,,,,,,,,,,,,567,19,Woman,Right,3,44,0.15,1,0,-,0,0.01679569999942032,['y'],0.04536499999994703,1.246,2020.6604240000006,,,,,567,19,Woman,Right,
,,,,,,,,,,,,,,,,,567,19,Woman,Right,3,65,0.15,2,0,180,180,0.01703789999919536,['y'],0.1431854000002204,1.246,2023.1631325999997,,,,,567,19,Woman,Right,
,,,,,,,,,,,,,,,,,567,19,Woman,Right,3,75,0.15,2,180,0,180,0.016756899998654262,['y'],0.1354475000007369,1.242,2025.6155580999994,,,,,567,19,Woman,Right,
,,,,,,,,,,,,,,,,,567,19,Woman,Right,3,58,0.15,1,180,-,180,0.4112540000005538,['y'],0.9748938999982784,1.242,2031.487928900001,,,,,567,19,Woman,Right,
,,,,,,,,,,,,,,,,,567,19,Woman,Right,3,40,0.4,1,0,-,180,0.44760669999959646,['y'],0.34344310000051337,1.264,2034.8747888000007,,,,,567,19,Woman,Right,
,,,,,,,,,,,,,,,,,567,19,Woman,Right,3,69,0.15,2,0,180,0,0.3044785000001866,['y'],0.5109087000000727,1.26,2037.7444762000005,,,,,567,19,Woman,Right,
,,,,,,,,,,,,,,,,,567,19,Woman,Right,3,60,0.15,1,0,-,180,0.2762730999984342,['y'],0.20688739999968675,1.256,2040.3633283000008,,,,,567,19,Woman,Right,
,,,,,,,,,,,,,,,,,567,19,Woman,Right,3,77,0.15,2,0,180,180,0.1306826000000001,['y'],0.2710618999990402,1.248,2043.9169302,,,,,567,19,Woman,Right,
,,,,,,,,,,,,,,,,,567,19,Woman,Right,3,24,0.4,1,0,-,180,0.13373150000006717,['y'],0.2561922000004415,1.25,2046.3526051,,,,,567,19,Woman,Right,
,,,,,,,,,,,,,,,,,567,19,Woman,Right,3,76,0.15,1,0,-,180,0.13325970000005327,['n'],0.3520920999999362,1.25,2048.8219462000006,,,,,567,19,Woman,Right,
,,,,,,,,,,,,,,,,,567,19,Woman,Right,3,2,1,1,180,-,180,0.09619469999961439,['y'],0.2310365000012098,1.25,2051.6079770999995,,,,,567,19,Woman,Right,
,,,,,,,,,,,,,,,,,567,19,Woman,Right,3,0,1,1,0,-,0,0.3228858999991644,['n'],0.8628810999998677,1.25,2054.9278547999993,,,,,567,19,Woman,Right,
,,,,,,,,,,,,,,,,,567,19,Woman,Right,3,28,0.4,1,0,-,180,0.01677459999882558,['y'],0.4717775999997684,1.25,2057.4802919000003,,,,,567,19,Woman,Right,
,,,,,,,,,,,,,,,,,567,19,Woman,Right,3,56,0.15,1,0,-,0,0.7014742999999726,['y'],0.27914920000148413,1.25,2060.467782500001,,,,,567,19,Woman,Right,
,,,,,,,,,,,,,,,,,567,19,Woman,Right,3,22,0.4,1,180,-,180,0.12375020000035875,['n'],0.40672909999921103,1.25,2063.0028345,,,,,567,19,Woman,Right,
,,,,,,,,,,,,,,,,,567,19,Woman,Right,3,12,0.4,1,0,-,180,0.7852473999992071,['y'],0.34343689999877824,1.25,2066.1722294,,,,,567,19,Woman,Right,
,,,,,,,,,,,,,,,,,567,19,Woman,Right,3,1,1,2,0,180,180,0.3449663999999757,['n'],0.2787566999995761,1.25,2068.8417395999995,,,,,567,19,Woman,Right,
,,,,,,,,,,,,,,,,,567,19,Woman,Right,3,9,0.4,2,0,180,180,0.6109016999998858,['y'],0.19074579999869457,1.248,2071.7115865000005,,,,,567,19,Woman,Right,
,,,,,,,,,,,,,,,,,567,19,Woman,Right,3,19,0.4,2,180,0,180,0.32871109999905457,['y'],0.1747771999998804,1.248,2074.2804571000006,,,,,567,19,Woman,Right,
,,,,,,,,,,,,,,,,,567,19,Woman,Right,3,31,0.4,2,180,0,0,0.8040643999993335,['y'],0.3748923000002833,1.248,2078.2345214000006,,,,,567,19,Woman,Right,
,,,,,,,,,,,,,,,,,567,19,Woman,Right,3,67,0.15,2,180,0,180,0.2535028999991482,['y'],0.25521909999952186,1.24,2080.653422100001,,,,,567,19,Woman,Right,
,,,,,,,,,,,,,,,,,567,19,Woman,Right,3,54,0.15,1,180,-,0,0.33073139999942214,['y'],0.526591499999995,1.228,2083.4395034,,,,,567,19,Woman,Right,
,,,,,,,,,,,,,,,,,567,19,Woman,Right,4,49,0.15,2,0,180,180,0.14433800000006158,['y'],0.182676000000356,1.228,2083.4395034,52.5,17.5,85.0,,567,19,Woman,Right,
,,,,,,,,,,,,,,,,,567,19,Woman,Right,4,76,0.15,1,0,-,180,0.3944080999990547,['y'],1.6953904000001785,1.31,2095.6354065999994,,,,,567,19,Woman,Right,
,,,,,,,,,,,,,,,,,567,19,Woman,Right,4,59,0.15,2,180,0,180,0.3456052000001364,['y'],0.20669860000089102,1.3,2098.454712400001,,,,,567,19,Woman,Right,
,,,,,,,,,,,,,,,,,567,19,Woman,Right,4,41,0.4,2,0,180,180,0.016921200000069803,['y'],0.23734680000052322,1.3,2100.7068627,,,,,567,19,Woman,Right,
,,,,,,,,,,,,,,,,,567,19,Woman,Right,4,29,0.4,2,0,180,180,0.01697039999999106,['y'],0.2490949000002729,1.3,2102.9922742999997,,,,,567,19,Woman,Right,
,,,,,,,,,,,,,,,,,567,19,Woman,Right,4,75,0.15,2,180,0,180,0.016777299999375828,['y'],0.1975241999989521,1.284,2105.1619112,,,,,567,19,Woman,Right,
,,,,,,,,,,,,,,,,,567,19,Woman,Right,4,10,0.4,1,180,-,180,0.9010091000000102,['y'],0.5333289000009245,1.284,2108.6812327,,,,,567,19,Woman,Right,
,,,,,,,,,,,,,,,,,567,19,Woman,Right,4,37,0.4,2,0,180,0,0.15552300000126706,['y'],0.3272130000004836,1.284,2111.3506723,,,,,567,19,Woman,Right,
,,,,,,,,,,,,,,,,,567,19,Woman,Right,4,58,0.15,1,180,-,180,0.016761299999416224,['n'],0.5220360999992408,1.284,2114.286836,,,,,567,19,Woman,Right,
,,,,,,,,,,,,,,,,,567,19,Woman,Right,4,32,0.4,1,0,-,180,0.42023499999959313,['y'],0.5667554000010568,1.284,2117.3232196,,,,,567,19,Woman,Right,
,,,,,,,,,,,,,,,,,567,19,Woman,Right,4,33,0.4,2,0,180,180,0.016734499999074615,['y'],0.20432369999980438,1.284,2119.7256996999995,,,,,567,19,Woman,Right,
,,,,,,,,,,,,,,,,,567,19,Woman,Right,4,71,0.15,2,180,0,180,0.3735637999998289,['y'],0.19919949999894015,1.284,2122.3951910999995,,,,,567,19,Woman,Right,
,,,,,,,,,,,,,,,,,567,19,Woman,Right,4,40,0.4,1,0,-,180,0.016712700000425684,['y'],0.139048000000912,1.284,2122.3951910999995,,,,,567,19,Woman,Right,
,,,,,,,,,,,,,,,,,567,19,Woman,Right,4,21,0.4,2,0,180,180,0.016940499999691383,['y'],0.18136589999994612,1.5,2126.3140785000005,,,,,567,19,Woman,Right,
,,,,,,,,,,,,,,,,,567,19,Woman,Right,4,9,0.4,2,0,180,180,0.055199399999764864,['y'],0.21488359999966633,1.284,2129.0016320000004,,,,,567,19,Woman,Right,
,,,,,,,,,,,,,,,,,567,19,Woman,Right,4,61,0.15,2,0,180,180,0.05226279999988037,['y'],0.2792572999987897,1.284,2131.3871150000004,,,,,567,19,Woman,Right,
,,,,,,,,,,,,,,,,,567,19,Woman,Right,4,39,0.4,2,180,0,180,0.7158950000011828,['y'],2.423040300000139,1.284,2136.442425,,,,,567,19,Woman,Right,
,,,,,,,,,,,,,,,,,567,19,Woman,Right,4,48,0.15,1,0,-,0,0.15550789999906556,['y'],0.39110170000094513,1.296,2139.0280154,,,,,567,19,Woman,Right,
,,,,,,,,,,,,,,,,,567,19,Woman,Right,4,52,0.15,1,0,-,0,0.016784999999799766,['y'],0.17713189999994938,1.296,2139.0280154,,,,,567,19,Woman,Right,
,,,,,,,,,,,,,,,,,567,19,Woman,Right,4,12,0.4,1,0,-,180,0.1263784000002488,['y'],0.43893889999890234,1.304,2143.599393900001,,,,,567,19,Woman,Right,
,,,,,,,,,,,,,,,,,567,19,Woman,Right,4,42,0.4,1,180,-,0,0.016679199999998673,['y'],0.25839499999892723,1.304,2143.599393900001,,,,,567,19,Woman,Right,
,,,,,,,,,,,,,,,,,567,19,Woman,Right,4,77,0.15,2,0,180,0,0.016673299998728908,['y'],0.16885220000040135,1.5,2147.7057689000003,,,,,567,19,Woman,Right,
,,,,,,,,,,,,,,,,,567,19,Woman,Right,4,62,0.15,1,180,-,0,0.40685620000112976,['y'],0.18314790000113135,1.5,2150.1622256,,,,,567,19,Woman,Right,
,,,,,,,,,,,,,,,,,567,19,Woman,Right,4,1,1,2,0,180,180,0.6083837999995012,['y'],0.22294130000045698,1.304,2153.2589517999995,,,,,567,19,Woman,Right,
,,,,,,,,,,,,,,,,,567,19,Woman,Right,4,38,0.4,1,180,-,180,0.1544248999998672,['y'],0.1906237000002875,1.304,2156.3286854999997,,,,,567,19,Woman,Right,
,,,,,,,,,,,,,,,,,567,19,Woman,Right,4,60,0.15,1,0,-,0,0.06681049999860988,['y'],0.21452040000076522,1.304,2156.3286854999997,,,,,567,19,Woman,Right,
,,,,,,,,,,,,,,,,,567,19,Woman,Right,4,14,0.4,1,180,-,180,0.12299610000081884,['n'],0.7827490999989095,1.29,2162.1178111,,,,,567,19,Woman,Right,
,,,,,,,,,,,,,,,,,567,19,Woman,Right,4,56,0.15,1,0,-,180,0.6392348999997921,['n'],1.3189836000001378,1.282,2166.5555164000007,,,,,567,19,Woman,Right,
,,,,,,,,,,,,,,,,,567,19,Woman,Right,4,57,0.15,2,0,180,180,0.23361839999961376,['y'],0.19616710000082094,1.282,2169.124746300001,,,,,567,19,Woman,Right,
,,,,,,,,,,,,,,,,,567,19,Woman,Right,4,36,0.4,1,0,-,0,0.9530338999993546,['y'],0.24683480000021518,1.282,2172.4780426999996,,,,,567,19,Woman,Right,
,,,,,,,,,,,,,,,,,567,19,Woman,Right,4,66,0.15,1,180,-,180,0.7578976000004332,['y'],0.4629497000005358,1.282,2176.0484931,,,,,567,19,Woman,Right,
,,,,,,,,,,,,,,,,,567,19,Woman,Right,4,74,0.15,1,180,-,180,0.045339500000409316,['y'],0.6309681000002456,1.282,2178.7511716,,,,,567,19,Woman,Right,
,,,,,,,,,,,,,,,,,567,19,Woman,Right,4,17,0.4,2,0,180,180,0.30190720000064175,['y'],0.7349274999996851,1.282,2181.8208275000006,,,,,567,19,Woman,Right,
,,,,,,,,,,,,,,,,,567,19,Woman,Right,4,19,0.4,2,180,0,180,0.4415795999993861,['y'],1.8229989000010391,1.322,2186.4255387000003,,,,,567,19,Woman,Right,
,,,,,,,,,,,,,,,,,567,19,Woman,Right,4,69,0.15,2,0,180,180,0.027499300000272342,['y'],0.28699650000089605,1.322,2188.795145000001,,,,,567,19,Woman,Right,
,,,,,,,,,,,,,,,,,567,19,Woman,Right,4,27,0.4,2,180,0,0,0.2100152999992133,['y'],0.2868058000003657,1.322,2191.3969319,,,,,567,19,Woman,Right,
,,,,,,,,,,,,,,,,,567,19,Woman,Right,4,54,0.15,1,180,-,180,0.16748589999951946,['n'],0.30300220000026457,1.322,2194.1161729000005,,,,,567,19,Woman,Right,
,,,,,,,,,,,,,,,,,567,19,Woman,Right,4,79,0.15,2,180,0,0,0.2960533999994368,['y'],0.41504259999965143,1.322,2196.868911300001,,,,,567,19,Woman,Right,
,,,,,,,,,,,,,,,,,567,19,Woman,Right,4,45,0.15,2,0,180,180,0.017000899999402463,['y'],1.1812984999996843,1.322,2201.6749482000005,,,,,567,19,Woman,Right,
,,,,,,,,,,,,,,,,,567,19,Woman,Right,4,16,0.4,1,0,-,0,0.016872000000148546,['y'],0.11770909999904688,1.322,2201.6749482000005,,,,,567,19,Woman,Right,
,,,,,,,,,,,,,,,,,567,19,Woman,Right,4,28,0.4,1,0,-,180,0.13739970000096946,['y'],1.4073286000002554,1.322,2207.6467359000007,,,,,567,19,Woman,Right,
,,,,,,,,,,,,,,,,,567,19,Woman,Right,4,53,0.15,2,0,180,0,2.1565601999991486,['y'],0.2069590999999491,1.322,2212.4844218000007,,,,,567,19,Woman,Right,
,,,,,,,,,,,,,,,,,567,19,Woman,Right,4,4,1,1,0,-,180,0.5790291000012076,['n'],0.9992117000001599,1.322,2216.2716709000006,,,,,567,19,Woman,Right,
,,,,,,,,,,,,,,,,,567,19,Woman,Right,4,3,1,2,180,0,0,0.15255639999850246,['n'],0.2792207000002236,1.322,2218.8744882,,,,,567,19,Woman,Right,
,,,,,,,,,,,,,,,,,567,19,Woman,Right,4,44,0.15,1,0,-,0,0.2583637000007002,['y'],0.16661149999890768,1.322,2218.8744882,,,,,567,19,Woman,Right,
,,,,,,,,,,,,,,,,,567,19,Woman,Right,4,23,0.4,2,180,0,180,0.12981020000006538,['y'],0.22285720000036235,1.322,2223.695923100001,,,,,567,19,Woman,Right,
,,,,,,,,,,,,,,,,,567,19,Woman,Right,4,26,0.4,1,180,-,0,0.016765599999416736,['y'],0.2222615999999107,1.322,2226.2983292,,,,,567,19,Woman,Right,
,,,,,,,,,,,,,,,,,567,19,Woman,Right,4,35,0.4,2,180,0,180,0.8225471999994625,['y'],0.3666247999990446,1.3820000000000001,2229.6851531,,,,,567,19,Woman,Right,
,,,,,,,,,,,,,,,,,567,19,Woman,Right,4,8,0.4,1,0,-,0,0.3938646000005974,['y'],0.38306180000108725,1.316,2232.6712104999997,,,,,567,19,Woman,Right,
,,,,,,,,,,,,,,,,,567,19,Woman,Right,4,43,0.4,2,180,0,180,0.016717399999834015,['y'],0.06976550000035786,1.316,2235.0071056000006,,,,,567,19,Woman,Right,
,,,,,,,,,,,,,,,,,567,19,Woman,Right,4,30,0.4,1,180,-,180,0.049903200000699144,['y'],0.42289290000007895,1.316,2237.692920800001,,,,,567,19,Woman,Right,
,,,,,,,,,,,,,,,,,567,19,Woman,Right,4,55,0.15,2,180,0,180,0.016716699999960838,['y'],0.2303351999998995,1.316,2240.278769200001,,,,,567,19,Woman,Right,
,,,,,,,,,,,,,,,,,567,19,Woman,Right,4,6,1,1,180,-,0,0.11993319999965024,['y'],0.26334850000057486,1.316,2242.8987107000003,,,,,567,19,Woman,Right,
,,,,,,,,,,,,,,,,,567,19,Woman,Right,4,22,0.4,1,180,-,180,0.016569600000366336,['y'],0.13114540000060515,1.316,2242.8987107000003,,,,,567,19,Woman,Right,
,,,,,,,,,,,,,,,,,567,19,Woman,Right,4,25,0.4,2,0,180,180,0.6640890999988187,['y'],1.2708409000006213,1.282,2249.1543835,,,,,567,19,Woman,Right,
,,,,,,,,,,,,,,,,,567,19,Woman,Right,4,67,0.15,2,180,0,0,0.01668969999991532,['y'],0.28244310000081896,1.282,2251.5234083000005,,,,,567,19,Woman,Right,
,,,,,,,,,,,,,,,,,567,19,Woman,Right,4,18,0.4,1,180,-,0,0.3755650000002788,['y'],0.31087789999946835,1.282,2254.2927718,,,,,567,19,Woman,Right,
,,,,,,,,,,,,,,,,,567,19,Woman,Right,4,70,0.15,1,180,-,180,0.3096515000015643,['n'],4.071147299999211,1.282,2261.3664870000002,,,,,567,19,Woman,Right,
,,,,,,,,,,,,,,,,,567,19,Woman,Right,4,5,1,2,0,180,0,0.01680840000153694,['y'],0.2510603999999148,1.282,2263.752229300001,,,,,567,19,Woman,Right,
,,,,,,,,,,,,,,,,,567,19,Woman,Right,4,73,0.15,2,0,180,0,0.016700700000001234,['y'],0.2405189999990398,1.282,2266.0712323,,,,,567,19,Woman,Right,
,,,,,,,,,,,,,,,,,567,19,Woman,Right,4,13,0.4,2,0,180,180,0.03723840000020573,['y'],0.1907599999995,1.282,2268.3737893000007,,,,,567,19,Woman,Right,
,,,,,,,,,,,,,,,,,567,19,Woman,Right,4,51,0.15,2,180,0,0,0.08220919999985199,['y'],0.2952695000003587,1.282,2270.6758093,,,,,567,19,Woman,Right,
,,,,,,,,,,,,,,,,,567,19,Woman,Right,4,63,0.15,2,180,0,180,0.4264318000005005,['y'],0.9109737999988283,1.282,2274.2293944000003,,,,,567,19,Woman,Right,
,,,,,,,,,,,,,,,,,567,19,Woman,Right,4,46,0.15,1,180,-,180,0.07762410000032105,['y'],0.23913249999895925,1.282,2276.6652879000003,,,,,567,19,Woman,Right,
,,,,,,,,,,,,,,,,,567,19,Woman,Right,4,50,0.15,1,180,-,180,0.5295203000005131,['n'],1.0390664999995352,1.282,2280.268496400001,,,,,567,19,Woman,Right,
,,,,,,,,,,,,,,,,,567,19,Woman,Right,4,0,1,1,0,-,0,0.01677460000064457,['y'],0.21622410000054515,1.282,2282.6543771000006,,,,,567,19,Woman,Right,
,,,,,,,,,,,,,,,,,567,19,Woman,Right,4,2,1,1,180,-,0,0.4151643999994121,['y'],1.031014399999549,1.282,2286.1079665999996,,,,,567,19,Woman,Right,
,,,,,,,,,,,,,,,,,567,19,Woman,Right,4,65,0.15,2,0,180,180,0.016763499999797205,['y'],0.19661329999871668,1.282,2288.4934667000007,,,,,567,19,Woman,Right,
,,,,,,,,,,,,,,,,,567,19,Woman,Right,4,31,0.4,2,180,0,180,0.4772794000000431,['y'],0.5270666000014899,1.282,2291.5968119,,,,,567,19,Woman,Right,
,,,,,,,,,,,,,,,,,567,19,Woman,Right,4,24,0.4,1,0,-,0,0.11690210000051593,['y'],0.167205699999613,1.282,2291.5968119,,,,,567,19,Woman,Right,
,,,,,,,,,,,,,,,,,567,19,Woman,Right,4,64,0.15,1,0,-,180,0.2819891999988613,['y'],0.8632633999986865,1.282,2297.3188607,,,,,567,19,Woman,Right,
,,,,,,,,,,,,,,,,,567,19,Woman,Right,4,47,0.15,2,180,0,180,0.12242480000168143,['y'],0.22297819999948842,1.282,2299.7879280999996,,,,,567,19,Woman,Right,
,,,,,,,,,,,,,,,,,567,19,Woman,Right,4,11,0.4,2,180,0,180,0.016581600000790786,['y'],0.5692949999993289,1.282,2302.7742905999994,,,,,567,19,Woman,Right,
,,,,,,,,,,,,,,,,,567,19,Woman,Right,4,34,0.4,1,180,-,0,0.016721500000130618,['y'],0.31085800000073505,1.318,2305.3602406,,,,,567,19,Woman,Right,
