p_block,p_section,p_coherence,p_direction1,p_direction2,p_direction_response,p_direction_RT,p_change_response,p_change_RT,p_confidence,p_full_correct,p_without5_correct,p_full_total,p_without5_total,p_full_avg,p_witout5_avg,p_total_time,sub,age,sex,handedness,loop,trial randomization,coherence,condition,direction1,direction2,direction_response,direction_RT,change_response,change_RT,change_confidence,change_confidence_RT,block_direction_avg,block_stable_avg,block_change_avg,total_time,sub,age,sex,handedness,
1,1,1.0,180,-,180,0.6334386000007726,-,-,-,,,,,,,,569,18,Woman,Right,,,,,,,,,,,,,,,,,569,18,Woman,Right,
1,1,1.0,0,-,0,0.04683680000016466,-,-,-,,,,,,,,569,18,Woman,Right,,,,,,,,,,,,,,,,,569,18,Woman,Right,
1,1,1.0,0,-,0,0.01670800000010786,-,-,-,,,,,,,,569,18,Woman,Right,,,,,,,,,,,,,,,,,569,18,Woman,Right,
1,1,1.0,0,-,0,0.016735000000153377,-,-,-,,,,,,,,569,18,Woman,Right,,,,,,,,,,,,,,,,,569,18,Woman,Right,
1,1,1.0,0,-,0,2.098212699999749,-,-,-,,,,,,,,569,18,Woman,Right,,,,,,,,,,,,,,,,,569,18,Woman,Right,
1,1,1.0,180,-,180,0.22503340000002936,-,-,-,,,,,,,,569,18,Woman,Right,,,,,,,,,,,,,,,,,569,18,Woman,Right,
1,1,1.0,180,-,0,0.37807040000006964,-,-,-,,,,,,,,569,18,Woman,Right,,,,,,,,,,,,,,,,,569,18,Woman,Right,
1,1,1.0,180,-,180,0.03760070000043925,-,-,-,,,,,,,,569,18,Woman,Right,,,,,,,,,,,,,,,,,569,18,Woman,Right,
1,1,1.0,180,-,180,0.06231680000018969,-,-,-,,,,,,,,569,18,Woman,Right,,,,,,,,,,,,,,,,,569,18,Woman,Right,
1,1,1.0,180,-,180,0.0167513999995208,-,-,-,9,9,10,10,0.9,0.9,,569,18,Woman,Right,,,,,,,,,,,,,,,,,569,18,Woman,Right,
2,1,0.15,180,-,180,0.5012641000002986,-,-,-,,,,,,,,569,18,Woman,Right,,,,,,,,,,,,,,,,,569,18,Woman,Right,
2,1,0.15,180,-,0,0.3791737000001376,-,-,-,,,,,,,,569,18,Woman,Right,,,,,,,,,,,,,,,,,569,18,Woman,Right,
2,1,0.4,0,-,0,0.022576600000320468,-,-,-,,,,,,,,569,18,Woman,Right,,,,,,,,,,,,,,,,,569,18,Woman,Right,
2,1,0.15,0,-,0,0.016538300000320305,-,-,-,,,,,,,,569,18,Woman,Right,,,,,,,,,,,,,,,,,569,18,Woman,Right,
2,1,0.4,180,-,180,0.025673299999652954,-,-,-,,,,,,,,569,18,Woman,Right,,,,,,,,,,,,,,,,,569,18,Woman,Right,
2,1,0.4,180,-,180,0.7626461999998355,-,-,-,,,,,,,,569,18,Woman,Right,,,,,,,,,,,,,,,,,569,18,Woman,Right,
2,1,0.4,0,-,0,0.016702599999916856,-,-,-,,,,,,,,569,18,Woman,Right,,,,,,,,,,,,,,,,,569,18,Woman,Right,
2,1,0.15,0,-,0,0.26476499999989755,-,-,-,,,,,,,,569,18,Woman,Right,,,,,,,,,,,,,,,,,569,18,Woman,Right,
2,1,0.4,180,-,180,0.0166626999998698,-,-,-,,,,,,,,569,18,Woman,Right,,,,,,,,,,,,,,,,,569,18,Woman,Right,
2,1,0.4,180,-,0,0.2177622999997766,-,-,-,8,5,10,6,0.8,0.8333333333333334,,569,18,Woman,Right,,,,,,,,,,,,,,,,,569,18,Woman,Right,
3,2,1.0,0,180,0,0.01674249999996391,['y'],13.68414810000013,1.8639999999999999,,,,,,,,569,18,Woman,Right,,,,,,,,,,,,,,,,,569,18,Woman,Right,
3,2,1.0,180,0,0,4.768657099999473,['y'],1.298388199999863,2.0,,,,,,,,569,18,Woman,Right,,,,,,,,,,,,,,,,,569,18,Woman,Right,
3,2,1.0,180,0,180,0.9309001000001444,['y'],1.3348572999993848,1.994,,,,,,,,569,18,Woman,Right,,,,,,,,,,,,,,,,,569,18,Woman,Right,
3,2,1.0,0,180,180,1.2526255000002493,['y'],0.4761012999997547,1.888,,,,,,,,569,18,Woman,Right,,,,,,,,,,,,,,,,,569,18,Woman,Right,
3,2,1.0,0,180,180,0.7075873000003412,['y'],0.8970767999999225,1.926,,,,,,,,569,18,Woman,Right,,,,,,,,,,,,,,,,,569,18,Woman,Right,
3,2,1.0,180,0,0,1.3296151999993526,['y'],0.2787402000003567,1.724,,,,,,,,569,18,Woman,Right,,,,,,,,,,,,,,,,,569,18,Woman,Right,
3,2,1.0,0,180,180,1.6111054000002696,['y'],0.30068110000047454,1.98,,,,,,,,569,18,Woman,Right,,,,,,,,,,,,,,,,,569,18,Woman,Right,
3,2,1.0,180,0,0,0.7811513999995441,['y'],0.3119784999998956,1.87,,,,,,,,569,18,Woman,Right,,,,,,,,,,,,,,,,,569,18,Woman,Right,
3,2,1.0,0,180,180,0.4632621000000654,['y'],0.3899276000001919,1.8820000000000001,,,,,,,,569,18,Woman,Right,,,,,,,,,,,,,,,,,569,18,Woman,Right,
3,2,1.0,0,180,180,0.4000367999997252,['y'],0.33543009999993956,1.8820000000000001,8,8,10,10,0.8,0.8,,569,18,Woman,Right,,,,,,,,,,,,,,,,,569,18,Woman,Right,
4,2,0.4,180,0,0,2.7001915000000736,['y'],1.2491768999998385,1.814,,,,,,,,569,18,Woman,Right,,,,,,,,,,,,,,,,,569,18,Woman,Right,
4,2,0.15,180,0,0,2.461185899999691,['y'],0.4123887999994622,1.916,,,,,,,,569,18,Woman,Right,,,,,,,,,,,,,,,,,569,18,Woman,Right,
4,2,0.15,180,0,0,2.4804002999999284,['y'],0.886358000000655,1.916,,,,,,,,569,18,Woman,Right,,,,,,,,,,,,,,,,,569,18,Woman,Right,
4,2,0.4,0,180,180,1.2504423999998835,['y'],0.8293826999997691,1.916,,,,,,,,569,18,Woman,Right,,,,,,,,,,,,,,,,,569,18,Woman,Right,
4,2,0.4,0,180,180,0.46815610000066954,['y'],0.3470612000000983,1.916,,,,,,,,569,18,Woman,Right,,,,,,,,,,,,,,,,,569,18,Woman,Right,
4,2,0.4,0,180,180,0.5207389999995939,['y'],0.5732873999995718,1.916,,,,,,,,569,18,Woman,Right,,,,,,,,,,,,,,,,,569,18,Woman,Right,
4,2,0.15,0,180,0,0.7832349999998769,['y'],0.342470399999911,1.916,,,,,,,,569,18,Woman,Right,,,,,,,,,,,,,,,,,569,18,Woman,Right,
4,2,0.4,180,0,0,0.41558119999990595,['y'],0.4168957000001683,1.904,,,,,,,,569,18,Woman,Right,,,,,,,,,,,,,,,,,569,18,Woman,Right,
4,2,0.4,180,0,0,0.6718756000000212,['y'],0.3586419000002934,1.796,,,,,,,,569,18,Woman,Right,,,,,,,,,,,,,,,,,569,18,Woman,Right,
4,2,0.4,0,180,180,0.7364249000002019,['y'],0.5651086999996551,1.798,9,7,10,7,0.9,1.0,,569,18,Woman,Right,,,,,,,,,,,,,,,,,569,18,Woman,Right,
5,3,0.4,180,-,0,2.0801775999998426,['y'],3.429641400000037,1.166,,,,,,,,569,18,Woman,Right,,,,,,,,,,,,,,,,,569,18,Woman,Right,
5,3,0.4,0,180,180,0.6892970999997488,['y'],2.3748336999997264,1.802,,,,,,,,569,18,Woman,Right,,,,,,,,,,,,,,,,,569,18,Woman,Right,
5,3,1.0,0,180,180,0.6073951000007582,['y'],0.44024720000015805,1.826,,,,,,,,569,18,Woman,Right,,,,,,,,,,,,,,,,,569,18,Woman,Right,
5,3,1.0,180,-,180,0.6770866000006208,['n'],0.46777599999950326,1.826,,,,,,,,569,18,Woman,Right,,,,,,,,,,,,,,,,,569,18,Woman,Right,
5,3,0.15,180,0,0,1.663225400000556,['y'],0.9991562000004706,2.0,,,,,,,,569,18,Woman,Right,,,,,,,,,,,,,,,,,569,18,Woman,Right,
5,3,1.0,180,0,0,0.6979811000001064,['y'],0.2565708000001905,1.874,,,,,,,,569,18,Woman,Right,,,,,,,,,,,,,,,,,569,18,Woman,Right,
5,3,0.4,0,-,0,1.4848676999999952,['n'],0.5389710999997988,1.8980000000000001,,,,,,,,569,18,Woman,Right,,,,,,,,,,,,,,,,,569,18,Woman,Right,
5,3,1.0,180,-,180,0.5835252999995646,['n'],1.0249235000001136,1.924,,,,,,,,569,18,Woman,Right,,,,,,,,,,,,,,,,,569,18,Woman,Right,
5,3,0.15,0,180,0,1.3522229000000152,['n'],0.38768119999986084,1.248,,,,,,,,569,18,Woman,Right,,,,,,,,,,,,,,,,,569,18,Woman,Right,
5,3,0.4,0,180,0,0.6219113999995898,['n'],0.4073892000005799,1.3479999999999999,,,,,,,,569,18,Woman,Right,,,,,,,,,,,,,,,,,569,18,Woman,Right,
5,3,0.15,180,-,180,0.8705084999992323,['y'],0.2765769999996337,1.214,,,,,,,,569,18,Woman,Right,,,,,,,,,,,,,,,,,569,18,Woman,Right,
5,3,0.15,0,-,0,0.38179720000061934,['y'],0.23191159999987576,1.3639999999999999,,,,,,,,569,18,Woman,Right,,,,,,,,,,,,,,,,,569,18,Woman,Right,
5,3,0.4,0,-,0,9.415910200000326,['y'],0.38363050000043586,1.27,,,,,,,,569,18,Woman,Right,,,,,,,,,,,,,,,,,569,18,Woman,Right,
5,3,0.4,180,0,0,0.5023615999998583,['y'],0.2766983000001346,1.824,,,,,,,,569,18,Woman,Right,,,,,,,,,,,,,,,,,569,18,Woman,Right,
5,3,1.0,180,0,0,0.5570237000001725,['y'],0.7054139000001669,1.982,,,,,,,,569,18,Woman,Right,,,,,,,,,,,,,,,,,569,18,Woman,Right,
5,3,0.4,0,-,0,1.6248734999999215,['n'],0.41844880000007834,1.8679999999999999,,,,,,,,569,18,Woman,Right,,,,,,,,,,,,,,,,,569,18,Woman,Right,
5,3,0.4,180,-,180,0.4261929999993299,['n'],1.1061328999994657,1.87,,,,,,,,569,18,Woman,Right,,,,,,,,,,,,,,,,,569,18,Woman,Right,
5,3,0.15,0,180,0,1.3924584999995204,['n'],0.38626900000053865,1.26,,,,,,,,569,18,Woman,Right,,,,,,,,,,,,,,,,,569,18,Woman,Right,
5,3,1.0,180,-,0,1.3050699000004897,['n'],0.3426626000000397,1.772,,,,,,,,569,18,Woman,Right,,,,,,,,,,,,,,,,,569,18,Woman,Right,
5,3,0.15,0,180,0,0.5630863999995199,['n'],0.41379370000049676,1.1560000000000001,7,5,10,6,0.7,0.8333333333333334,,569,18,Woman,Right,,,,,,,,,,,,,,,,,569,18,Woman,Right,
,,,,,,,,,,,,,,,,5.200000487093348e-06,569,18,Woman,Right,,,,,,,,,,,,,,,,,569,18,Woman,Right,
,,,,,,,,,,,,,,,,,569,18,Woman,Right,0,39,0.4,2,180,0,0,0.7592207000006965,['y'],3.167016099999273,1.904,352.3140450000001,,,,,569,18,Woman,Right,
,,,,,,,,,,,,,,,,,569,18,Woman,Right,0,35,0.4,2,180,0,0,1.7171324000000823,['y'],1.1491378000000623,1.92,357.7140405,,,,,569,18,Woman,Right,
,,,,,,,,,,,,,,,,,569,18,Woman,Right,0,10,0.4,1,180,-,180,0.46009070000036445,['y'],1.2390694999994594,1.92,362.1805209000004,,,,,569,18,Woman,Right,
,,,,,,,,,,,,,,,,,569,18,Woman,Right,0,62,0.15,1,180,-,180,3.6006273000002693,['n'],1.0230237000005218,1.686,370.36379020000004,,,,,569,18,Woman,Right,
,,,,,,,,,,,,,,,,,569,18,Woman,Right,0,29,0.4,2,0,180,0,1.0389931999998225,['n'],1.8782807999996294,1.584,377.0636980999998,,,,,569,18,Woman,Right,
,,,,,,,,,,,,,,,,,569,18,Woman,Right,0,1,1,2,0,180,180,1.0256543000004967,['y'],1.223414999999477,1.948,382.56369369999993,,,,,569,18,Woman,Right,
,,,,,,,,,,,,,,,,,569,18,Woman,Right,0,51,0.15,2,180,0,0,0.43572240000048623,['y'],1.7667913000004773,1.954,387.3803632999998,,,,,569,18,Woman,Right,
,,,,,,,,,,,,,,,,,569,18,Woman,Right,0,64,0.15,1,0,-,180,0.5762297999999646,['n'],3.1833688000006077,1.3399999999999999,393.76363070000025,,,,,569,18,Woman,Right,
,,,,,,,,,,,,,,,,,569,18,Woman,Right,0,32,0.4,1,0,-,0,0.39664819999961765,['y'],1.9271419000006063,1.588,399.0301758000005,,,,,569,18,Woman,Right,
,,,,,,,,,,,,,,,,,569,18,Woman,Right,0,53,0.15,2,0,180,180,0.7424530999996932,['y'],3.534909400000288,1.5899999999999999,406.1636661000002,,,,,569,18,Woman,Right,
,,,,,,,,,,,,,,,,,569,18,Woman,Right,0,28,0.4,1,0,-,0,0.18848309999975754,['y'],1.5183686000000307,1.5859999999999999,410.78017809999983,,,,,569,18,Woman,Right,
,,,,,,,,,,,,,,,,,569,18,Woman,Right,0,71,0.15,2,180,0,180,0.9845101999999315,['n'],1.2149313999998412,1.392,416.4306704999999,,,,,569,18,Woman,Right,
,,,,,,,,,,,,,,,,,569,18,Woman,Right,0,63,0.15,2,180,0,0,0.019408199999816134,['y'],2.4785099999999147,1.6,421.513516,,,,,569,18,Woman,Right,
,,,,,,,,,,,,,,,,,569,18,Woman,Right,0,75,0.15,2,180,0,180,1.924756599999455,['n'],1.0067476999993232,1.914,428.3801721,,,,,569,18,Woman,Right,
,,,,,,,,,,,,,,,,,569,18,Woman,Right,0,68,0.15,1,0,-,0,1.4819618999999875,['n'],1.1188925000005838,1.778,433.7633772999998,,,,,569,18,Woman,Right,
,,,,,,,,,,,,,,,,,569,18,Woman,Right,0,19,0.4,2,180,0,0,0.49674319999940053,['n'],1.5349788000003173,1.6280000000000001,438.8298783,,,,,569,18,Woman,Right,
,,,,,,,,,,,,,,,,,569,18,Woman,Right,0,8,0.4,1,0,-,0,0.5521654000003764,['y'],1.2309733999991295,1.6280000000000001,443.1299718,,,,,569,18,Woman,Right,
,,,,,,,,,,,,,,,,,569,18,Woman,Right,0,25,0.4,2,0,180,180,0.4911247000000003,['n'],1.263228299999355,1.63,447.5968840000005,,,,,569,18,Woman,Right,
,,,,,,,,,,,,,,,,,569,18,Woman,Right,0,40,0.4,1,0,-,0,0.03846640000028856,['n'],1.9749268000005031,1.6219999999999999,452.8965994,,,,,569,18,Woman,Right,
,,,,,,,,,,,,,,,,,569,18,Woman,Right,0,61,0.15,2,0,180,0,1.219941800000015,['n'],0.9909145999999964,1.814,458.0631951000005,,,,,569,18,Woman,Right,
,,,,,,,,,,,,,,,,,569,18,Woman,Right,0,20,0.4,1,0,-,0,0.2159682999999859,['y'],1.4471973999998227,1.672,462.36453530000017,,,,,569,18,Woman,Right,
,,,,,,,,,,,,,,,,,569,18,Woman,Right,0,26,0.4,1,180,-,180,0.21599950000017998,['n'],1.6870699999999488,1.57,468.29652110000006,,,,,569,18,Woman,Right,
,,,,,,,,,,,,,,,,,569,18,Woman,Right,0,13,0.4,2,0,180,0,0.24495010000009643,['n'],1.2150936999996702,1.264,473.66329640000004,,,,,569,18,Woman,Right,
,,,,,,,,,,,,,,,,,569,18,Woman,Right,0,54,0.15,1,180,-,180,0.7503817000006165,['n'],2.3985295000002225,1.342,481.09642820000045,,,,,569,18,Woman,Right,
,,,,,,,,,,,,,,,,,569,18,Woman,Right,0,0,1,1,0,-,0,0.24349399999937305,['y'],1.190930799999478,1.8900000000000001,485.82972549999977,,,,,569,18,Woman,Right,
,,,,,,,,,,,,,,,,,569,18,Woman,Right,0,36,0.4,1,0,-,0,0.3115085999997973,['n'],1.1589842000003046,1.854,489.7797609999998,,,,,569,18,Woman,Right,
,,,,,,,,,,,,,,,,,569,18,Woman,Right,0,57,0.15,2,0,180,0,0.4595294000000649,['n'],1.3909880000001067,1.708,494.5629678000005,,,,,569,18,Woman,Right,
,,,,,,,,,,,,,,,,,569,18,Woman,Right,0,15,0.4,2,180,0,0,1.8656559000000925,['n'],1.1666801999999734,1.724,500.59633550000035,,,,,569,18,Woman,Right,
,,,,,,,,,,,,,,,,,569,18,Woman,Right,0,49,0.15,2,0,180,0,3.2666645999997854,['y'],1.4865550000004077,1.342,508.1462239000002,,,,,569,18,Woman,Right,
,,,,,,,,,,,,,,,,,569,18,Woman,Right,0,12,0.4,1,0,-,0,2.7517281000000366,['n'],1.4547922000001563,1.174,514.9461828000003,,,,,569,18,Woman,Right,
,,,,,,,,,,,,,,,,,569,18,Woman,Right,0,48,0.15,1,0,-,180,0.6274800000001051,['n'],1.5589750999997705,1.8,520.3295194000002,,,,,569,18,Woman,Right,
,,,,,,,,,,,,,,,,,569,18,Woman,Right,0,11,0.4,2,180,0,0,0.850569600000199,['n'],2.262600800000655,1.028,525.9962413000003,,,,,569,18,Woman,Right,
,,,,,,,,,,,,,,,,,569,18,Woman,Right,0,37,0.4,2,0,180,0,0.2791247999994084,['n'],2.8231495999998515,1.9020000000000001,533.1962335999997,,,,,569,18,Woman,Right,
,,,,,,,,,,,,,,,,,569,18,Woman,Right,0,3,1,2,180,0,0,1.0168265000002066,['y'],4.680630899999414,1.858,541.9802596,,,,,569,18,Woman,Right,
,,,,,,,,,,,,,,,,,569,18,Woman,Right,0,23,0.4,2,180,0,0,0.6818381000002773,['y'],3.5908472999999503,1.858,549.2293124999997,,,,,569,18,Woman,Right,
,,,,,,,,,,,,,,,,,569,18,Woman,Right,0,6,1,1,180,-,180,3.9445519999999306,['n'],0.9989007000003767,1.06,558.0624679000002,,,,,569,18,Woman,Right,
,,,,,,,,,,,,,,,,,569,18,Woman,Right,0,67,0.15,2,180,0,0,1.7104728999993313,['n'],1.1028917000003275,1.04,564.5458311000002,,,,,569,18,Woman,Right,
,,,,,,,,,,,,,,,,,569,18,Woman,Right,0,24,0.4,1,0,-,180,3.739869500000168,['n'],1.4548294000005626,1.1219999999999999,572.4958225999999,,,,,569,18,Woman,Right,
,,,,,,,,,,,,,,,,,569,18,Woman,Right,0,44,0.15,1,0,-,0,0.6470460000000458,['n'],1.3026697000004788,1.6099999999999999,577.3959783,,,,,569,18,Woman,Right,
,,,,,,,,,,,,,,,,,569,18,Woman,Right,0,72,0.15,1,0,-,180,5.293534200000067,['y'],0.8146897000005993,1.8479999999999999,587.1623783000005,,,,,569,18,Woman,Right,
,,,,,,,,,,,,,,,,,569,18,Woman,Right,0,77,0.15,2,0,180,0,1.036084600000322,['n'],2.9669788999999582,1.688,593.8956475000005,,,,,569,18,Woman,Right,
,,,,,,,,,,,,,,,,,569,18,Woman,Right,0,17,0.4,2,0,180,180,0.600238700000773,['y'],0.823535699999411,1.96,598.5125220999998,,,,,569,18,Woman,Right,
,,,,,,,,,,,,,,,,,569,18,Woman,Right,0,66,0.15,1,180,-,180,0.8635683000002246,['y'],1.1352592000002915,1.712,603.3623876000001,,,,,569,18,Woman,Right,
,,,,,,,,,,,,,,,,,569,18,Woman,Right,0,52,0.15,1,0,-,180,0.6314945000003718,['y'],1.998899999999594,1.57,608.9633269000005,,,,,569,18,Woman,Right,
,,,,,,,,,,,,,,,,,569,18,Woman,Right,0,9,0.4,2,0,180,180,0.5736451999991914,['y'],1.1910608000007414,1.5859999999999999,613.4621468000005,,,,,569,18,Woman,Right,
,,,,,,,,,,,,,,,,,569,18,Woman,Right,0,73,0.15,2,0,180,180,2.4013402999999016,['y'],1.246320299999752,1.3599999999999999,620.3788218999998,,,,,569,18,Woman,Right,
,,,,,,,,,,,,,,,,,569,18,Woman,Right,0,33,0.4,2,0,180,0,1.4449156000000585,['n'],1.1589100000001054,1.6280000000000001,625.5621484000003,,,,,569,18,Woman,Right,
,,,,,,,,,,,,,,,,,569,18,Woman,Right,0,4,1,1,0,-,0,0.30859479999980977,['n'],1.8868646999999328,1.8599999999999999,630.428766,,,,,569,18,Woman,Right,
,,,,,,,,,,,,,,,,,569,18,Woman,Right,0,7,1,2,180,0,0,0.4751219999998284,['y'],1.294861899999887,1.742,634.5788924999997,,,,,569,18,Woman,Right,
,,,,,,,,,,,,,,,,,569,18,Woman,Right,0,65,0.15,2,0,180,180,0.6241192999996201,['n'],1.2785283000002892,1.826,639.5953130999997,,,,,569,18,Woman,Right,
,,,,,,,,,,,,,,,,,569,18,Woman,Right,0,2,1,1,180,-,180,0.3323715999995329,['n'],1.6709491999999955,1.798,644.3288840000005,,,,,569,18,Woman,Right,
,,,,,,,,,,,,,,,,,569,18,Woman,Right,0,55,0.15,2,180,0,180,1.0892357000002448,['n'],1.0310788999995566,1.8,648.7788455,,,,,569,18,Woman,Right,
,,,,,,,,,,,,,,,,,569,18,Woman,Right,0,21,0.4,2,0,180,0,0.2795145000000048,['n'],2.2550678999996308,1.944,654.2286438000001,,,,,569,18,Woman,Right,
,,,,,,,,,,,,,,,,,569,18,Woman,Right,0,56,0.15,1,0,-,0,0.9651042000004963,['y'],1.3822717999992165,1.5859999999999999,659.9960399000001,,,,,569,18,Woman,Right,
,,,,,,,,,,,,,,,,,569,18,Woman,Right,0,30,0.4,1,180,-,0,4.34061439999914,['y'],4.062858600000254,1.754,671.3953223999997,,,,,569,18,Woman,Right,
,,,,,,,,,,,,,,,,,569,18,Woman,Right,0,76,0.15,1,0,-,0,1.3441645999992033,['y'],1.342799100000775,1.756,676.6118127,,,,,569,18,Woman,Right,
,,,,,,,,,,,,,,,,,569,18,Woman,Right,0,59,0.15,2,180,0,0,0.3090513999995892,['n'],1.35092750000058,1.756,680.6283831000001,,,,,569,18,Woman,Right,
,,,,,,,,,,,,,,,,,569,18,Woman,Right,0,45,0.15,2,0,180,180,1.3679518999997526,['n'],1.1109983999995166,1.1400000000000001,685.9617133000002,,,,,569,18,Woman,Right,
,,,,,,,,,,,,,,,,,569,18,Woman,Right,0,42,0.4,1,180,-,180,0.5711315999997169,['n'],2.8072961000007126,1.888,692.1452558999999,,,,,569,18,Woman,Right,
,,,,,,,,,,,,,,,,,569,18,Woman,Right,0,16,0.4,1,0,-,0,0.2191120999996201,['n'],1.231044899999688,1.666,696.4782941000003,,,,,569,18,Woman,Right,
,,,,,,,,,,,,,,,,,569,18,Woman,Right,0,70,0.15,1,180,-,0,1.930099400000472,['y'],1.7668978000001516,1.75,702.845773,,,,,569,18,Woman,Right,
,,,,,,,,,,,,,,,,,569,18,Woman,Right,0,5,1,2,0,180,180,0.5250082000002294,['y'],1.7428274000003512,1.958,707.994866,,,,,569,18,Woman,Right,
,,,,,,,,,,,,,,,,,569,18,Woman,Right,0,22,0.4,1,180,-,180,0.487275899999986,['n'],1.1989883000005648,1.4020000000000001,712.2615250999997,,,,,569,18,Woman,Right,
,,,,,,,,,,,,,,,,,569,18,Woman,Right,0,47,0.15,2,180,0,180,1.028226800000084,['y'],2.0788545000004888,1.2,717.7781775000003,,,,,569,18,Woman,Right,
,,,,,,,,,,,,,,,,,569,18,Woman,Right,0,58,0.15,1,180,-,180,2.2398317999995925,['n'],1.4390801999998075,1.612,723.8116916999998,,,,,569,18,Woman,Right,
,,,,,,,,,,,,,,,,,569,18,Woman,Right,0,14,0.4,1,180,-,180,0.2671012000000701,['n'],1.4309636999996656,1.73,727.8117134000004,,,,,569,18,Woman,Right,
,,,,,,,,,,,,,,,,,569,18,Woman,Right,0,27,0.4,2,180,0,180,0.6403512000006231,['n'],1.807568700000047,1.31,733.7446940999998,,,,,569,18,Woman,Right,
,,,,,,,,,,,,,,,,,569,18,Woman,Right,0,60,0.15,1,0,-,0,0.1938999000003605,['n'],2.6065411999998105,1.77,738.9446758000004,,,,,569,18,Woman,Right,
,,,,,,,,,,,,,,,,,569,18,Woman,Right,0,79,0.15,2,180,0,180,2.3337814999995317,['n'],0.7908555000003616,1.0,744.8946108,,,,,569,18,Woman,Right,
,,,,,,,,,,,,,,,,,569,18,Woman,Right,0,31,0.4,2,180,0,0,3.2149889000002077,['n'],0.5989976000000752,1.02,751.6945575,,,,,569,18,Woman,Right,
,,,,,,,,,,,,,,,,,569,18,Woman,Right,0,18,0.4,1,180,-,180,0.16412269999909768,['n'],2.7029837999998563,1.6219999999999999,758.4611209000004,,,,,569,18,Woman,Right,
,,,,,,,,,,,,,,,,,569,18,Woman,Right,0,69,0.15,2,0,180,180,0.8102476000003662,['n'],1.9909201999998913,1.65,764.5112738999997,,,,,569,18,Woman,Right,
,,,,,,,,,,,,,,,,,569,18,Woman,Right,0,50,0.15,1,180,-,180,0.2905104000001302,['n'],1.3028331999994407,1.858,768.4944732000004,,,,,569,18,Woman,Right,
,,,,,,,,,,,,,,,,,569,18,Woman,Right,0,43,0.4,2,180,0,0,0.6886007000002792,['y'],1.5423244999992676,1.888,773.6447119000004,,,,,569,18,Woman,Right,
,,,,,,,,,,,,,,,,,569,18,Woman,Right,0,74,0.15,1,180,-,180,0.8336483000002772,['n'],1.2299739999998565,1.806,778.4950421000003,,,,,569,18,Woman,Right,
,,,,,,,,,,,,,,,,,569,18,Woman,Right,0,34,0.4,1,180,-,0,0.757792000000336,['y'],1.7990483000003223,1.6280000000000001,784.5110480000003,,,,,569,18,Woman,Right,
,,,,,,,,,,,,,,,,,569,18,Woman,Right,0,38,0.4,1,180,-,180,1.2549577999998291,['n'],1.078457900000103,1.6360000000000001,789.7443346999999,,,,,569,18,Woman,Right,
,,,,,,,,,,,,,,,,,569,18,Woman,Right,0,41,0.4,2,0,180,0,2.287520900000345,['n'],0.45474729999932606,1.014,795.5445571999999,,,,,569,18,Woman,Right,
,,,,,,,,,,,,,,,,,569,18,Woman,Right,0,46,0.15,1,180,-,0,1.3126193999996758,['n'],0.4383640000005471,1.0,800.2442935999998,,,,,569,18,Woman,Right,
,,,,,,,,,,,,,,,,,569,18,Woman,Right,0,78,0.15,1,180,-,0,0.4793761999999333,['n'],1.3027335999995557,1.75,805.4441816999997,,,,,569,18,Woman,Right,
,,,,,,,,,,,,,,,,,569,18,Woman,Right,1,9,0.4,2,0,180,0,0.6242820999996184,['y'],1.4226987000001827,1.692,832.6951602999998,67.5,65.0,40.0,,569,18,Woman,Right,
,,,,,,,,,,,,,,,,,569,18,Woman,Right,1,34,0.4,1,180,-,180,0.34560060000058,['y'],1.2872137000003931,1.244,837.1774046999999,,,,,569,18,Woman,Right,
,,,,,,,,,,,,,,,,,569,18,Woman,Right,1,71,0.15,2,180,0,0,1.5659033000001727,['n'],0.9429536999996344,1.04,842.4274652000004,,,,,569,18,Woman,Right,
,,,,,,,,,,,,,,,,,569,18,Woman,Right,1,25,0.4,2,0,180,0,0.26832500000000437,['y'],1.7427694999996675,1.738,846.8772453000001,,,,,569,18,Woman,Right,
,,,,,,,,,,,,,,,,,569,18,Woman,Right,1,26,0.4,1,180,-,180,0.6636723999999958,['n'],1.1672504999996818,1.3679999999999999,851.6606683999998,,,,,569,18,Woman,Right,
,,,,,,,,,,,,,,,,,569,18,Woman,Right,1,78,0.15,1,180,-,180,0.6517793000002712,['n'],1.030887600000824,1.37,856.0605594999997,,,,,569,18,Woman,Right,
,,,,,,,,,,,,,,,,,569,18,Woman,Right,1,5,1,2,0,180,0,0.016962599999715167,['y'],3.296296400000756,1.828,862.2605802999997,,,,,569,18,Woman,Right,
,,,,,,,,,,,,,,,,,569,18,Woman,Right,1,55,0.15,2,180,0,0,0.7550246999999217,['y'],3.094775800000207,1.84,868.8605460999997,,,,,569,18,Woman,Right,
,,,,,,,,,,,,,,,,,569,18,Woman,Right,1,28,0.4,1,0,-,0,0.7552949000000808,['n'],0.8549011999994036,1.82,872.9772094999998,,,,,569,18,Woman,Right,
,,,,,,,,,,,,,,,,,569,18,Woman,Right,1,6,1,1,180,-,180,0.36240209999959916,['n'],0.9347800999994433,1.99,877.9612861000005,,,,,569,18,Woman,Right,
,,,,,,,,,,,,,,,,,569,18,Woman,Right,1,16,0.4,1,0,-,0,2.3690343000007488,['n'],1.8628921999998056,1.21,885.4770052000003,,,,,569,18,Woman,Right,
,,,,,,,,,,,,,,,,,569,18,Woman,Right,1,45,0.15,2,0,180,0,1.103074700000434,['n'],2.702240200000233,1.23,891.6604089000002,,,,,569,18,Woman,Right,
,,,,,,,,,,,,,,,,,569,18,Woman,Right,1,18,0.4,1,180,-,180,0.5466129999995246,['n'],1.27087180000035,1.718,896.7436656,,,,,569,18,Woman,Right,
,,,,,,,,,,,,,,,,,569,18,Woman,Right,1,11,0.4,2,180,0,0,0.566649100000177,['y'],1.4550823999998101,1.8900000000000001,901.5770671999999,,,,,569,18,Woman,Right,
,,,,,,,,,,,,,,,,,569,18,Woman,Right,1,10,0.4,1,180,-,180,0.47036579999985406,['y'],1.7744849999999133,1.97,906.5602613000001,,,,,569,18,Woman,Right,
,,,,,,,,,,,,,,,,,569,18,Woman,Right,1,41,0.4,2,0,180,0,0.6435523000000103,['y'],1.358795399999508,1.812,911.1102303999996,,,,,569,18,Woman,Right,
,,,,,,,,,,,,,,,,,569,18,Woman,Right,1,62,0.15,1,180,-,180,0.4083578999998281,['y'],1.55861460000051,1.948,915.9435315000001,,,,,569,18,Woman,Right,
,,,,,,,,,,,,,,,,,569,18,Woman,Right,1,21,0.4,2,0,180,180,0.566680500000075,['y'],0.9750139999996463,1.8559999999999999,919.9434296,,,,,569,18,Woman,Right,
,,,,,,,,,,,,,,,,,569,18,Woman,Right,1,2,1,1,180,-,180,0.21312610000040877,['n'],0.7591715999997177,1.8599999999999999,923.2769606000002,,,,,569,18,Woman,Right,
,,,,,,,,,,,,,,,,,569,18,Woman,Right,1,77,0.15,2,0,180,180,0.6113833999997951,['n'],0.911048099999789,1.8599999999999999,927.2435501,,,,,569,18,Woman,Right,
,,,,,,,,,,,,,,,,,569,18,Woman,Right,1,50,0.15,1,180,-,0,0.507203600000139,['y'],1.95140420000007,2.0,932.6267411999997,,,,,569,18,Woman,Right,
,,,,,,,,,,,,,,,,,569,18,Woman,Right,1,14,0.4,1,180,-,0,3.6925191999998788,['y'],3.319436499999938,1.17,942.6932469000003,,,,,569,18,Woman,Right,
,,,,,,,,,,,,,,,,,569,18,Woman,Right,1,43,0.4,2,180,0,0,0.28932669999994687,['y'],1.3189174999997704,1.8820000000000001,946.7935944999999,,,,,569,18,Woman,Right,
,,,,,,,,,,,,,,,,,569,18,Woman,Right,1,70,0.15,1,180,-,180,0.5723659000004773,['n'],0.7826898000002984,1.62,951.2931976999998,,,,,569,18,Woman,Right,
,,,,,,,,,,,,,,,,,569,18,Woman,Right,1,7,1,2,180,0,0,0.45209169999998267,['y'],0.9991090000003169,1.95,955.3600022999999,,,,,569,18,Woman,Right,
,,,,,,,,,,,,,,,,,569,18,Woman,Right,1,67,0.15,2,180,0,180,1.7108150999993086,['y'],0.5589905999995608,1.064,960.5098524000005,,,,,569,18,Woman,Right,
,,,,,,,,,,,,,,,,,569,18,Woman,Right,1,15,0.4,2,180,0,0,0.4438127000003078,['y'],1.0625363999997717,1.858,964.5598870000003,,,,,569,18,Woman,Right,
,,,,,,,,,,,,,,,,,569,18,Woman,Right,1,61,0.15,2,0,180,0,1.095933700000387,['n'],0.9909409000001688,1.8479999999999999,969.0431762999997,,,,,569,18,Woman,Right,
,,,,,,,,,,,,,,,,,569,18,Woman,Right,1,42,0.4,1,180,-,0,0.3563109999995504,['y'],4.367017200000191,1.674,976.4433344999998,,,,,569,18,Woman,Right,
,,,,,,,,,,,,,,,,,569,18,Woman,Right,1,72,0.15,1,0,-,180,1.4025126000005912,['n'],0.9268187999996371,1.07,981.4439117000002,,,,,569,18,Woman,Right,
,,,,,,,,,,,,,,,,,569,18,Woman,Right,1,54,0.15,1,180,-,180,0.610511800000495,['n'],1.0629850000004808,1.07,981.4439117000002,,,,,569,18,Woman,Right,
,,,,,,,,,,,,,,,,,569,18,Woman,Right,1,17,0.4,2,0,180,0,1.4533017000003383,['n'],1.0067522000008466,1.166,991.3429999999998,,,,,569,18,Woman,Right,
,,,,,,,,,,,,,,,,,569,18,Woman,Right,1,19,0.4,2,180,0,0,1.5217493999998624,['y'],3.406747500000165,1.874,999.1597006000002,,,,,569,18,Woman,Right,
,,,,,,,,,,,,,,,,,569,18,Woman,Right,1,69,0.15,2,0,180,180,1.0565748999997595,['n'],1.2950880999997025,1.576,1004.4595883000002,,,,,569,18,Woman,Right,
,,,,,,,,,,,,,,,,,569,18,Woman,Right,1,32,0.4,1,0,-,0,7.693305700000565,['n'],1.6543685000006008,1.78,1015.9761914000001,,,,,569,18,Woman,Right,
,,,,,,,,,,,,,,,,,569,18,Woman,Right,1,57,0.15,2,0,180,0,0.1265488999997615,['n'],0.7989786999996795,1.986,1020.2927975000002,,,,,569,18,Woman,Right,
,,,,,,,,,,,,,,,,,569,18,Woman,Right,1,27,0.4,2,180,0,0,0.7306736999998975,['y'],0.9750432000000728,1.784,1024.3262955999999,,,,,569,18,Woman,Right,
,,,,,,,,,,,,,,,,,569,18,Woman,Right,1,1,1,2,0,180,180,0.8211934000000838,['y'],1.7751381000007314,1.846,1029.3761826,,,,,569,18,Woman,Right,
,,,,,,,,,,,,,,,,,569,18,Woman,Right,1,29,0.4,2,0,180,180,0.6464641000002302,['y'],0.990613800000574,1.784,1033.3260542999997,,,,,569,18,Woman,Right,
,,,,,,,,,,,,,,,,,569,18,Woman,Right,1,65,0.15,2,0,180,0,0.6622797999998511,['n'],1.2151377000000139,1.838,1037.4928963000002,,,,,569,18,Woman,Right,
,,,,,,,,,,,,,,,,,569,18,Woman,Right,1,60,0.15,1,0,-,0,0.32253120000041235,['n'],0.9516678999998476,1.838,1041.009572,,,,,569,18,Woman,Right,
,,,,,,,,,,,,,,,,,569,18,Woman,Right,1,23,0.4,2,180,0,0,0.6402900000002774,['y'],2.18319960000008,1.418,1046.7759818000004,,,,,569,18,Woman,Right,
,,,,,,,,,,,,,,,,,569,18,Woman,Right,1,22,0.4,1,180,-,180,0.4177714000006745,['n'],0.6624782999997478,1.418,1046.7759818000004,,,,,569,18,Woman,Right,
,,,,,,,,,,,,,,,,,569,18,Woman,Right,1,59,0.15,2,180,0,180,0.19283470000027592,['n'],2.662753900000098,1.728,1056.2092418000002,,,,,569,18,Woman,Right,
,,,,,,,,,,,,,,,,,569,18,Woman,Right,1,76,0.15,1,0,-,0,0.32946889999948326,['n'],1.0389364000002388,1.728,1056.2092418000002,,,,,569,18,Woman,Right,
,,,,,,,,,,,,,,,,,569,18,Woman,Right,1,20,0.4,1,0,-,0,0.4247339000003194,['n'],1.159327299999859,1.774,1064.4426189000005,,,,,569,18,Woman,Right,
,,,,,,,,,,,,,,,,,569,18,Woman,Right,1,35,0.4,2,180,0,0,0.8881559000001289,['n'],1.19903450000038,1.6680000000000001,1069.0925640000005,,,,,569,18,Woman,Right,
,,,,,,,,,,,,,,,,,569,18,Woman,Right,1,31,0.4,2,180,0,180,0.3394484000000375,['y'],1.4152548000001843,1.674,1073.2764644,,,,,569,18,Woman,Right,
,,,,,,,,,,,,,,,,,569,18,Woman,Right,1,68,0.15,1,0,-,0,0.21658089999982622,['n'],0.8478445000000647,1.996,1077.8758927999997,,,,,569,18,Woman,Right,
,,,,,,,,,,,,,,,,,569,18,Woman,Right,1,63,0.15,2,180,0,180,1.0776700999995228,['n'],1.2227933999993184,1.384,1082.4924470000005,,,,,569,18,Woman,Right,
,,,,,,,,,,,,,,,,,569,18,Woman,Right,1,74,0.15,1,180,-,180,1.607482099999288,['n'],0.8950410999996166,1.384,1082.4924470000005,,,,,569,18,Woman,Right,
,,,,,,,,,,,,,,,,,569,18,Woman,Right,1,49,0.15,2,0,180,180,1.707291300000179,['n'],2.4706458000000566,1.3,1094.2922785,,,,,569,18,Woman,Right,
,,,,,,,,,,,,,,,,,569,18,Woman,Right,1,79,0.15,2,180,0,0,0.4211800000002768,['n'],2.75869320000038,1.6219999999999999,1100.1756219999997,,,,,569,18,Woman,Right,
,,,,,,,,,,,,,,,,,569,18,Woman,Right,1,30,0.4,1,180,-,180,1.5258225999996284,['n'],1.1584751000000324,1.786,1105.4090314000005,,,,,569,18,Woman,Right,
,,,,,,,,,,,,,,,,,569,18,Woman,Right,1,44,0.15,1,0,-,180,0.3418093999998746,['n'],1.6630949000000328,1.758,1109.8591367,,,,,569,18,Woman,Right,
,,,,,,,,,,,,,,,,,569,18,Woman,Right,1,52,0.15,1,0,-,0,0.016684999999597494,['n'],1.9445244999997158,1.876,1114.2421961999999,,,,,569,18,Woman,Right,
,,,,,,,,,,,,,,,,,569,18,Woman,Right,1,47,0.15,2,180,0,180,0.20523969999976543,['n'],1.2546730000003663,1.794,1118.1254626999998,,,,,569,18,Woman,Right,
,,,,,,,,,,,,,,,,,569,18,Woman,Right,1,51,0.15,2,180,0,0,1.8321335999999064,['n'],0.2784013000000414,1.112,1123.0921147999998,,,,,569,18,Woman,Right,
,,,,,,,,,,,,,,,,,569,18,Woman,Right,1,24,0.4,1,0,-,0,0.17785639999965497,['n'],2.454779100000451,1.746,1128.1088933,,,,,569,18,Woman,Right,
,,,,,,,,,,,,,,,,,569,18,Woman,Right,1,48,0.15,1,0,-,180,0.23814100000072358,['n'],0.9425859000002674,1.942,1133.24294,,,,,569,18,Woman,Right,
,,,,,,,,,,,,,,,,,569,18,Woman,Right,1,64,0.15,1,0,-,180,1.1830542999996396,['n'],1.4702530999993542,1.92,1139.0253125999998,,,,,569,18,Woman,Right,
,,,,,,,,,,,,,,,,,569,18,Woman,Right,1,66,0.15,1,180,-,180,0.6104715999999826,['n'],1.7822367999997368,1.846,1144.7753561999998,,,,,569,18,Woman,Right,
,,,,,,,,,,,,,,,,,569,18,Woman,Right,1,58,0.15,1,180,-,0,0.26861839999946824,['y'],1.7512661999999182,1.678,1154.0085755,,,,,569,18,Woman,Right,
,,,,,,,,,,,,,,,,,569,18,Woman,Right,1,8,0.4,1,0,-,0,0.41960589999962394,['y'],1.4546824999997625,1.69,1158.8420189999997,,,,,569,18,Woman,Right,
,,,,,,,,,,,,,,,,,569,18,Woman,Right,1,46,0.15,1,180,-,180,0.9758775999998761,['n'],3.0711130999998204,1.694,1165.3250815000001,,,,,569,18,Woman,Right,
,,,,,,,,,,,,,,,,,569,18,Woman,Right,1,39,0.4,2,180,0,180,0.1721613999998226,['n'],1.134976700000152,1.694,1165.3250815000001,,,,,569,18,Woman,Right,
,,,,,,,,,,,,,,,,,569,18,Woman,Right,1,56,0.15,1,0,-,0,0.16532340000048862,['n'],1.182972399999926,1.8860000000000001,1172.8418849999998,,,,,569,18,Woman,Right,
,,,,,,,,,,,,,,,,,569,18,Woman,Right,1,75,0.15,2,180,0,180,0.2174168000001373,['n'],1.199061299999812,1.8860000000000001,1176.6085488999997,,,,,569,18,Woman,Right,
,,,,,,,,,,,,,,,,,569,18,Woman,Right,1,3,1,2,180,0,0,0.6094449000001987,['y'],1.5908815000002505,1.998,1182.0751609999998,,,,,569,18,Woman,Right,
,,,,,,,,,,,,,,,,,569,18,Woman,Right,1,40,0.4,1,0,-,0,0.18166199999996024,['n'],2.478999699999804,1.928,1187.1249945,,,,,569,18,Woman,Right,
,,,,,,,,,,,,,,,,,569,18,Woman,Right,1,0,1,1,0,-,0,0.12595390000024054,['n'],1.0554649000005156,1.978,1190.7753002999998,,,,,569,18,Woman,Right,
,,,,,,,,,,,,,,,,,569,18,Woman,Right,1,33,0.4,2,0,180,180,1.1271333999993658,['y'],1.1670676000003368,1.6099999999999999,1196.6250836999998,,,,,569,18,Woman,Right,
,,,,,,,,,,,,,,,,,569,18,Woman,Right,1,73,0.15,2,0,180,0,0.23768899999959103,['y'],1.2867011999996976,1.6680000000000001,1200.6582584999996,,,,,569,18,Woman,Right,
,,,,,,,,,,,,,,,,,569,18,Woman,Right,1,36,0.4,1,0,-,0,0.602782500000103,['n'],1.1909197000004497,1.75,1204.8251607000002,,,,,569,18,Woman,Right,
,,,,,,,,,,,,,,,,,569,18,Woman,Right,1,12,0.4,1,0,-,0,0.4747607999997854,['n'],1.9350070999998934,1.592,1212.0414558000002,,,,,569,18,Woman,Right,
,,,,,,,,,,,,,,,,,569,18,Woman,Right,1,38,0.4,1,180,-,180,0.6629888999996183,['n'],1.2219886999992013,1.568,1217.8081711000004,,,,,569,18,Woman,Right,
,,,,,,,,,,,,,,,,,569,18,Woman,Right,1,53,0.15,2,0,180,0,0.13629299999956856,['y'],2.558355500000289,1.3679999999999999,1223.6581453,,,,,569,18,Woman,Right,
,,,,,,,,,,,,,,,,,569,18,Woman,Right,1,13,0.4,2,0,180,180,0.6255545000003622,['y'],1.4552559000003384,1.966,1228.3080470000004,,,,,569,18,Woman,Right,
,,,,,,,,,,,,,,,,,569,18,Woman,Right,1,4,1,1,0,-,180,0.6082444000003306,['y'],1.2550817999999708,1.974,1232.5914314000001,,,,,569,18,Woman,Right,
,,,,,,,,,,,,,,,,,569,18,Woman,Right,1,37,0.4,2,0,180,180,0.32680190000064613,['y'],0.9987264000001232,1.974,1232.5914314000001,,,,,569,18,Woman,Right,
,,,,,,,,,,,,,,,,,569,18,Woman,Right,2,41,0.4,2,0,180,180,0.9001725000007355,['n'],1.5634340999995402,1.506,1263.2412046,66.25,77.5,57.5,,569,18,Woman,Right,
,,,,,,,,,,,,,,,,,569,18,Woman,Right,2,14,0.4,1,180,-,180,0.3280128999995213,['y'],2.0548696999994718,1.276,1269.7244958,,,,,569,18,Woman,Right,
,,,,,,,,,,,,,,,,,569,18,Woman,Right,2,5,1,2,0,180,180,0.5078389000000243,['y'],1.063293799999883,1.842,1273.7247217000004,,,,,569,18,Woman,Right,
,,,,,,,,,,,,,,,,,569,18,Woman,Right,2,73,0.15,2,0,180,0,3.282187700000577,['n'],0.3585167999999612,1.008,1280.4411322000005,,,,,569,18,Woman,Right,
,,,,,,,,,,,,,,,,,569,18,Woman,Right,2,70,0.15,1,180,-,0,1.4702106000004278,['n'],0.3106926000000385,1.0,1284.7246387000005,,,,,569,18,Woman,Right,
,,,,,,,,,,,,,,,,,569,18,Woman,Right,2,18,0.4,1,180,-,180,0.4898477000006096,['n'],1.6069837000004554,1.692,1289.4585655,,,,,569,18,Woman,Right,
,,,,,,,,,,,,,,,,,569,18,Woman,Right,2,13,0.4,2,0,180,0,0.6854129000003013,['n'],0.983362599999964,1.696,1293.5579421000002,,,,,569,18,Woman,Right,
,,,,,,,,,,,,,,,,,569,18,Woman,Right,2,58,0.15,1,180,-,0,0.12740930000018125,['n'],0.9829048999999941,1.696,1297.3243465000005,,,,,569,18,Woman,Right,
,,,,,,,,,,,,,,,,,569,18,Woman,Right,2,35,0.4,2,180,0,180,3.3012864000002082,['n'],3.2471221000005244,1.71,1311.8075938000002,,,,,569,18,Woman,Right,
,,,,,,,,,,,,,,,,,569,18,Woman,Right,2,74,0.15,1,180,-,180,0.2565967999998975,['n'],1.0303807999998753,1.776,1315.7075465999997,,,,,569,18,Woman,Right,
,,,,,,,,,,,,,,,,,569,18,Woman,Right,2,59,0.15,2,180,0,180,0.38417200000003504,['y'],1.3751211999997395,1.27,1320.5408638999997,,,,,569,18,Woman,Right,
,,,,,,,,,,,,,,,,,569,18,Woman,Right,2,63,0.15,2,180,0,180,1.3476040999994439,['y'],2.0148558999999295,1.17,1326.5749881000002,,,,,569,18,Woman,Right,
,,,,,,,,,,,,,,,,,569,18,Woman,Right,2,47,0.15,2,180,0,0,0.016891900000700844,['n'],2.003821700000117,1.942,1331.4074294000002,,,,,569,18,Woman,Right,
,,,,,,,,,,,,,,,,,569,18,Woman,Right,2,50,0.15,1,180,-,0,0.5593300999998974,['n'],1.4227779000002556,1.942,1336.0408122,,,,,569,18,Woman,Right,
,,,,,,,,,,,,,,,,,569,18,Woman,Right,2,33,0.4,2,0,180,0,1.516332400000465,['n'],1.183206099999552,1.942,1341.1075148999998,,,,,569,18,Woman,Right,
,,,,,,,,,,,,,,,,,569,18,Woman,Right,2,16,0.4,1,0,-,180,0.20001950000005309,['n'],1.0191992000000027,1.7,1344.9240322000005,,,,,569,18,Woman,Right,
,,,,,,,,,,,,,,,,,569,18,Woman,Right,2,48,0.15,1,0,-,0,0.5853363000005629,['n'],0.7430578000003152,1.824,1348.6409070999998,,,,,569,18,Woman,Right,
,,,,,,,,,,,,,,,,,569,18,Woman,Right,2,12,0.4,1,0,-,180,0.1766358000004402,['n'],1.1986981999998534,1.698,1352.6240131000004,,,,,569,18,Woman,Right,
,,,,,,,,,,,,,,,,,569,18,Woman,Right,2,26,0.4,1,180,-,0,0.033453000000008615,['y'],1.406802799999241,1.3980000000000001,1357.0072959999998,,,,,569,18,Woman,Right,
,,,,,,,,,,,,,,,,,569,18,Woman,Right,2,24,0.4,1,0,-,180,1.1964478999998391,['y'],0.8549996000001556,1.5939999999999999,1362.14059,,,,,569,18,Woman,Right,
,,,,,,,,,,,,,,,,,569,18,Woman,Right,2,36,0.4,1,0,-,0,0.29769649999980174,['n'],0.9665765999998257,1.68,1365.6572382000004,,,,,569,18,Woman,Right,
,,,,,,,,,,,,,,,,,569,18,Woman,Right,2,61,0.15,2,0,180,0,0.4773489999997764,['n'],1.8152766000002885,1.338,1370.3241189999999,,,,,569,18,Woman,Right,
,,,,,,,,,,,,,,,,,569,18,Woman,Right,2,22,0.4,1,180,-,0,0.0811956999996255,['y'],1.6389708000006067,1.704,1374.6738928000004,,,,,569,18,Woman,Right,
,,,,,,,,,,,,,,,,,569,18,Woman,Right,2,15,0.4,2,180,0,0,0.9987526000004436,['n'],2.3909724000004644,1.79,1380.7240221000002,,,,,569,18,Woman,Right,
,,,,,,,,,,,,,,,,,569,18,Woman,Right,2,40,0.4,1,0,-,0,0.24341110000023036,['n'],1.8068903999992472,1.854,1385.1238325999993,,,,,569,18,Woman,Right,
,,,,,,,,,,,,,,,,,569,18,Woman,Right,2,23,0.4,2,180,0,0,0.23419139999896288,['y'],1.1987980999983847,1.834,1388.7737540000007,,,,,569,18,Woman,Right,
,,,,,,,,,,,,,,,,,569,18,Woman,Right,2,0,1,1,0,-,0,0.17543290000139677,['n'],1.0471010000001115,2.0,1393.0237781999995,,,,,569,18,Woman,Right,
,,,,,,,,,,,,,,,,,569,18,Woman,Right,2,4,1,1,0,-,0,0.02250130000174977,['n'],1.0868687000001955,1.986,1397.0572199000007,,,,,569,18,Woman,Right,
,,,,,,,,,,,,,,,,,569,18,Woman,Right,2,11,0.4,2,180,0,180,0.06196249999993597,['y'],1.7671692000003532,1.3439999999999999,1401.8738616,,,,,569,18,Woman,Right,
,,,,,,,,,,,,,,,,,569,18,Woman,Right,2,51,0.15,2,180,0,0,0.6072320000002946,['y'],0.9343291000004683,1.91,1406.3402833999999,,,,,569,18,Woman,Right,
,,,,,,,,,,,,,,,,,569,18,Woman,Right,2,8,0.4,1,0,-,180,1.7375590000010561,['n'],1.0871342000009463,1.5979999999999999,1412.2735827000006,,,,,569,18,Woman,Right,
,,,,,,,,,,,,,,,,,569,18,Woman,Right,2,45,0.15,2,0,180,0,0.6931414999999106,['n'],1.3504956999986462,1.554,1417.1902722999994,,,,,569,18,Woman,Right,
,,,,,,,,,,,,,,,,,569,18,Woman,Right,2,9,0.4,2,0,180,180,0.6874791999998706,['y'],1.0309307999996236,1.3559999999999999,1421.3568709,,,,,569,18,Woman,Right,
,,,,,,,,,,,,,,,,,569,18,Woman,Right,2,66,0.15,1,180,-,0,0.5057188999999198,['n'],1.0147090000009484,1.746,1425.2735036999993,,,,,569,18,Woman,Right,
,,,,,,,,,,,,,,,,,569,18,Woman,Right,2,64,0.15,1,0,-,180,0.8135086000002048,['n'],0.7269342999989021,1.5779999999999998,1429.7901544000006,,,,,569,18,Woman,Right,
,,,,,,,,,,,,,,,,,569,18,Woman,Right,2,42,0.4,1,180,-,0,0.09026940000148898,['n'],1.9504845999999816,1.5819999999999999,1435.3569868999994,,,,,569,18,Woman,Right,
,,,,,,,,,,,,,,,,,569,18,Woman,Right,2,77,0.15,2,0,180,0,0.2998380000008183,['n'],0.9078988000001118,1.684,1441.4400156000002,,,,,569,18,Woman,Right,
,,,,,,,,,,,,,,,,,569,18,Woman,Right,2,60,0.15,1,0,-,0,0.5588090000001102,['n'],0.9993560000002617,1.53,1446.0069627000003,,,,,569,18,Woman,Right,
,,,,,,,,,,,,,,,,,569,18,Woman,Right,2,27,0.4,2,180,0,180,0.6940506999999343,['y'],1.2147160999993503,1.416,1451.256746,,,,,569,18,Woman,Right,
,,,,,,,,,,,,,,,,,569,18,Woman,Right,2,7,1,2,180,0,0,1.2627002999997785,['y'],1.4547297999997681,1.692,1456.3732166,,,,,569,18,Woman,Right,
,,,,,,,,,,,,,,,,,569,18,Woman,Right,2,76,0.15,1,0,-,0,0.8430017999999109,['n'],1.9189416999997775,1.6099999999999999,1462.6399102999994,,,,,569,18,Woman,Right,
,,,,,,,,,,,,,,,,,569,18,Woman,Right,2,53,0.15,2,0,180,0,1.7864435999999841,['y'],1.6628925000004529,1.1219999999999999,1471.1399475000007,,,,,569,18,Woman,Right,
,,,,,,,,,,,,,,,,,569,18,Woman,Right,2,38,0.4,1,180,-,180,0.6297684999990452,['n'],1.3908881999996083,1.79,1477.0731595999996,,,,,569,18,Woman,Right,
,,,,,,,,,,,,,,,,,569,18,Woman,Right,2,68,0.15,1,0,-,180,0.2069962999994459,['n'],1.3103061000001617,1.728,1481.0233161000006,,,,,569,18,Woman,Right,
,,,,,,,,,,,,,,,,,569,18,Woman,Right,2,43,0.4,2,180,0,180,0.19989449999957287,['n'],1.0069717999995191,1.728,1484.5897589999995,,,,,569,18,Woman,Right,
,,,,,,,,,,,,,,,,,569,18,Woman,Right,2,10,0.4,1,180,-,180,0.10991110000031767,['n'],0.7591515999993135,1.954,1488.4063336000008,,,,,569,18,Woman,Right,
,,,,,,,,,,,,,,,,,569,18,Woman,Right,2,56,0.15,1,0,-,180,0.42468389999885403,['n'],0.6790207000012742,1.9020000000000001,1491.8565031000007,,,,,569,18,Woman,Right,
,,,,,,,,,,,,,,,,,569,18,Woman,Right,2,65,0.15,2,0,180,0,2.6047135000007984,['n'],1.2870738000001438,1.85,1498.2732064000002,,,,,569,18,Woman,Right,
,,,,,,,,,,,,,,,,,569,18,Woman,Right,2,72,0.15,1,0,-,0,0.905296000000817,['n'],1.3109753999997338,1.85,1502.8396729999995,,,,,569,18,Woman,Right,
,,,,,,,,,,,,,,,,,569,18,Woman,Right,2,1,1,2,0,180,180,0.6680412000005163,['y'],0.8150790999989113,1.3599999999999999,1507.6066253,,,,,569,18,Woman,Right,
,,,,,,,,,,,,,,,,,569,18,Woman,Right,2,52,0.15,1,0,-,0,1.4726614999999583,['y'],0.2712807999996585,1.0,1512.8064719000004,,,,,569,18,Woman,Right,
,,,,,,,,,,,,,,,,,569,18,Woman,Right,2,28,0.4,1,0,-,0,0.9987660999995569,['n'],1.1987060999999812,1.798,1517.5077016999994,,,,,569,18,Woman,Right,
,,,,,,,,,,,,,,,,,569,18,Woman,Right,2,57,0.15,2,0,180,180,0.22927270000036515,['n'],1.29498969999986,1.798,1517.5077016999994,,,,,569,18,Woman,Right,
,,,,,,,,,,,,,,,,,569,18,Woman,Right,2,79,0.15,2,180,0,180,0.24811439999939466,['n'],1.1429934999996476,1.99,1525.5895818,,,,,569,18,Woman,Right,
,,,,,,,,,,,,,,,,,569,18,Woman,Right,2,3,1,2,180,0,0,0.6493344999998953,['y'],1.143285799998921,1.97,1530.1561195000004,,,,,569,18,Woman,Right,
,,,,,,,,,,,,,,,,,569,18,Woman,Right,2,37,0.4,2,0,180,180,0.5786392000009073,['n'],1.0153912999994645,1.7,1534.1564511999995,,,,,569,18,Woman,Right,
,,,,,,,,,,,,,,,,,569,18,Woman,Right,2,44,0.15,1,0,-,180,0.9970128000004479,['y'],0.5025177000006806,1.0,1538.5394165000007,,,,,569,18,Woman,Right,
,,,,,,,,,,,,,,,,,569,18,Woman,Right,2,17,0.4,2,0,180,180,0.7406607000011718,['y'],0.8547393000008014,1.616,1542.8395692999993,,,,,569,18,Woman,Right,
,,,,,,,,,,,,,,,,,569,18,Woman,Right,2,69,0.15,2,0,180,0,1.665311999999176,['y'],0.6625321999999869,1.236,1547.4893653000008,,,,,569,18,Woman,Right,
,,,,,,,,,,,,,,,,,569,18,Woman,Right,2,2,1,1,180,-,180,0.11561230000006617,['n'],0.9270606999998563,1.236,1550.956056,,,,,569,18,Woman,Right,
,,,,,,,,,,,,,,,,,569,18,Woman,Right,2,30,0.4,1,180,-,180,0.2931674999999814,['n'],1.0869937000006757,1.396,1554.6227790000003,,,,,569,18,Woman,Right,
,,,,,,,,,,,,,,,,,569,18,Woman,Right,2,25,0.4,2,0,180,0,0.1166905999998562,['y'],1.2271089999994729,1.396,1554.6227790000003,,,,,569,18,Woman,Right,
,,,,,,,,,,,,,,,,,569,18,Woman,Right,2,19,0.4,2,180,0,0,0.47842929999933403,['y'],0.9671629999993456,1.612,1561.9227953,,,,,569,18,Woman,Right,
,,,,,,,,,,,,,,,,,569,18,Woman,Right,2,31,0.4,2,180,0,180,0.126812800001062,['y'],1.1990167000003566,1.78,1566.0226221000003,,,,,569,18,Woman,Right,
,,,,,,,,,,,,,,,,,569,18,Woman,Right,2,49,0.15,2,0,180,0,0.4859094000003097,['y'],0.7265002999993158,1.0,1569.8230281999995,,,,,569,18,Woman,Right,
,,,,,,,,,,,,,,,,,569,18,Woman,Right,2,32,0.4,1,0,-,0,0.1829925000001822,['n'],0.9347340000003896,1.6520000000000001,1573.2226072999993,,,,,569,18,Woman,Right,
,,,,,,,,,,,,,,,,,569,18,Woman,Right,2,54,0.15,1,180,-,180,0.6973907999999938,['y'],1.3906743999996252,1.384,1577.9560064999996,,,,,569,18,Woman,Right,
,,,,,,,,,,,,,,,,,569,18,Woman,Right,2,39,0.4,2,180,0,0,0.6257122999995772,['n'],1.3909356999993179,1.616,1583.9390940999992,,,,,569,18,Woman,Right,
,,,,,,,,,,,,,,,,,569,18,Woman,Right,2,75,0.15,2,180,0,0,0.15965529999994033,['n'],1.1430177999991429,1.88,1589.5725037000002,,,,,569,18,Woman,Right,
,,,,,,,,,,,,,,,,,569,18,Woman,Right,2,6,1,1,180,-,180,0.04165540000030887,['n'],1.2870901000005688,1.3399999999999999,1593.7392654999994,,,,,569,18,Woman,Right,
,,,,,,,,,,,,,,,,,569,18,Woman,Right,2,29,0.4,2,0,180,0,2.4981087999985903,['n'],2.174523899999258,1.362,1601.1394551000003,,,,,569,18,Woman,Right,
,,,,,,,,,,,,,,,,,569,18,Woman,Right,2,46,0.15,1,180,-,180,0.13053609999951732,['n'],1.0149927999991633,1.766,1605.7723360999998,,,,,569,18,Woman,Right,
,,,,,,,,,,,,,,,,,569,18,Woman,Right,2,62,0.15,1,180,-,180,0.29909699999916484,['n'],1.030831499998385,1.768,1609.2725101000005,,,,,569,18,Woman,Right,
,,,,,,,,,,,,,,,,,569,18,Woman,Right,2,55,0.15,2,180,0,180,0.14386750000085158,['n'],1.4229845000008936,1.766,1613.155509700001,,,,,569,18,Woman,Right,
,,,,,,,,,,,,,,,,,569,18,Woman,Right,2,20,0.4,1,0,-,0,0.08314350000000559,['n'],0.8436375000001135,1.752,1616.3222725999995,,,,,569,18,Woman,Right,
,,,,,,,,,,,,,,,,,569,18,Woman,Right,2,34,0.4,1,180,-,0,0.4760383000011643,['y'],0.9431390999998257,1.752,1619.9888855,,,,,569,18,Woman,Right,
,,,,,,,,,,,,,,,,,569,18,Woman,Right,2,78,0.15,1,180,-,0,1.0173859000005905,['y'],0.6308779999999388,1.752,1619.9888855,,,,,569,18,Woman,Right,
,,,,,,,,,,,,,,,,,569,18,Woman,Right,2,71,0.15,2,180,0,180,0.46131249999962165,['n'],0.9270135999995546,1.334,1629.1556286000005,,,,,569,18,Woman,Right,
,,,,,,,,,,,,,,,,,569,18,Woman,Right,2,21,0.4,2,0,180,0,0.7885538000009547,['n'],1.6465557999999874,1.694,1634.1220576999995,,,,,569,18,Woman,Right,
,,,,,,,,,,,,,,,,,569,18,Woman,Right,2,67,0.15,2,180,0,180,0.9966422999987117,['n'],1.342947200000708,1.608,1639.0554067000003,,,,,569,18,Woman,Right,
,,,,,,,,,,,,,,,,,569,18,Woman,Right,3,9,0.4,2,0,180,180,0.48321229999965,['n'],0.902519499999471,1.694,1684.1384324,48.75,77.5,45.0,,569,18,Woman,Right,
,,,,,,,,,,,,,,,,,569,18,Woman,Right,3,61,0.15,2,0,180,180,0.2603199000004679,['n'],0.934905300000537,1.562,1688.3384182,,,,,569,18,Woman,Right,
,,,,,,,,,,,,,,,,,569,18,Woman,Right,3,47,0.15,2,180,0,0,0.0997322000002896,['y'],1.2222256999993988,1.836,1692.5218398000006,,,,,569,18,Woman,Right,
,,,,,,,,,,,,,,,,,569,18,Woman,Right,3,66,0.15,1,180,-,0,0.7641414999998233,['y'],1.5430814999999711,1.836,1692.5218398000006,,,,,569,18,Woman,Right,
,,,,,,,,,,,,,,,,,569,18,Woman,Right,3,10,0.4,1,180,-,180,0.08347310000135622,['n'],1.086643999999069,1.37,1700.9050508999999,,,,,569,18,Woman,Right,
,,,,,,,,,,,,,,,,,569,18,Woman,Right,3,36,0.4,1,0,-,0,2.470049499999732,['y'],0.5666684999996505,1.624,1706.4222918000005,,,,,569,18,Woman,Right,
,,,,,,,,,,,,,,,,,569,18,Woman,Right,3,48,0.15,1,0,-,180,0.42017520000081277,['y'],1.7746260999992955,1.5739999999999998,1711.0883019999992,,,,,569,18,Woman,Right,
,,,,,,,,,,,,,,,,,569,18,Woman,Right,3,7,1,2,180,0,0,0.4306477999998606,['y'],0.854674399999567,1.884,1715.8050871999994,,,,,569,18,Woman,Right,
,,,,,,,,,,,,,,,,,569,18,Woman,Right,3,37,0.4,2,0,180,180,0.44640269999945303,['y'],0.7752161999997043,2.0,1719.4549737000007,,,,,569,18,Woman,Right,
,,,,,,,,,,,,,,,,,569,18,Woman,Right,3,16,0.4,1,0,-,0,0.3859499999998661,['y'],0.7270564999998896,1.756,1723.0216126999994,,,,,569,18,Woman,Right,
,,,,,,,,,,,,,,,,,569,18,Woman,Right,3,50,0.15,1,180,-,0,0.41381799999908253,['y'],0.862973499999498,1.756,1726.8381975000002,,,,,569,18,Woman,Right,
,,,,,,,,,,,,,,,,,569,18,Woman,Right,3,65,0.15,2,0,180,180,0.6814119000009669,['n'],1.3108104999992065,1.342,1731.9048551000005,,,,,569,18,Woman,Right,
,,,,,,,,,,,,,,,,,569,18,Woman,Right,3,46,0.15,1,180,-,180,0.4158943000002182,['n'],0.7588992000000871,1.434,1735.8387857999996,,,,,569,18,Woman,Right,
,,,,,,,,,,,,,,,,,569,18,Woman,Right,3,35,0.4,2,180,0,0,0.4429126000013639,['n'],1.2786923999992723,1.67,1739.7547968999997,,,,,569,18,Woman,Right,
,,,,,,,,,,,,,,,,,569,18,Woman,Right,3,62,0.15,1,180,-,0,0.4922344000005978,['y'],1.0227837999991607,1.0,1744.6880520000004,,,,,569,18,Woman,Right,
,,,,,,,,,,,,,,,,,569,18,Woman,Right,3,5,1,2,0,180,180,0.5648519000005763,['y'],0.7266221999998379,2.0,1749.1548859999994,,,,,569,18,Woman,Right,
,,,,,,,,,,,,,,,,,569,18,Woman,Right,3,53,0.15,2,0,180,0,0.6325809000009031,['n'],0.7828080999988742,1.862,1753.0046319999992,,,,,569,18,Woman,Right,
,,,,,,,,,,,,,,,,,569,18,Woman,Right,3,21,0.4,2,0,180,180,1.3679520999994565,['y'],0.943287699999928,1.6099999999999999,1758.3213215999995,,,,,569,18,Woman,Right,
,,,,,,,,,,,,,,,,,569,18,Woman,Right,3,17,0.4,2,0,180,180,0.6360347000008915,['y'],0.7510617000007187,1.834,1762.754608100001,,,,,569,18,Woman,Right,
,,,,,,,,,,,,,,,,,569,18,Woman,Right,3,77,0.15,2,0,180,0,2.2369049999997515,['y'],0.31880030000138504,1.834,1762.754608100001,,,,,569,18,Woman,Right,
,,,,,,,,,,,,,,,,,569,18,Woman,Right,3,39,0.4,2,180,0,0,0.5251239999997779,['y'],0.90242649999891,1.65,1771.7212534,,,,,569,18,Woman,Right,
,,,,,,,,,,,,,,,,,569,18,Woman,Right,3,72,0.15,1,0,-,180,1.1100784000009298,['y'],0.18297030000030645,1.042,1776.2878833000004,,,,,569,18,Woman,Right,
,,,,,,,,,,,,,,,,,569,18,Woman,Right,3,34,0.4,1,180,-,180,0.10072390000095766,['y'],1.279071599999952,1.43,1780.5053787000006,,,,,569,18,Woman,Right,
,,,,,,,,,,,,,,,,,569,18,Woman,Right,3,43,0.4,2,180,0,0,0.4789526000004116,['y'],0.7030618000007962,1.63,1784.2710976000008,,,,,569,18,Woman,Right,
,,,,,,,,,,,,,,,,,569,18,Woman,Right,3,63,0.15,2,180,0,180,1.0003068999994866,['y'],0.21515480000016396,1.02,1788.1546141000008,,,,,569,18,Woman,Right,
,,,,,,,,,,,,,,,,,569,18,Woman,Right,3,70,0.15,1,180,-,180,0.623437099999137,['n'],1.0466439000010723,1.208,1791.9544885000005,,,,,569,18,Woman,Right,
,,,,,,,,,,,,,,,,,569,18,Woman,Right,3,33,0.4,2,0,180,180,0.6797505999984423,['y'],0.814843899999687,1.82,1796.1379428999999,,,,,569,18,Woman,Right,
,,,,,,,,,,,,,,,,,569,18,Woman,Right,3,38,0.4,1,180,-,180,0.26688629999989644,['n'],0.7752045999986876,1.71,1799.7044388999993,,,,,569,18,Woman,Right,
,,,,,,,,,,,,,,,,,569,18,Woman,Right,3,44,0.15,1,0,-,0,0.4615046999988408,['n'],0.7270502999999735,1.722,1803.0882867999999,,,,,569,18,Woman,Right,
,,,,,,,,,,,,,,,,,569,18,Woman,Right,3,0,1,1,0,-,0,0.31202330000087386,['n'],1.3349902000009024,1.94,1807.2052512,,,,,569,18,Woman,Right,
,,,,,,,,,,,,,,,,,569,18,Woman,Right,3,4,1,1,0,-,0,0.2545518000006268,['n'],1.4386419000002206,1.97,1811.4545496,,,,,569,18,Woman,Right,
,,,,,,,,,,,,,,,,,569,18,Woman,Right,3,51,0.15,2,180,0,180,7.287881899999775,['n'],1.8790318999999727,1.196,1823.2711726000007,,,,,569,18,Woman,Right,
,,,,,,,,,,,,,,,,,569,18,Woman,Right,3,78,0.15,1,180,-,0,0.09433780000108527,['n'],1.0066323000010016,1.3940000000000001,1827.0374297000008,,,,,569,18,Woman,Right,
,,,,,,,,,,,,,,,,,569,18,Woman,Right,3,42,0.4,1,180,-,180,0.16880029999992985,['n'],1.223172899999554,1.736,1830.987577500001,,,,,569,18,Woman,Right,
,,,,,,,,,,,,,,,,,569,18,Woman,Right,3,30,0.4,1,180,-,180,0.04152729999987059,['y'],1.5424839000006614,1.8599999999999999,1835.8374553999993,,,,,569,18,Woman,Right,
,,,,,,,,,,,,,,,,,569,18,Woman,Right,3,75,0.15,2,180,0,180,0.3420461999994586,['n'],1.3508705999993253,1.9,1839.8707619000006,,,,,569,18,Woman,Right,
,,,,,,,,,,,,,,,,,569,18,Woman,Right,3,3,1,2,180,0,180,0.2306296000006114,['y'],2.1350552000003518,1.5939999999999999,1845.1875014000007,,,,,569,18,Woman,Right,
,,,,,,,,,,,,,,,,,569,18,Woman,Right,3,8,0.4,1,0,-,0,0.1612029000007169,['n'],0.9428516999996646,1.812,1848.554222400001,,,,,569,18,Woman,Right,
,,,,,,,,,,,,,,,,,569,18,Woman,Right,3,2,1,1,180,-,180,0.016748600000937586,['n'],0.6056198999995104,1.984,1851.9043274999995,,,,,569,18,Woman,Right,
,,,,,,,,,,,,,,,,,569,18,Woman,Right,3,19,0.4,2,180,0,180,0.5975257000009151,['n'],0.6310518999998749,1.772,1855.5874959000002,,,,,569,18,Woman,Right,
,,,,,,,,,,,,,,,,,569,18,Woman,Right,3,68,0.15,1,0,-,0,0.05923919999986538,['y'],1.0870220999986486,1.8599999999999999,1858.9206798000005,,,,,569,18,Woman,Right,
,,,,,,,,,,,,,,,,,569,18,Woman,Right,3,14,0.4,1,180,-,180,2.4230753000010736,['y'],2.455066500000612,1.828,1866.3873193000009,,,,,569,18,Woman,Right,
,,,,,,,,,,,,,,,,,569,18,Woman,Right,3,15,0.4,2,180,0,0,0.2728203000006033,['y'],1.151059100000566,1.828,1866.3873193000009,,,,,569,18,Woman,Right,
,,,,,,,,,,,,,,,,,569,18,Woman,Right,3,13,0.4,2,0,180,180,0.2638214999988122,['n'],0.8546461000005365,1.298,1874.3041330999995,,,,,569,18,Woman,Right,
,,,,,,,,,,,,,,,,,569,18,Woman,Right,3,57,0.15,2,0,180,0,0.07683859999997367,['n'],1.2950734999994893,1.822,1878.9040044999992,,,,,569,18,Woman,Right,
,,,,,,,,,,,,,,,,,569,18,Woman,Right,3,27,0.4,2,180,0,180,0.15209390000018175,['y'],3.4628746999987925,1.822,1885.5704753,,,,,569,18,Woman,Right,
,,,,,,,,,,,,,,,,,569,18,Woman,Right,3,73,0.15,2,0,180,0,0.16297339999982796,['n'],1.5512140000009822,1.956,1889.7873700999999,,,,,569,18,Woman,Right,
,,,,,,,,,,,,,,,,,569,18,Woman,Right,3,25,0.4,2,0,180,0,0.02652200000011362,['n'],1.9027437999993708,1.984,1894.2203682000008,,,,,569,18,Woman,Right,
,,,,,,,,,,,,,,,,,569,18,Woman,Right,3,31,0.4,2,180,0,180,0.016728999999031657,['n'],1.0651206000002276,1.626,1898.3372725,,,,,569,18,Woman,Right,
,,,,,,,,,,,,,,,,,569,18,Woman,Right,3,24,0.4,1,0,-,0,0.017161800000394578,['y'],1.055783400001019,1.808,1901.770428500001,,,,,569,18,Woman,Right,
,,,,,,,,,,,,,,,,,569,18,Woman,Right,3,55,0.15,2,180,0,180,0.0187513000000763,['y'],0.9344864000013331,1.728,1905.0037349999993,,,,,569,18,Woman,Right,
,,,,,,,,,,,,,,,,,569,18,Woman,Right,3,45,0.15,2,0,180,180,0.5183209999995597,['n'],0.9108372999999119,1.3900000000000001,1909.8703581,,,,,569,18,Woman,Right,
,,,,,,,,,,,,,,,,,569,18,Woman,Right,3,67,0.15,2,180,0,0,0.08742130000064208,['n'],1.1508850999998685,1.3900000000000001,1909.8703581,,,,,569,18,Woman,Right,
,,,,,,,,,,,,,,,,,569,18,Woman,Right,3,20,0.4,1,0,-,0,0.25003280000055383,['n'],1.1948241999998572,1.91,1917.3873973,,,,,569,18,Woman,Right,
,,,,,,,,,,,,,,,,,569,18,Woman,Right,3,26,0.4,1,180,-,180,0.2512692000000243,['n'],0.7431510000005801,1.862,1920.6535546000005,,,,,569,18,Woman,Right,
,,,,,,,,,,,,,,,,,569,18,Woman,Right,3,56,0.15,1,0,-,0,0.1770276000006561,['y'],1.2231281000003946,1.3519999999999999,1924.6535157999997,,,,,569,18,Woman,Right,
,,,,,,,,,,,,,,,,,569,18,Woman,Right,3,6,1,1,180,-,180,0.07421100000101433,['n'],1.6142847999999503,1.956,1928.6870503,,,,,569,18,Woman,Right,
,,,,,,,,,,,,,,,,,569,18,Woman,Right,3,28,0.4,1,0,-,0,1.417760599999383,['n'],1.2866776999999274,1.624,1933.9368408,,,,,569,18,Woman,Right,
,,,,,,,,,,,,,,,,,569,18,Woman,Right,3,64,0.15,1,0,-,0,0.9426034000007348,['n'],1.054684400000042,1.5739999999999998,1938.5879341999998,,,,,569,18,Woman,Right,
,,,,,,,,,,,,,,,,,569,18,Woman,Right,3,40,0.4,1,0,-,180,0.4466370999998617,['y'],2.702598500000022,1.37,1944.6200994,,,,,569,18,Woman,Right,
,,,,,,,,,,,,,,,,,569,18,Woman,Right,3,52,0.15,1,0,-,0,0.46975539999948523,['n'],1.1590116000006674,1.57,1949.1033961999992,,,,,569,18,Woman,Right,
,,,,,,,,,,,,,,,,,569,18,Woman,Right,3,41,0.4,2,0,180,0,0.016540299999178387,['n'],1.5079361999996763,2.0,1953.7201622000002,,,,,569,18,Woman,Right,
,,,,,,,,,,,,,,,,,569,18,Woman,Right,3,12,0.4,1,0,-,0,0.109809800000221,['y'],1.2388878000001569,2.0,1957.2200217,,,,,569,18,Woman,Right,
,,,,,,,,,,,,,,,,,569,18,Woman,Right,3,23,0.4,2,180,0,0,1.9057534000003216,['y'],0.1743707000005088,1.6600000000000001,1962.0866481999992,,,,,569,18,Woman,Right,
,,,,,,,,,,,,,,,,,569,18,Woman,Right,3,1,1,2,0,180,180,0.33932419999837293,['y'],3.1669455999999627,1.988,1969.0034454000006,,,,,569,18,Woman,Right,
,,,,,,,,,,,,,,,,,569,18,Woman,Right,3,79,0.15,2,180,0,0,1.0199085999993258,['y'],1.0873649000004662,1.8,1973.6365773999996,,,,,569,18,Woman,Right,
,,,,,,,,,,,,,,,,,569,18,Woman,Right,3,60,0.15,1,0,-,180,0.7000671000005241,['n'],1.434933500000625,1.258,1978.7365631000002,,,,,569,18,Woman,Right,
,,,,,,,,,,,,,,,,,569,18,Woman,Right,3,71,0.15,2,180,0,0,0.2067444999993313,['y'],4.198722999999518,1.6139999999999999,1985.8031535,,,,,569,18,Woman,Right,
,,,,,,,,,,,,,,,,,569,18,Woman,Right,3,59,0.15,2,180,0,0,0.3327148999997007,['n'],1.982932000000801,1.6139999999999999,1985.8031535,,,,,569,18,Woman,Right,
,,,,,,,,,,,,,,,,,569,18,Woman,Right,3,76,0.15,1,0,-,0,0.058642299998609815,['y'],1.1993660000007367,1.93,1994.2030810999995,,,,,569,18,Woman,Right,
,,,,,,,,,,,,,,,,,569,18,Woman,Right,3,32,0.4,1,0,-,0,0.3249833999998373,['y'],1.0309691000002204,1.806,1998.3531735999995,,,,,569,18,Woman,Right,
,,,,,,,,,,,,,,,,,569,18,Woman,Right,3,74,0.15,1,180,-,180,1.1343769000013708,['y'],1.3908016999994288,1.604,2004.4198492000005,,,,,569,18,Woman,Right,
,,,,,,,,,,,,,,,,,569,18,Woman,Right,3,29,0.4,2,0,180,0,0.13193239999964135,['n'],1.166951399998652,1.604,2008.2362918000008,,,,,569,18,Woman,Right,
,,,,,,,,,,,,,,,,,569,18,Woman,Right,3,18,0.4,1,180,-,180,0.4178942999988067,['n'],2.846693999999843,1.142,2014.0030447,,,,,569,18,Woman,Right,
,,,,,,,,,,,,,,,,,569,18,Woman,Right,3,49,0.15,2,0,180,0,0.14512920000015583,['y'],1.247160699998858,1.826,2018.4031569000008,,,,,569,18,Woman,Right,
,,,,,,,,,,,,,,,,,569,18,Woman,Right,3,54,0.15,1,180,-,0,0.962104600001112,['y'],1.1912162999997236,1.93,2023.1030677000008,,,,,569,18,Woman,Right,
,,,,,,,,,,,,,,,,,569,18,Woman,Right,3,69,0.15,2,0,180,0,1.5310070000014093,['y'],1.5508208999999624,1.33,2031.7528677,,,,,569,18,Woman,Right,
,,,,,,,,,,,,,,,,,569,18,Woman,Right,3,11,0.4,2,180,0,180,2.426026200000706,['n'],0.8149757999999565,1.804,2039.9027988000007,,,,,569,18,Woman,Right,
,,,,,,,,,,,,,,,,,569,18,Woman,Right,3,22,0.4,1,180,-,180,0.31168280000019877,['n'],1.7823674000010215,1.556,2046.1694206000002,,,,,569,18,Woman,Right,
,,,,,,,,,,,,,,,,,569,18,Woman,Right,3,58,0.15,1,180,-,0,0.4107622999999876,['n'],1.1265247000010277,1.81,2051.9362570000003,,,,,569,18,Woman,Right,
,,,,,,,,,,,,,,,,,569,18,Woman,Right,4,20,0.4,1,0,-,0,0.4324059999999008,['y'],1.5830002000002423,1.97,2088.5191454999995,65.0,52.5,52.5,,569,18,Woman,Right,
,,,,,,,,,,,,,,,,,569,18,Woman,Right,4,42,0.4,1,180,-,180,0.3017326999997749,['y'],1.1747591000003013,1.976,2092.352447,,,,,569,18,Woman,Right,
,,,,,,,,,,,,,,,,,569,18,Woman,Right,4,32,0.4,1,0,-,0,0.016176000000996282,['y'],0.6902067000009993,1.87,2095.4190917999995,,,,,569,18,Woman,Right,
,,,,,,,,,,,,,,,,,569,18,Woman,Right,4,10,0.4,1,180,-,180,0.017049199999746634,['n'],0.8447077999990142,1.842,2098.6523253000005,,,,,569,18,Woman,Right,
,,,,,,,,,,,,,,,,,569,18,Woman,Right,4,70,0.15,1,180,-,180,0.04047259999970265,['y'],0.9353103000012197,1.846,2101.802612300001,,,,,569,18,Woman,Right,
,,,,,,,,,,,,,,,,,569,18,Woman,Right,4,1,1,2,0,180,180,0.8019222999992053,['y'],1.151164200000494,1.846,2106.019047500001,,,,,569,18,Woman,Right,
,,,,,,,,,,,,,,,,,569,18,Woman,Right,4,52,0.15,1,0,-,0,2.074005500000567,['y'],0.1908504000002722,1.846,2106.019047500001,,,,,569,18,Woman,Right,
,,,,,,,,,,,,,,,,,569,18,Woman,Right,4,16,0.4,1,0,-,0,0.21155299999918498,['n'],1.4387434999989637,1.684,2114.9191665000008,,,,,569,18,Woman,Right,
,,,,,,,,,,,,,,,,,569,18,Woman,Right,4,44,0.15,1,0,-,180,1.3132656999987375,['n'],4.374509900000703,1.4020000000000001,2123.7025332000003,,,,,569,18,Woman,Right,
,,,,,,,,,,,,,,,,,569,18,Woman,Right,4,24,0.4,1,0,-,0,0.16677549999985786,['n'],2.8690511000004335,2.0,2129.752543400001,,,,,569,18,Woman,Right,
,,,,,,,,,,,,,,,,,569,18,Woman,Right,4,74,0.15,1,180,-,0,0.024943199998233467,['n'],1.238606400000208,1.978,2133.3697684999997,,,,,569,18,Woman,Right,
,,,,,,,,,,,,,,,,,569,18,Woman,Right,4,75,0.15,2,180,0,180,0.07817210000030173,['n'],1.6629351999999926,1.77,2137.302166799999,,,,,569,18,Woman,Right,
,,,,,,,,,,,,,,,,,569,18,Woman,Right,4,77,0.15,2,0,180,180,1.080821699999433,['n'],1.1749361000001954,1.75,2141.768858799999,,,,,569,18,Woman,Right,
,,,,,,,,,,,,,,,,,569,18,Woman,Right,4,33,0.4,2,0,180,0,0.1968403999999282,['n'],1.4789863000005425,1.75,2145.6856450999994,,,,,569,18,Woman,Right,
,,,,,,,,,,,,,,,,,569,18,Woman,Right,4,13,0.4,2,0,180,180,0.01699439999902097,['y'],0.9751293000008445,1.558,2149.2855009000004,,,,,569,18,Woman,Right,
,,,,,,,,,,,,,,,,,569,18,Woman,Right,4,65,0.15,2,0,180,0,0.07236899999952584,['y'],1.5509316999996372,1.604,2153.635497100001,,,,,569,18,Woman,Right,
,,,,,,,,,,,,,,,,,569,18,Woman,Right,4,76,0.15,1,0,-,0,0.049891000000570784,['n'],1.0733173999997234,1.604,2156.9354493,,,,,569,18,Woman,Right,
,,,,,,,,,,,,,,,,,569,18,Woman,Right,4,27,0.4,2,180,0,0,5.8467319999999745,['n'],2.0786257999989175,1.604,2167.5352976999993,,,,,569,18,Woman,Right,
,,,,,,,,,,,,,,,,,569,18,Woman,Right,4,51,0.15,2,180,0,0,9.524128300001394,['n'],2.2232911999999487,1.78,2181.9351297999992,,,,,569,18,Woman,Right,
,,,,,,,,,,,,,,,,,569,18,Woman,Right,4,41,0.4,2,0,180,0,1.7512528000006569,['n'],0.5429881000000023,1.78,2186.9018177999997,,,,,569,18,Woman,Right,
,,,,,,,,,,,,,,,,,569,18,Woman,Right,4,9,0.4,2,0,180,180,0.5456530999999814,['y'],0.7672262000014598,1.78,2186.9018177999997,,,,,569,18,Woman,Right,
,,,,,,,,,,,,,,,,,569,18,Woman,Right,4,49,0.15,2,0,180,0,0.14368040000044857,['y'],1.2477453000010428,1.566,2196.0686629,,,,,569,18,Woman,Right,
,,,,,,,,,,,,,,,,,569,18,Woman,Right,4,67,0.15,2,180,0,180,0.6017284999998083,['y'],1.0069812000001548,1.566,2201.0352207000005,,,,,569,18,Woman,Right,
,,,,,,,,,,,,,,,,,569,18,Woman,Right,4,61,0.15,2,0,180,0,0.35923299999922165,['y'],2.9988226000004943,1.3940000000000001,2207.6683445999997,,,,,569,18,Woman,Right,
,,,,,,,,,,,,,,,,,569,18,Woman,Right,4,79,0.15,2,180,0,0,1.0669116000008216,['y'],0.6545428999997966,1.178,2211.8850419,,,,,569,18,Woman,Right,
,,,,,,,,,,,,,,,,,569,18,Woman,Right,4,63,0.15,2,180,0,0,0.32176699999945413,['n'],1.6543731000001571,1.3820000000000001,2216.3016486000006,,,,,569,18,Woman,Right,
,,,,,,,,,,,,,,,,,569,18,Woman,Right,4,39,0.4,2,180,0,0,0.04989759999989474,['n'],1.0069151999996393,1.392,2219.8849722999994,,,,,569,18,Woman,Right,
,,,,,,,,,,,,,,,,,569,18,Woman,Right,4,69,0.15,2,0,180,0,0.0171660999985761,['n'],0.9130513000000064,1.4060000000000001,2222.8349356999997,,,,,569,18,Woman,Right,
,,,,,,,,,,,,,,,,,569,18,Woman,Right,4,58,0.15,1,180,-,180,0.7055168999995658,['y'],1.9427331000006234,1.354,2228.301521800001,,,,,569,18,Woman,Right,
,,,,,,,,,,,,,,,,,569,18,Woman,Right,4,30,0.4,1,180,-,0,0.8985183999993751,['y'],0.3429489999998623,1.0,2232.0681515999995,,,,,569,18,Woman,Right,
,,,,,,,,,,,,,,,,,569,18,Woman,Right,4,23,0.4,2,180,0,180,0.07653369999934512,['y'],1.102560999999696,1.874,2235.5181623,,,,,569,18,Woman,Right,
,,,,,,,,,,,,,,,,,569,18,Woman,Right,4,46,0.15,1,180,-,0,1.0405828000002657,['y'],2.519056699999055,1.874,2235.5181623,,,,,569,18,Woman,Right,
,,,,,,,,,,,,,,,,,569,18,Woman,Right,4,7,1,2,180,0,0,0.7097158999986277,['y'],0.8546706000015547,1.91,2245.9015358999995,,,,,569,18,Woman,Right,
,,,,,,,,,,,,,,,,,569,18,Woman,Right,4,36,0.4,1,0,-,0,0.16021819999878062,['n'],1.2390412999993714,1.8599999999999999,2249.4847973999995,,,,,569,18,Woman,Right,
,,,,,,,,,,,,,,,,,569,18,Woman,Right,4,62,0.15,1,180,-,180,0.1847975000000588,['y'],1.1669700000002194,1.8599999999999999,2249.4847973999995,,,,,569,18,Woman,Right,
,,,,,,,,,,,,,,,,,569,18,Woman,Right,4,56,0.15,1,0,-,0,0.17893089999961376,['n'],1.0869741000005888,1.84,2256.8013481999997,,,,,569,18,Woman,Right,
,,,,,,,,,,,,,,,,,569,18,Woman,Right,4,3,1,2,180,0,180,0.01688039999862667,['y'],1.4292528000005404,1.244,2260.9856652999997,,,,,569,18,Woman,Right,
,,,,,,,,,,,,,,,,,569,18,Woman,Right,4,72,0.15,1,0,-,180,2.6148635999998078,['y'],0.13415529999838327,1.73,2266.5183057999993,,,,,569,18,Woman,Right,
,,,,,,,,,,,,,,,,,569,18,Woman,Right,4,78,0.15,1,180,-,180,0.4644325999997818,['y'],0.7667448000011063,1.786,2270.518159100001,,,,,569,18,Woman,Right,
,,,,,,,,,,,,,,,,,569,18,Woman,Right,4,0,1,1,0,-,0,0.11515930000132357,['n'],0.7188695000004373,1.786,2270.518159100001,,,,,569,18,Woman,Right,
,,,,,,,,,,,,,,,,,569,18,Woman,Right,4,68,0.15,1,0,-,180,0.33341610000024957,['n'],0.683887400000458,1.726,2276.7513117000008,,,,,569,18,Woman,Right,
,,,,,,,,,,,,,,,,,569,18,Woman,Right,4,28,0.4,1,0,-,0,0.2966130999993766,['n'],0.7425930999997945,2.0,2279.9181584000007,,,,,569,18,Woman,Right,
,,,,,,,,,,,,,,,,,569,18,Woman,Right,4,11,0.4,2,180,0,0,2.1684650000006513,['y'],0.27069229999870004,1.638,2285.0514692000006,,,,,569,18,Woman,Right,
,,,,,,,,,,,,,,,,,569,18,Woman,Right,4,8,0.4,1,0,-,180,0.6277919000003749,['n'],1.078313199999684,1.7,2288.9011543000006,,,,,569,18,Woman,Right,
,,,,,,,,,,,,,,,,,569,18,Woman,Right,4,64,0.15,1,0,-,0,0.06499520000033954,['n'],0.9273152999994636,1.7,2292.0513660999995,,,,,569,18,Woman,Right,
,,,,,,,,,,,,,,,,,569,18,Woman,Right,4,6,1,1,180,-,180,1.1569301999988966,['n'],1.7109459999992396,1.6019999999999999,2297.501042500001,,,,,569,18,Woman,Right,
,,,,,,,,,,,,,,,,,569,18,Woman,Right,4,15,0.4,2,180,0,0,0.8513986999987537,['y'],0.3589761000002909,1.1179999999999999,2301.1177732000006,,,,,569,18,Woman,Right,
,,,,,,,,,,,,,,,,,569,18,Woman,Right,4,18,0.4,1,180,-,180,0.6900721000001795,['n'],0.7267375999999786,1.3900000000000001,2304.917731300001,,,,,569,18,Woman,Right,
,,,,,,,,,,,,,,,,,569,18,Woman,Right,4,40,0.4,1,0,-,180,0.750466100000267,['n'],1.1537542000005487,1.404,2308.9012622,,,,,569,18,Woman,Right,
,,,,,,,,,,,,,,,,,569,18,Woman,Right,4,5,1,2,0,180,0,0.04986490000010235,['y'],2.10291959999995,1.624,2313.9847722000004,,,,,569,18,Woman,Right,
,,,,,,,,,,,,,,,,,569,18,Woman,Right,4,4,1,1,0,-,0,0.2129875999999058,['n'],1.1106076999985817,1.842,2317.6013235,,,,,569,18,Woman,Right,
,,,,,,,,,,,,,,,,,569,18,Woman,Right,4,21,0.4,2,0,180,180,0.6064416999997775,['y'],0.6147844999995868,1.842,2317.6013235,,,,,569,18,Woman,Right,
,,,,,,,,,,,,,,,,,569,18,Woman,Right,4,19,0.4,2,180,0,0,0.1290253000006487,['n'],0.8547724999989441,1.822,2324.9175779999996,,,,,569,18,Woman,Right,
,,,,,,,,,,,,,,,,,569,18,Woman,Right,4,71,0.15,2,180,0,180,2.5049908999990294,['y'],0.5345138000011502,1.5899999999999999,2331.5344789,,,,,569,18,Woman,Right,
,,,,,,,,,,,,,,,,,569,18,Woman,Right,4,55,0.15,2,180,0,0,0.19215230000008887,['n'],0.7906041999995068,1.1219999999999999,2334.8842507,,,,,569,18,Woman,Right,
,,,,,,,,,,,,,,,,,569,18,Woman,Right,4,73,0.15,2,0,180,0,0.32893479999984265,['y'],1.6468148000003566,1.134,2339.1174450999997,,,,,569,18,Woman,Right,
,,,,,,,,,,,,,,,,,569,18,Woman,Right,4,43,0.4,2,180,0,180,1.478515000000698,['n'],0.9190303000013955,1.134,2343.7350524999993,,,,,569,18,Woman,Right,
,,,,,,,,,,,,,,,,,569,18,Woman,Right,4,29,0.4,2,0,180,180,0.4540380999987974,['y'],0.838877300000604,1.674,2347.6515403000003,,,,,569,18,Woman,Right,
,,,,,,,,,,,,,,,,,569,18,Woman,Right,4,12,0.4,1,0,-,0,0.830387800000608,['n'],0.9105586000005133,1.666,2352.6007834,,,,,569,18,Woman,Right,
,,,,,,,,,,,,,,,,,569,18,Woman,Right,4,53,0.15,2,0,180,0,0.2875002000000677,['n'],0.6466405000010127,1.94,2356.051053800001,,,,,569,18,Woman,Right,
,,,,,,,,,,,,,,,,,569,18,Woman,Right,4,17,0.4,2,0,180,180,0.7010340000015276,['y'],0.8227725000015198,1.0,2360.483967700001,,,,,569,18,Woman,Right,
,,,,,,,,,,,,,,,,,569,18,Woman,Right,4,59,0.15,2,180,0,0,0.25044549999984156,['y'],1.0626324000004388,1.092,2363.8676824000004,,,,,569,18,Woman,Right,
,,,,,,,,,,,,,,,,,569,18,Woman,Right,4,60,0.15,1,0,-,0,0.1588062999999238,['n'],0.6548517000010179,1.092,2363.8676824000004,,,,,569,18,Woman,Right,
,,,,,,,,,,,,,,,,,569,18,Woman,Right,4,66,0.15,1,180,-,180,0.7921824000004563,['y'],1.2868510999996943,1.87,2372.6175957000005,,,,,569,18,Woman,Right,
,,,,,,,,,,,,,,,,,569,18,Woman,Right,4,48,0.15,1,0,-,0,0.7422920000008162,['y'],1.1508447999985947,1.874,2376.5006127000006,,,,,569,18,Woman,Right,
,,,,,,,,,,,,,,,,,569,18,Woman,Right,4,50,0.15,1,180,-,180,0.682804700001725,['y'],0.7350396999991062,1.0,2380.8506614999997,,,,,569,18,Woman,Right,
,,,,,,,,,,,,,,,,,569,18,Woman,Right,4,14,0.4,1,180,-,180,0.534267600000021,['y'],0.6629071000006661,1.1139999999999999,2384.1014535000004,,,,,569,18,Woman,Right,
,,,,,,,,,,,,,,,,,569,18,Woman,Right,4,57,0.15,2,0,180,0,0.42220889999953215,['n'],1.0792067000002135,1.688,2388.250511700001,,,,,569,18,Woman,Right,
,,,,,,,,,,,,,,,,,569,18,Woman,Right,4,54,0.15,1,180,-,0,0.13499119999869436,['y'],1.654632899999342,1.562,2392.5838515000005,,,,,569,18,Woman,Right,
,,,,,,,,,,,,,,,,,569,18,Woman,Right,4,37,0.4,2,0,180,0,0.05489870000019437,['n'],1.0555460000014136,1.826,2396.1171743999994,,,,,569,18,Woman,Right,
,,,,,,,,,,,,,,,,,569,18,Woman,Right,4,31,0.4,2,180,0,180,0.13652560000082303,['y'],1.447032099998978,1.5939999999999999,2400.2503774999996,,,,,569,18,Woman,Right,
,,,,,,,,,,,,,,,,,569,18,Woman,Right,4,2,1,1,180,-,0,0.7816459000005125,['y'],1.4548771000008855,1.946,2404.6839814000004,,,,,569,18,Woman,Right,
,,,,,,,,,,,,,,,,,569,18,Woman,Right,4,22,0.4,1,180,-,180,2.2806890000010753,['y'],0.23098829999980808,1.772,2410.217246200001,,,,,569,18,Woman,Right,
,,,,,,,,,,,,,,,,,569,18,Woman,Right,4,45,0.15,2,0,180,0,0.3175295000000915,['y'],1.038843899999847,1.626,2414.2004248000003,,,,,569,18,Woman,Right,
,,,,,,,,,,,,,,,,,569,18,Woman,Right,4,38,0.4,1,180,-,180,0.29599749999943015,['y'],1.1509306999996625,1.666,2418.4835677,,,,,569,18,Woman,Right,
,,,,,,,,,,,,,,,,,569,18,Woman,Right,4,35,0.4,2,180,0,180,0.07052909999947587,['y'],0.7749427999988256,1.68,2421.866947900001,,,,,569,18,Woman,Right,
,,,,,,,,,,,,,,,,,569,18,Woman,Right,4,34,0.4,1,180,-,180,2.136588800000027,['n'],1.3908171999992192,1.794,2427.9002794,,,,,569,18,Woman,Right,
,,,,,,,,,,,,,,,,,569,18,Woman,Right,4,26,0.4,1,180,-,180,0.5157662999990862,['y'],1.0783527000003232,1.01,2433.0168986,,,,,569,18,Woman,Right,
,,,,,,,,,,,,,,,,,569,18,Woman,Right,4,25,0.4,2,0,180,180,0.593007999999827,['y'],0.9909704000001511,1.01,2438.7501676,,,,,569,18,Woman,Right,
,,,,,,,,,,,,,,,,,569,18,Woman,Right,4,47,0.15,2,180,0,0,0.6299194999992324,['y'],1.3108644999992975,1.01,2438.7501676,,,,,569,18,Woman,Right,
,,,,,,,,,,,,,,,,,569,18,Woman,Right,5,66,0.15,1,180,-,180,0.9437649000010424,['y'],2.1585966999991797,1.6560000000000001,2451.7834605,62.5,50.0,62.5,,569,18,Woman,Right,
,,,,,,,,,,,,,,,,,569,18,Woman,Right,5,16,0.4,1,0,-,0,0.14273050000156218,['n'],1.1348627999996097,1.84,2455.4836208000006,,,,,569,18,Woman,Right,
,,,,,,,,,,,,,,,,,569,18,Woman,Right,5,39,0.4,2,180,0,180,0.11736279999968247,['y'],1.2312517999998818,1.84,2455.4836208000006,,,,,569,18,Woman,Right,
,,,,,,,,,,,,,,,,,569,18,Woman,Right,5,2,1,1,180,-,180,0.43329699999958393,['n'],0.6222846999989997,1.932,2462.8000856999997,,,,,569,18,Woman,Right,
,,,,,,,,,,,,,,,,,569,18,Woman,Right,5,68,0.15,1,0,-,0,0.04771979999895848,['n'],1.086747600000308,1.944,2466.9334365000004,,,,,569,18,Woman,Right,
,,,,,,,,,,,,,,,,,569,18,Woman,Right,5,46,0.15,1,180,-,180,2.5608393999991677,['n'],2.454823399999441,1.568,2474.6167742000007,,,,,569,18,Woman,Right,
,,,,,,,,,,,,,,,,,569,18,Woman,Right,5,44,0.15,1,0,-,180,0.8383252999992692,['y'],0.7666748000010557,1.014,2479.1332591,,,,,569,18,Woman,Right,
,,,,,,,,,,,,,,,,,569,18,Woman,Right,5,18,0.4,1,180,-,0,0.4813713999992615,['n'],1.0788548000000446,1.1480000000000001,2483.4332459000007,,,,,569,18,Woman,Right,
,,,,,,,,,,,,,,,,,569,18,Woman,Right,5,79,0.15,2,180,0,0,1.1556352000006882,['n'],2.335166199998639,1.074,2489.3998717999993,,,,,569,18,Woman,Right,
,,,,,,,,,,,,,,,,,569,18,Woman,Right,5,40,0.4,1,0,-,0,0.26421470000059344,['y'],1.1989258000012342,1.588,2493.5340996999994,,,,,569,18,Woman,Right,
,,,,,,,,,,,,,,,,,569,18,Woman,Right,5,43,0.4,2,180,0,180,0.016509200000655255,['n'],0.9219195000005129,1.464,2497.483135900001,,,,,569,18,Woman,Right,
,,,,,,,,,,,,,,,,,569,18,Woman,Right,5,12,0.4,1,0,-,0,0.5315431999988505,['y'],1.3907727999994677,1.556,2502.683122900001,,,,,569,18,Woman,Right,
,,,,,,,,,,,,,,,,,569,18,Woman,Right,5,25,0.4,2,0,180,0,11.16698919999908,['n'],1.018143000001146,1.112,2519.0662989,,,,,569,18,Woman,Right,
,,,,,,,,,,,,,,,,,569,18,Woman,Right,5,77,0.15,2,0,180,180,2.6001023999997415,['y'],0.1425849000006565,1.56,2526.1496208,,,,,569,18,Woman,Right,
,,,,,,,,,,,,,,,,,569,18,Woman,Right,5,31,0.4,2,180,0,0,1.2420899000007921,['y'],0.6950085000007675,1.5979999999999999,2530.2164609,,,,,569,18,Woman,Right,
,,,,,,,,,,,,,,,,,569,18,Woman,Right,5,41,0.4,2,0,180,0,0.05111559999932069,['n'],1.5433114999996178,1.5979999999999999,2533.9996005000003,,,,,569,18,Woman,Right,
,,,,,,,,,,,,,,,,,569,18,Woman,Right,5,50,0.15,1,180,-,180,0.19917100000020582,['n'],0.5991297999989911,1.8860000000000001,2537.233235500001,,,,,569,18,Woman,Right,
,,,,,,,,,,,,,,,,,569,18,Woman,Right,5,30,0.4,1,180,-,180,0.1993648999996367,['n'],0.7270310000003519,1.8860000000000001,2540.2665640999994,,,,,569,18,Woman,Right,
,,,,,,,,,,,,,,,,,569,18,Woman,Right,5,8,0.4,1,0,-,180,0.2997739999991609,['n'],0.7988638999995601,1.8860000000000001,2543.4664421000007,,,,,569,18,Woman,Right,
,,,,,,,,,,,,,,,,,569,18,Woman,Right,5,17,0.4,2,0,180,0,0.05912280000120518,['y'],1.5111919000009948,1.8860000000000001,2547.2831553999995,,,,,569,18,Woman,Right,
,,,,,,,,,,,,,,,,,569,18,Woman,Right,5,11,0.4,2,180,0,180,2.3832712000003085,['n'],0.20998270000018238,1.8860000000000001,2547.2831553999995,,,,,569,18,Woman,Right,
,,,,,,,,,,,,,,,,,569,18,Woman,Right,5,73,0.15,2,0,180,0,0.02960949999942386,['n'],1.3989232999992964,1.5899999999999999,2556.2161697,,,,,569,18,Woman,Right,
,,,,,,,,,,,,,,,,,569,18,Woman,Right,5,20,0.4,1,0,-,0,0.5265835000009247,['n'],1.7110042000003887,1.438,2561.0160652000004,,,,,569,18,Woman,Right,
,,,,,,,,,,,,,,,,,569,18,Woman,Right,5,26,0.4,1,180,-,0,0.3104420999989088,['n'],1.5268021000010776,1.438,2561.0160652000004,,,,,569,18,Woman,Right,
,,,,,,,,,,,,,,,,,569,18,Woman,Right,5,13,0.4,2,0,180,0,0.19154840000010154,['n'],1.0787810999991052,1.376,2569.6828594999997,,,,,569,18,Woman,Right,
,,,,,,,,,,,,,,,,,569,18,Woman,Right,5,75,0.15,2,180,0,0,0.3139675000002171,['n'],1.1902350000000297,2.0,2574.0162680999993,,,,,569,18,Woman,Right,
,,,,,,,,,,,,,,,,,569,18,Woman,Right,5,28,0.4,1,0,-,180,2.735520300000644,['n'],0.8231184000014764,1.434,2581.0326003,,,,,569,18,Woman,Right,
,,,,,,,,,,,,,,,,,569,18,Woman,Right,5,60,0.15,1,0,-,0,0.25341780000053404,['n'],0.934903100000156,2.0,2584.8993354000004,,,,,569,18,Woman,Right,
,,,,,,,,,,,,,,,,,569,18,Woman,Right,5,32,0.4,1,0,-,180,0.49149540000144043,['n'],2.7272063000000344,1.116,2590.8327106999996,,,,,569,18,Woman,Right,
,,,,,,,,,,,,,,,,,569,18,Woman,Right,5,64,0.15,1,0,-,180,0.8419689000002109,['y'],0.5828891999990446,1.016,2595.0825201,,,,,569,18,Woman,Right,
,,,,,,,,,,,,,,,,,569,18,Woman,Right,5,21,0.4,2,0,180,180,0.4037616999994498,['y'],0.8227430000006279,1.028,2598.5492143,,,,,569,18,Woman,Right,
,,,,,,,,,,,,,,,,,569,18,Woman,Right,5,14,0.4,1,180,-,0,0.06292479999865463,['y'],2.190763299999162,1.028,2598.5492143,,,,,569,18,Woman,Right,
,,,,,,,,,,,,,,,,,569,18,Woman,Right,5,45,0.15,2,0,180,0,0.49943879999955243,['y'],2.094141800000216,1.654,2608.4324652999994,,,,,569,18,Woman,Right,
,,,,,,,,,,,,,,,,,569,18,Woman,Right,5,52,0.15,1,0,-,0,0.8477814999987459,['y'],0.47050639999906707,1.654,2612.0659590999994,,,,,569,18,Woman,Right,
,,,,,,,,,,,,,,,,,569,18,Woman,Right,5,3,1,2,180,0,180,0.1461829999989277,['y'],1.302913499999704,1.338,2615.9159100999996,,,,,569,18,Woman,Right,
,,,,,,,,,,,,,,,,,569,18,Woman,Right,5,34,0.4,1,180,-,180,0.3194476000007853,['n'],0.8944386999992275,1.79,2619.549946,,,,,569,18,Woman,Right,
,,,,,,,,,,,,,,,,,569,18,Woman,Right,5,9,0.4,2,0,180,0,0.016772499999206048,['n'],2.3183669000009104,1.918,2624.8656272,,,,,569,18,Woman,Right,
,,,,,,,,,,,,,,,,,569,18,Woman,Right,5,56,0.15,1,0,-,180,0.11565760000121372,['y'],1.783323499999824,1.6440000000000001,2629.499381299999,,,,,569,18,Woman,Right,
,,,,,,,,,,,,,,,,,569,18,Woman,Right,5,58,0.15,1,180,-,180,0.5711691999986215,['y'],0.5188806999994995,1.6440000000000001,2629.499381299999,,,,,569,18,Woman,Right,
,,,,,,,,,,,,,,,,,569,18,Woman,Right,5,57,0.15,2,0,180,0,0.28333090000160155,['y'],1.1438973000003898,1.55,2637.3823872000003,,,,,569,18,Woman,Right,
,,,,,,,,,,,,,,,,,569,18,Woman,Right,5,69,0.15,2,0,180,180,0.5612617000006139,['y'],0.8466310000003432,1.1099999999999999,2640.9490940000005,,,,,569,18,Woman,Right,
,,,,,,,,,,,,,,,,,569,18,Woman,Right,5,48,0.15,1,0,-,0,0.34217329999955837,['y'],1.5026296000014554,1.1099999999999999,2640.9490940000005,,,,,569,18,Woman,Right,
,,,,,,,,,,,,,,,,,569,18,Woman,Right,5,76,0.15,1,0,-,0,0.1866215000009106,['n'],1.5752038999999058,1.838,2649.598872900001,,,,,569,18,Woman,Right,
,,,,,,,,,,,,,,,,,569,18,Woman,Right,5,70,0.15,1,180,-,0,0.08154739999918093,['y'],1.2468181999993249,1.788,2653.0490677999996,,,,,569,18,Woman,Right,
,,,,,,,,,,,,,,,,,569,18,Woman,Right,5,42,0.4,1,180,-,180,0.26887360000000626,['n'],1.7908471999999165,1.84,2658.4820819999995,,,,,569,18,Woman,Right,
,,,,,,,,,,,,,,,,,569,18,Woman,Right,5,27,0.4,2,180,0,180,1.0626324999993813,['n'],0.5667412999991939,1.0,2662.6987729,,,,,569,18,Woman,Right,
,,,,,,,,,,,,,,,,,569,18,Woman,Right,5,36,0.4,1,0,-,0,0.1957510000011098,['n'],1.0549439000005805,1.942,2666.6490807,,,,,569,18,Woman,Right,
,,,,,,,,,,,,,,,,,569,18,Woman,Right,5,59,0.15,2,180,0,180,0.1569880999995803,['n'],1.7588319000005868,1.912,2671.1819726999993,,,,,569,18,Woman,Right,
,,,,,,,,,,,,,,,,,569,18,Woman,Right,5,65,0.15,2,0,180,0,0.05636850000155391,['y'],1.0550438999998732,1.592,2674.8653373999996,,,,,569,18,Woman,Right,
,,,,,,,,,,,,,,,,,569,18,Woman,Right,5,5,1,2,0,180,180,0.8861012000015762,['y'],0.9105877999991208,1.988,2679.1986681000008,,,,,569,18,Woman,Right,
,,,,,,,,,,,,,,,,,569,18,Woman,Right,5,55,0.15,2,180,0,180,1.096259199999622,['y'],0.6787149000010686,1.794,2683.2319214999998,,,,,569,18,Woman,Right,
,,,,,,,,,,,,,,,,,569,18,Woman,Right,5,29,0.4,2,0,180,180,0.3121185999989393,['y'],0.7111961999999039,1.3679999999999999,2686.8486227999992,,,,,569,18,Woman,Right,
,,,,,,,,,,,,,,,,,569,18,Woman,Right,5,4,1,1,0,-,0,0.11277589999917836,['n'],0.7826946999994107,1.834,2690.1654487999995,,,,,569,18,Woman,Right,
,,,,,,,,,,,,,,,,,569,18,Woman,Right,5,22,0.4,1,180,-,180,0.703331500000786,['y'],0.8386633999998594,1.42,2694.4820291000005,,,,,569,18,Woman,Right,
,,,,,,,,,,,,,,,,,569,18,Woman,Right,5,19,0.4,2,180,0,180,0.2543420000001788,['y'],1.1506317000003037,1.642,2698.382076000001,,,,,569,18,Woman,Right,
,,,,,,,,,,,,,,,,,569,18,Woman,Right,5,72,0.15,1,0,-,180,0.4819627999986551,['n'],0.5988428000000567,1.298,2701.782983100001,,,,,569,18,Woman,Right,
,,,,,,,,,,,,,,,,,569,18,Woman,Right,5,1,1,2,0,180,0,2.761567699999432,['y'],0.8387715000008029,1.73,2707.681770800001,,,,,569,18,Woman,Right,
,,,,,,,,,,,,,,,,,569,18,Woman,Right,5,6,1,1,180,-,180,1.196096800000305,['n'],1.0868713999989268,1.77,2712.7483347000007,,,,,569,18,Woman,Right,
,,,,,,,,,,,,,,,,,569,18,Woman,Right,5,51,0.15,2,180,0,180,0.6177580999992642,['y'],2.126803799999834,1.77,2717.948409400001,,,,,569,18,Woman,Right,
,,,,,,,,,,,,,,,,,569,18,Woman,Right,5,7,1,2,180,0,180,0.11646070000097097,['y'],1.0786693999998533,1.77,2717.948409400001,,,,,569,18,Woman,Right,
,,,,,,,,,,,,,,,,,569,18,Woman,Right,5,23,0.4,2,180,0,0,0.164464899999075,['y'],0.91093120000005,1.358,2725.0150815999996,,,,,569,18,Woman,Right,
,,,,,,,,,,,,,,,,,569,18,Woman,Right,5,0,1,1,0,-,0,0.016580100000282982,['n'],1.5731653999991977,1.358,2728.9483114000004,,,,,569,18,Woman,Right,
,,,,,,,,,,,,,,,,,569,18,Woman,Right,5,53,0.15,2,0,180,0,1.450865300001169,['n'],1.1752465999998094,1.91,2734.1316454,,,,,569,18,Woman,Right,
,,,,,,,,,,,,,,,,,569,18,Woman,Right,5,78,0.15,1,180,-,180,0.05117880000034347,['n'],1.1746597000001202,1.916,2737.448206100001,,,,,569,18,Woman,Right,
,,,,,,,,,,,,,,,,,569,18,Woman,Right,5,10,0.4,1,180,-,180,0.08508210000036343,['y'],1.5989048999999795,1.916,2737.448206100001,,,,,569,18,Woman,Right,
,,,,,,,,,,,,,,,,,569,18,Woman,Right,5,24,0.4,1,0,-,180,0.08692590000100608,['n'],1.1030234000008932,1.3980000000000001,2745.3815480000003,,,,,569,18,Woman,Right,
,,,,,,,,,,,,,,,,,569,18,Woman,Right,5,67,0.15,2,180,0,0,0.027462899999591173,['n'],1.3346719999990455,1.3980000000000001,2745.3815480000003,,,,,569,18,Woman,Right,
,,,,,,,,,,,,,,,,,569,18,Woman,Right,5,74,0.15,1,180,-,0,0.14033569999992324,['n'],1.0549745999996958,1.6059999999999999,2752.9149236999992,,,,,569,18,Woman,Right,
,,,,,,,,,,,,,,,,,569,18,Woman,Right,5,62,0.15,1,180,-,180,0.6511484000002383,['n'],2.030344299999342,1.638,2758.4814373,,,,,569,18,Woman,Right,
,,,,,,,,,,,,,,,,,569,18,Woman,Right,5,47,0.15,2,180,0,0,0.016884099999515456,['y'],0.939212100000077,1.142,2762.2314080000006,,,,,569,18,Woman,Right,
,,,,,,,,,,,,,,,,,569,18,Woman,Right,5,37,0.4,2,0,180,0,0.3494007999997848,['y'],1.2866746999989118,1.8599999999999999,2766.8650707000006,,,,,569,18,Woman,Right,
,,,,,,,,,,,,,,,,,569,18,Woman,Right,5,38,0.4,1,180,-,180,0.8205932000000757,['y'],1.8627971000005346,1.588,2771.9813103999995,,,,,569,18,Woman,Right,
,,,,,,,,,,,,,,,,,569,18,Woman,Right,5,33,0.4,2,0,180,0,0.018919199999800185,['n'],1.5667705000014394,1.5899999999999999,2775.8312988999996,,,,,569,18,Woman,Right,
,,,,,,,,,,,,,,,,,569,18,Woman,Right,5,35,0.4,2,180,0,0,0.1256920000014361,['y'],0.9591366999993625,1.042,2779.8647971,,,,,569,18,Woman,Right,
,,,,,,,,,,,,,,,,,569,18,Woman,Right,5,71,0.15,2,180,0,0,1.0403726000004099,['n'],1.278309299999819,1.566,2784.6479611000004,,,,,569,18,Woman,Right,
,,,,,,,,,,,,,,,,,569,18,Woman,Right,5,15,0.4,2,180,0,180,0.06388130000050296,['y'],1.2152244999997492,1.5739999999999998,2788.2651634999993,,,,,569,18,Woman,Right,
,,,,,,,,,,,,,,,,,569,18,Woman,Right,5,63,0.15,2,180,0,0,0.3362224000011338,['n'],0.622677700001077,1.96,2791.6645975,,,,,569,18,Woman,Right,
,,,,,,,,,,,,,,,,,569,18,Woman,Right,5,54,0.15,1,180,-,180,0.687351900000067,['n'],0.7268086999993102,1.6520000000000001,2796.5320827999994,,,,,569,18,Woman,Right,
,,,,,,,,,,,,,,,,,569,18,Woman,Right,5,49,0.15,2,0,180,180,0.2429931000006036,['n'],0.6711570000006759,1.798,2800.2150818,,,,,569,18,Woman,Right,
,,,,,,,,,,,,,,,,,569,18,Woman,Right,5,61,0.15,2,0,180,180,0.28775189999942086,['n'],0.7423123999997188,1.822,2803.4650083999995,,,,,569,18,Woman,Right,
,,,,,,,,,,,,,,,,,,,,,,,,,,,,,,,,,53.75,65.0,55.0,2460.3983287,,,,,
