p_block,p_section,p_coherence,p_direction1,p_direction2,p_direction_response,p_direction_RT,p_change_response,p_change_RT,p_confidence,p_full_correct,p_without5_correct,p_full_total,p_without5_total,p_full_avg,p_witout5_avg,p_total_time,sub,age,sex,handedness,loop,trial randomization,coherence,condition,direction1,direction2,direction_response,direction_RT,change_response,change_RT,change_confidence,change_confidence_RT,block_direction_avg,block_stable_avg,block_change_avg,total_time,sub,age,sex,handedness,
1,1,1.0,0,-,0,1.5456720000001951,-,-,-,,,,,,,,517,18,Woman,Right,,,,,,,,,,,,,,,,,517,18,Woman,Right,
1,1,1.0,0,-,0,0.45375570000032894,-,-,-,,,,,,,,517,18,Woman,Right,,,,,,,,,,,,,,,,,517,18,Woman,Right,
1,1,1.0,0,-,0,0.35838150000199676,-,-,-,,,,,,,,517,18,Woman,Right,,,,,,,,,,,,,,,,,517,18,Woman,Right,
1,1,1.0,0,-,0,0.529948700001114,-,-,-,,,,,,,,517,18,Woman,Right,,,,,,,,,,,,,,,,,517,18,Woman,Right,
1,1,1.0,180,-,180,0.2832890999998199,-,-,-,,,,,,,,517,18,Woman,Right,,,,,,,,,,,,,,,,,517,18,Woman,Right,
1,1,1.0,180,-,180,0.22177490000467515,-,-,-,,,,,,,,517,18,Woman,Right,,,,,,,,,,,,,,,,,517,18,Woman,Right,
1,1,1.0,180,-,180,0.26357930000085616,-,-,-,,,,,,,,517,18,Woman,Right,,,,,,,,,,,,,,,,,517,18,Woman,Right,
1,1,1.0,180,-,180,0.01730120000138413,-,-,-,,,,,,,,517,18,Woman,Right,,,,,,,,,,,,,,,,,517,18,Woman,Right,
1,1,1.0,0,-,0,0.39409560000058264,-,-,-,,,,,,,,517,18,Woman,Right,,,,,,,,,,,,,,,,,517,18,Woman,Right,
1,1,1.0,180,-,180,0.016710000003513414,-,-,-,10,10,10,10,1.0,1.0,,517,18,Woman,Right,,,,,,,,,,,,,,,,,517,18,Woman,Right,
2,1,0.4,0,-,0,0.5252170000021579,-,-,-,,,,,,,,517,18,Woman,Right,,,,,,,,,,,,,,,,,517,18,Woman,Right,
2,1,0.4,0,-,0,0.3234489000024041,-,-,-,,,,,,,,517,18,Woman,Right,,,,,,,,,,,,,,,,,517,18,Woman,Right,
2,1,0.4,0,-,0,0.5454983999952674,-,-,-,,,,,,,,517,18,Woman,Right,,,,,,,,,,,,,,,,,517,18,Woman,Right,
2,1,0.15,0,-,180,0.36650139999983367,-,-,-,,,,,,,,517,18,Woman,Right,,,,,,,,,,,,,,,,,517,18,Woman,Right,
2,1,0.4,180,-,180,0.17831289999594446,-,-,-,,,,,,,,517,18,Woman,Right,,,,,,,,,,,,,,,,,517,18,Woman,Right,
2,1,0.4,180,-,180,0.3100775999992038,-,-,-,,,,,,,,517,18,Woman,Right,,,,,,,,,,,,,,,,,517,18,Woman,Right,
2,1,0.4,0,-,0,0.3160219999990659,-,-,-,,,,,,,,517,18,Woman,Right,,,,,,,,,,,,,,,,,517,18,Woman,Right,
2,1,0.15,0,-,0,0.2831041000026744,-,-,-,,,,,,,,517,18,Woman,Right,,,,,,,,,,,,,,,,,517,18,Woman,Right,
2,1,0.4,0,-,0,0.4967818000004627,-,-,-,,,,,,,,517,18,Woman,Right,,,,,,,,,,,,,,,,,517,18,Woman,Right,
2,1,0.15,0,-,0,0.23192750000453088,-,-,-,9,7,10,7,0.9,1.0,,517,18,Woman,Right,,,,,,,,,,,,,,,,,517,18,Woman,Right,
3,2,1.0,180,0,0,1.2289403000031598,['y'],2.8954598999989685,1.94,,,,,,,,517,18,Woman,Right,,,,,,,,,,,,,,,,,517,18,Woman,Right,
3,2,1.0,180,0,0,1.0125151999964146,['y'],1.0647208999944269,1.952,,,,,,,,517,18,Woman,Right,,,,,,,,,,,,,,,,,517,18,Woman,Right,
3,2,1.0,180,0,0,0.5905774999991991,['y'],1.4417758999989019,1.954,,,,,,,,517,18,Woman,Right,,,,,,,,,,,,,,,,,517,18,Woman,Right,
3,2,1.0,0,180,180,0.7697842999987188,['y'],2.93275139999605,1.932,,,,,,,,517,18,Woman,Right,,,,,,,,,,,,,,,,,517,18,Woman,Right,
3,2,1.0,180,0,0,0.5833143999989261,['y'],0.6339858999999706,1.978,,,,,,,,517,18,Woman,Right,,,,,,,,,,,,,,,,,517,18,Woman,Right,
3,2,1.0,180,0,0,0.5436628999959794,['y'],0.500816500003566,1.984,,,,,,,,517,18,Woman,Right,,,,,,,,,,,,,,,,,517,18,Woman,Right,
3,2,1.0,0,180,180,0.6890977000002749,['y'],0.31151259999751346,1.964,,,,,,,,517,18,Woman,Right,,,,,,,,,,,,,,,,,517,18,Woman,Right,
3,2,1.0,180,0,0,0.3867342999947141,['y'],0.8699858999971184,1.98,,,,,,,,517,18,Woman,Right,,,,,,,,,,,,,,,,,517,18,Woman,Right,
3,2,1.0,180,0,0,0.33257530000264524,['y'],0.3286612999945646,1.978,,,,,,,,517,18,Woman,Right,,,,,,,,,,,,,,,,,517,18,Woman,Right,
3,2,1.0,0,180,180,0.4487093999996432,['y'],0.35326379999605706,1.98,10,10,10,10,1.0,1.0,,517,18,Woman,Right,,,,,,,,,,,,,,,,,517,18,Woman,Right,
4,2,0.4,180,0,180,0.654451300004439,['y'],3.0948983000052976,1.964,,,,,,,,517,18,Woman,Right,,,,,,,,,,,,,,,,,517,18,Woman,Right,
4,2,0.4,180,0,0,0.4521281999986968,['y'],1.0685823000021628,1.97,,,,,,,,517,18,Woman,Right,,,,,,,,,,,,,,,,,517,18,Woman,Right,
4,2,0.4,0,180,180,0.5477616999996826,['y'],0.4493928000010783,1.964,,,,,,,,517,18,Woman,Right,,,,,,,,,,,,,,,,,517,18,Woman,Right,
4,2,0.4,0,180,180,0.4634555999946315,['y'],0.865041500001098,1.982,,,,,,,,517,18,Woman,Right,,,,,,,,,,,,,,,,,517,18,Woman,Right,
4,2,0.15,0,180,0,0.5206982000017888,['y'],0.5980722999956924,1.972,,,,,,,,517,18,Woman,Right,,,,,,,,,,,,,,,,,517,18,Woman,Right,
4,2,0.4,180,0,0,0.5506745000020601,['y'],1.4037043999996968,1.972,,,,,,,,517,18,Woman,Right,,,,,,,,,,,,,,,,,517,18,Woman,Right,
4,2,0.15,0,180,180,0.5302873000036925,['y'],0.7997828000006848,1.97,,,,,,,,517,18,Woman,Right,,,,,,,,,,,,,,,,,517,18,Woman,Right,
4,2,0.4,0,180,0,0.4025709999987157,['y'],0.5157647000014549,1.974,,,,,,,,517,18,Woman,Right,,,,,,,,,,,,,,,,,517,18,Woman,Right,
4,2,0.4,180,0,180,0.4348572000017157,['y'],1.083142899995437,1.9,,,,,,,,517,18,Woman,Right,,,,,,,,,,,,,,,,,517,18,Woman,Right,
4,2,0.15,0,180,0,0.4004371999981231,['y'],0.892514500003017,1.944,,,,,,,,517,18,Woman,Right,,,,,,,,,,,,,,,,,517,18,Woman,Right,
4,2,0.15,180,0,180,0.3646172000007937,['y'],0.6575121999994735,1.958,,,,,,,,517,18,Woman,Right,,,,,,,,,,,,,,,,,517,18,Woman,Right,
4,2,0.15,0,180,0,0.4053535999992164,['y'],1.455186799998046,1.974,,,,,,,,517,18,Woman,Right,,,,,,,,,,,,,,,,,517,18,Woman,Right,
4,2,0.4,0,180,180,0.4526786999995238,['y'],0.6683314999972936,1.984,,,,,,,,517,18,Woman,Right,,,,,,,,,,,,,,,,,517,18,Woman,Right,
4,2,0.4,180,0,180,0.38418490000185557,['y'],1.033706499998516,1.978,,,,,,,,517,18,Woman,Right,,,,,,,,,,,,,,,,,517,18,Woman,Right,
4,2,0.4,0,180,180,0.48378959999536164,['y'],1.0107397999963723,1.984,,,,,,,,517,18,Woman,Right,,,,,,,,,,,,,,,,,517,18,Woman,Right,
4,2,0.4,0,180,180,0.5393857000017306,['y'],0.4955619999964256,1.984,,,,,,,,517,18,Woman,Right,,,,,,,,,,,,,,,,,517,18,Woman,Right,
4,2,0.4,0,180,180,0.4244353000030969,['y'],0.6177822000026936,1.986,,,,,,,,517,18,Woman,Right,,,,,,,,,,,,,,,,,517,18,Woman,Right,
4,2,0.4,180,0,0,0.5836160999970161,['y'],0.31270650000078604,1.982,,,,,,,,517,18,Woman,Right,,,,,,,,,,,,,,,,,517,18,Woman,Right,
4,2,0.4,180,0,0,0.3860075999982655,['y'],0.4296288999976241,1.976,,,,,,,,517,18,Woman,Right,,,,,,,,,,,,,,,,,517,18,Woman,Right,
4,2,0.4,0,180,0,0.39104149999911897,['y'],0.4097044000009191,1.98,,,,,,,,517,18,Woman,Right,,,,,,,,,,,,,,,,,517,18,Woman,Right,
4,2,0.4,180,0,0,0.4524396999986493,['y'],0.44458660000236705,1.98,,,,,,,,517,18,Woman,Right,,,,,,,,,,,,,,,,,517,18,Woman,Right,
4,2,0.4,180,0,0,0.37155120000534225,['y'],0.4245202000020072,1.974,,,,,,,,517,18,Woman,Right,,,,,,,,,,,,,,,,,517,18,Woman,Right,
4,2,0.4,180,0,180,0.3988227000008919,['y'],0.6247224999970058,1.964,,,,,,,,517,18,Woman,Right,,,,,,,,,,,,,,,,,517,18,Woman,Right,
4,2,0.4,0,180,180,0.36828439999953844,['y'],0.39456349999818485,1.962,,,,,,,,517,18,Woman,Right,,,,,,,,,,,,,,,,,517,18,Woman,Right,
4,2,0.15,180,0,180,0.5464611999996123,['y'],0.7357295999972848,1.978,,,,,,,,517,18,Woman,Right,,,,,,,,,,,,,,,,,517,18,Woman,Right,
4,2,0.15,0,180,0,0.5280622000063886,['y'],0.3485071000031894,1.968,,,,,,,,517,18,Woman,Right,,,,,,,,,,,,,,,,,517,18,Woman,Right,
4,2,0.4,0,180,0,0.5570307999951183,['y'],0.5455297000007704,1.982,,,,,,,,517,18,Woman,Right,,,,,,,,,,,,,,,,,517,18,Woman,Right,
4,2,0.4,0,180,180,0.49249939999572234,['y'],0.36264700000174344,1.982,,,,,,,,517,18,Woman,Right,,,,,,,,,,,,,,,,,517,18,Woman,Right,
4,2,0.15,0,180,0,0.39908270000159973,['y'],0.3453783000004478,1.97,,,,,,,,517,18,Woman,Right,,,,,,,,,,,,,,,,,517,18,Woman,Right,
4,2,0.4,0,180,0,0.6175828000050387,['y'],0.5077323000004981,1.964,,,,,,,,517,18,Woman,Right,,,,,,,,,,,,,,,,,517,18,Woman,Right,
4,2,0.15,180,0,0,0.6042869000011706,['y'],0.3412181999956374,1.962,,,,,,,,517,18,Woman,Right,,,,,,,,,,,,,,,,,517,18,Woman,Right,
4,2,0.15,180,0,0,0.37796910000179196,['y'],0.31022870000015246,1.962,,,,,,,,517,18,Woman,Right,,,,,,,,,,,,,,,,,517,18,Woman,Right,
4,2,0.15,0,180,0,0.3226457999990089,['y'],0.336736799996288,1.964,,,,,,,,517,18,Woman,Right,,,,,,,,,,,,,,,,,517,18,Woman,Right,
4,2,0.4,180,0,0,0.41480540000338806,['y'],0.36160199999721954,1.964,,,,,,,,517,18,Woman,Right,,,,,,,,,,,,,,,,,517,18,Woman,Right,
4,2,0.15,0,180,180,0.35083599999779835,['y'],0.35459950000222307,1.964,,,,,,,,517,18,Woman,Right,,,,,,,,,,,,,,,,,517,18,Woman,Right,
4,2,0.4,0,180,0,0.600038399999903,['y'],0.3361443000030704,1.964,,,,,,,,517,18,Woman,Right,,,,,,,,,,,,,,,,,517,18,Woman,Right,
4,2,0.15,180,0,0,0.6356291000047349,['y'],0.9465702999950736,1.964,,,,,,,,517,18,Woman,Right,,,,,,,,,,,,,,,,,517,18,Woman,Right,
4,2,0.4,180,0,180,1.6694276000052923,['y'],0.8532593999989331,1.962,,,,,,,,517,18,Woman,Right,,,,,,,,,,,,,,,,,517,18,Woman,Right,
4,2,0.15,0,180,180,1.1136200000037206,['y'],0.6390912999995635,1.958,,,,,,,,517,18,Woman,Right,,,,,,,,,,,,,,,,,517,18,Woman,Right,
4,2,0.4,0,180,180,1.2372140000006766,['y'],0.38231549999909475,1.958,,,,,,,,517,18,Woman,Right,,,,,,,,,,,,,,,,,517,18,Woman,Right,
4,2,0.15,180,0,0,0.3840501999948174,['y'],0.2830162000027485,1.958,,,,,,,,517,18,Woman,Right,,,,,,,,,,,,,,,,,517,18,Woman,Right,
4,2,0.4,180,0,180,0.9026321999990614,['y'],0.25219189999916125,1.958,,,,,,,,517,18,Woman,Right,,,,,,,,,,,,,,,,,517,18,Woman,Right,
4,2,0.4,180,0,0,0.4137288999991142,['y'],0.3682291000004625,1.962,,,,,,,,517,18,Woman,Right,,,,,,,,,,,,,,,,,517,18,Woman,Right,
4,2,0.4,0,180,180,0.5257084000040777,['y'],0.4365237999954843,1.96,,,,,,,,517,18,Woman,Right,,,,,,,,,,,,,,,,,517,18,Woman,Right,
4,2,0.15,180,0,0,1.1664491000046837,['y'],0.3384431000013137,1.966,,,,,,,,517,18,Woman,Right,,,,,,,,,,,,,,,,,517,18,Woman,Right,
4,2,0.4,0,180,180,0.30174790000455687,['y'],0.3478882000054,1.966,,,,,,,,517,18,Woman,Right,,,,,,,,,,,,,,,,,517,18,Woman,Right,
4,2,0.4,180,0,0,0.23979400000098394,['y'],0.30428769999707583,1.966,,,,,,,,517,18,Woman,Right,,,,,,,,,,,,,,,,,517,18,Woman,Right,
4,2,0.15,180,0,180,0.57244310000533,['y'],0.3515566999994917,1.966,,,,,,,,517,18,Woman,Right,,,,,,,,,,,,,,,,,517,18,Woman,Right,
4,2,0.15,180,0,180,1.0777037000007113,['y'],0.2841344999978901,1.966,,,,,,,,517,18,Woman,Right,,,,,,,,,,,,,,,,,517,18,Woman,Right,
4,2,0.4,180,0,0,0.4161433000044781,['y'],0.40172820000589127,1.974,7,5,10,6,0.7,0.8333333333333334,,517,18,Woman,Right,,,,,,,,,,,,,,,,,517,18,Woman,Right,
5,3,1.0,180,-,0,1.1861735999991652,['n'],1.7250619999977062,1.6059999999999999,,,,,,,,517,18,Woman,Right,,,,,,,,,,,,,,,,,517,18,Woman,Right,
5,3,1.0,180,0,0,0.6178752999985591,['y'],0.3720044000001508,1.956,,,,,,,,517,18,Woman,Right,,,,,,,,,,,,,,,,,517,18,Woman,Right,
5,3,0.4,0,180,180,0.4918642999982694,['y'],0.24312490000011167,1.952,,,,,,,,517,18,Woman,Right,,,,,,,,,,,,,,,,,517,18,Woman,Right,
5,3,0.15,0,-,180,0.4288051000039559,['y'],0.24582920000102604,1.914,,,,,,,,517,18,Woman,Right,,,,,,,,,,,,,,,,,517,18,Woman,Right,
5,3,1.0,0,180,180,0.415979099998367,['y'],0.3285429999959888,1.914,,,,,,,,517,18,Woman,Right,,,,,,,,,,,,,,,,,517,18,Woman,Right,
5,3,0.4,180,-,0,2.013416800000414,['y'],0.6075712000019848,1.58,,,,,,,,517,18,Woman,Right,,,,,,,,,,,,,,,,,517,18,Woman,Right,
5,3,1.0,0,-,180,1.4495814999972936,['n'],1.3693058999997447,1.642,,,,,,,,517,18,Woman,Right,,,,,,,,,,,,,,,,,517,18,Woman,Right,
5,3,1.0,180,0,0,0.3837266999980784,['y'],0.2590435999954934,1.964,,,,,,,,517,18,Woman,Right,,,,,,,,,,,,,,,,,517,18,Woman,Right,
5,3,0.4,180,-,0,1.9752607999980683,['n'],0.20899759999883827,1.94,,,,,,,,517,18,Woman,Right,,,,,,,,,,,,,,,,,517,18,Woman,Right,
5,3,0.4,180,-,180,1.4979714000000968,['n'],0.313289599995187,1.994,,,,,,,,517,18,Woman,Right,,,,,,,,,,,,,,,,,517,18,Woman,Right,
5,3,0.4,180,-,180,1.006137199998193,['y'],1.4394431000037002,1.516,,,,,,,,517,18,Woman,Right,,,,,,,,,,,,,,,,,517,18,Woman,Right,
5,3,0.15,180,0,0,3.3700775999968755,['n'],0.42259829999966314,1.842,,,,,,,,517,18,Woman,Right,,,,,,,,,,,,,,,,,517,18,Woman,Right,
5,3,0.4,180,0,0,0.7460139000031631,['y'],0.2864451999994344,1.924,,,,,,,,517,18,Woman,Right,,,,,,,,,,,,,,,,,517,18,Woman,Right,
5,3,1.0,0,-,180,0.5467724999980419,['n'],3.6307136999967042,1.696,,,,,,,,517,18,Woman,Right,,,,,,,,,,,,,,,,,517,18,Woman,Right,
5,3,0.4,0,180,180,0.6340598000024329,['y'],1.6582589000026928,1.8860000000000001,,,,,,,,517,18,Woman,Right,,,,,,,,,,,,,,,,,517,18,Woman,Right,
5,3,0.4,180,-,180,0.8185940999974264,['n'],0.29201430000102846,1.998,,,,,,,,517,18,Woman,Right,,,,,,,,,,,,,,,,,517,18,Woman,Right,
5,3,0.15,0,180,180,0.43201159999443917,['y'],0.2817877999987104,1.992,,,,,,,,517,18,Woman,Right,,,,,,,,,,,,,,,,,517,18,Woman,Right,
5,3,0.15,0,-,0,0.8192790000030072,['n'],0.26907070000015665,1.99,,,,,,,,517,18,Woman,Right,,,,,,,,,,,,,,,,,517,18,Woman,Right,
5,3,1.0,180,-,180,0.33334459999605315,['n'],0.24221579999721143,1.982,,,,,,,,517,18,Woman,Right,,,,,,,,,,,,,,,,,517,18,Woman,Right,
5,3,0.15,0,-,0,0.49972349999734433,['n'],0.2451541999980691,1.98,9,5,10,6,0.9,0.8333333333333334,,517,18,Woman,Right,,,,,,,,,,,,,,,,,517,18,Woman,Right,
,,,,,,,,,,,,,,,,4.499997885432094e-06,517,18,Woman,Right,,,,,,,,,,,,,,,,,517,18,Woman,Right,
,,,,,,,,,,,,,,,,,517,18,Woman,Right,0,13,0.4,2,0,180,180,0.5170216000042274,['y'],3.0160834000053,1.954,661.5308069000021,,,,,517,18,Woman,Right,
,,,,,,,,,,,,,,,,,517,18,Woman,Right,0,62,0.15,1,180,-,180,0.762783699996362,['y'],1.4389854000037303,1.794,668.2308666999961,,,,,517,18,Woman,Right,
,,,,,,,,,,,,,,,,,517,18,Woman,Right,0,9,0.4,2,0,180,180,1.6953786999947624,['n'],1.5593781000061426,1.63,675.7809560999958,,,,,517,18,Woman,Right,
,,,,,,,,,,,,,,,,,517,18,Woman,Right,0,59,0.15,2,180,0,180,0.46372580000024755,['y'],1.2078662999992957,1.63,680.5307526999968,,,,,517,18,Woman,Right,
,,,,,,,,,,,,,,,,,517,18,Woman,Right,0,30,0.4,1,180,-,180,0.8477686999976868,['n'],1.2472976000062772,1.944,685.7140147999962,,,,,517,18,Woman,Right,
,,,,,,,,,,,,,,,,,517,18,Woman,Right,0,73,0.15,2,0,180,180,0.4510230999949272,['n'],3.4396951000016998,1.88,692.8806980000008,,,,,517,18,Woman,Right,
,,,,,,,,,,,,,,,,,517,18,Woman,Right,0,79,0.15,2,180,0,0,0.6189161000002059,['y'],1.2320899000042118,1.706,698.1145470999982,,,,,517,18,Woman,Right,
,,,,,,,,,,,,,,,,,517,18,Woman,Right,0,4,1,1,0,-,0,1.117122300005576,['n'],1.3446171999967191,1.974,703.6306313000023,,,,,517,18,Woman,Right,
,,,,,,,,,,,,,,,,,517,18,Woman,Right,0,46,0.15,1,180,-,180,2.2695961999997962,['y'],1.6395412999991095,1.576,711.1146406999978,,,,,517,18,Woman,Right,
,,,,,,,,,,,,,,,,,517,18,Woman,Right,0,34,0.4,1,180,-,180,1.7632524000000558,['n'],1.151685400000133,1.556,717.2145053999993,,,,,517,18,Woman,Right,
,,,,,,,,,,,,,,,,,517,18,Woman,Right,0,76,0.15,1,0,-,180,0.9419506999984151,['y'],1.4553289000032237,1.392,726.1640592999975,,,,,517,18,Woman,Right,
,,,,,,,,,,,,,,,,,517,18,Woman,Right,0,64,0.15,1,0,-,180,1.7338874999986729,['n'],1.3194171999930404,1.3599999999999999,732.5641786999986,,,,,517,18,Woman,Right,
,,,,,,,,,,,,,,,,,517,18,Woman,Right,0,26,0.4,1,180,-,180,0.5553663999962737,['n'],1.0314985999939381,1.9020000000000001,737.6137563000011,,,,,517,18,Woman,Right,
,,,,,,,,,,,,,,,,,517,18,Woman,Right,0,36,0.4,1,0,-,0,0.7141776999997091,['n'],1.1279216000039014,1.9020000000000001,742.264596699999,,,,,517,18,Woman,Right,
,,,,,,,,,,,,,,,,,517,18,Woman,Right,0,0,1,1,0,-,180,0.5900296999971033,['y'],1.3920788999967044,1.8980000000000001,746.6303951000009,,,,,517,18,Woman,Right,
,,,,,,,,,,,,,,,,,517,18,Woman,Right,0,15,0.4,2,180,0,180,0.5553636000040569,['y'],5.727395699999761,1.762,756.1639233000024,,,,,517,18,Woman,Right,
,,,,,,,,,,,,,,,,,517,18,Woman,Right,0,14,0.4,1,180,-,180,0.5246162000039476,['y'],1.6718907999966177,1.764,761.3970189000029,,,,,517,18,Woman,Right,
,,,,,,,,,,,,,,,,,517,18,Woman,Right,0,12,0.4,1,0,-,180,1.686157899996033,['y'],1.2875419999982114,1.774,766.7643814999974,,,,,517,18,Woman,Right,
,,,,,,,,,,,,,,,,,517,18,Woman,Right,0,60,0.15,1,0,-,180,2.0874732000011136,['y'],1.0797307000029832,1.83,772.7635702999978,,,,,517,18,Woman,Right,
,,,,,,,,,,,,,,,,,517,18,Woman,Right,0,48,0.15,1,0,-,180,7.395602900003723,['y'],2.7514348000040627,1.76,785.681219799997,,,,,517,18,Woman,Right,
,,,,,,,,,,,,,,,,,517,18,Woman,Right,0,52,0.15,1,0,-,180,1.1073020999974688,['y'],5.728429499999038,1.518,795.8301118000018,,,,,517,18,Woman,Right,
,,,,,,,,,,,,,,,,,517,18,Woman,Right,0,1,1,2,0,180,180,1.4844393999956083,['y'],0.8875207000019145,1.994,801.0975345999977,,,,,517,18,Woman,Right,
,,,,,,,,,,,,,,,,,517,18,Woman,Right,0,68,0.15,1,0,-,0,1.7235194000022602,['n'],1.367882999998983,1.5979999999999999,808.0802053000007,,,,,517,18,Woman,Right,
,,,,,,,,,,,,,,,,,517,18,Woman,Right,0,40,0.4,1,0,-,0,2.5593110999980127,['n'],1.7118002000061097,1.642,815.7467069999984,,,,,517,18,Woman,Right,
,,,,,,,,,,,,,,,,,517,18,Woman,Right,0,35,0.4,2,180,0,0,1.001075000000128,['y'],0.7114485999991302,1.996,820.6469113999992,,,,,517,18,Woman,Right,
,,,,,,,,,,,,,,,,,517,18,Woman,Right,0,58,0.15,1,180,-,0,3.637530899999547,['y'],1.8638044000035734,1.736,829.3798884999997,,,,,517,18,Woman,Right,
,,,,,,,,,,,,,,,,,517,18,Woman,Right,0,77,0.15,2,0,180,180,3.792817499997909,['y'],0.6549104000005173,1.976,836.8138782000024,,,,,517,18,Woman,Right,
,,,,,,,,,,,,,,,,,517,18,Woman,Right,0,47,0.15,2,180,0,180,4.296116599995003,['y'],1.0162636999957613,1.968,844.6140375999967,,,,,517,18,Woman,Right,
,,,,,,,,,,,,,,,,,517,18,Woman,Right,0,6,1,1,180,-,180,0.5577699999994365,['n'],1.495686399997794,1.97,849.1971795999998,,,,,517,18,Woman,Right,
,,,,,,,,,,,,,,,,,517,18,Woman,Right,0,8,0.4,1,0,-,0,1.7188573000021279,['y'],1.0081773999991128,1.97,854.4638768000004,,,,,517,18,Woman,Right,
,,,,,,,,,,,,,,,,,517,18,Woman,Right,0,66,0.15,1,180,-,180,2.1511821000021882,['y'],0.8074295999977039,1.98,860.3798113000012,,,,,517,18,Woman,Right,
,,,,,,,,,,,,,,,,,517,18,Woman,Right,0,61,0.15,2,0,180,180,3.650797700000112,['n'],0.7750267999945208,1.196,869.2970618999971,,,,,517,18,Woman,Right,
,,,,,,,,,,,,,,,,,517,18,Woman,Right,0,67,0.15,2,180,0,180,0.8605682000052184,['n'],0.8634750000055647,1.998,874.5130667999983,,,,,517,18,Woman,Right,
,,,,,,,,,,,,,,,,,517,18,Woman,Right,0,3,1,2,180,0,0,0.5966647999957786,['y'],2.2476654999991297,1.992,880.9799908999994,,,,,517,18,Woman,Right,
,,,,,,,,,,,,,,,,,517,18,Woman,Right,0,41,0.4,2,0,180,180,0.6811850999947637,['y'],1.1753739999985555,1.97,885.3296543999968,,,,,517,18,Woman,Right,
,,,,,,,,,,,,,,,,,517,18,Woman,Right,0,16,0.4,1,0,-,0,0.37214790000143694,['n'],0.831693300002371,1.97,888.9797936999967,,,,,517,18,Woman,Right,
,,,,,,,,,,,,,,,,,517,18,Woman,Right,0,71,0.15,2,180,0,0,0.410163200001989,['y'],1.0958954000016092,1.97,892.8136803000016,,,,,517,18,Woman,Right,
,,,,,,,,,,,,,,,,,517,18,Woman,Right,0,28,0.4,1,0,-,0,0.6250298000013572,['y'],0.7997906000018702,1.968,896.5139471000002,,,,,517,18,Woman,Right,
,,,,,,,,,,,,,,,,,517,18,Woman,Right,0,10,0.4,1,180,-,180,1.1561728000015137,['n'],0.9273420000026817,1.97,900.9961635,,,,,517,18,Woman,Right,
,,,,,,,,,,,,,,,,,517,18,Woman,Right,0,7,1,2,180,0,0,0.32824149999942165,['y'],0.8794892000005348,1.97,904.7128759999978,,,,,517,18,Woman,Right,
,,,,,,,,,,,,,,,,,517,18,Woman,Right,0,27,0.4,2,180,0,0,0.33838359999936074,['y'],0.7037636000022758,1.962,908.929859099997,,,,,517,18,Woman,Right,
,,,,,,,,,,,,,,,,,517,18,Woman,Right,0,51,0.15,2,180,0,0,2.2838702000008198,['n'],0.5912726000024122,1.6360000000000001,915.329541799998,,,,,517,18,Woman,Right,
,,,,,,,,,,,,,,,,,517,18,Woman,Right,0,50,0.15,1,180,-,180,1.6139660000044387,['y'],0.863950200000545,1.8,920.4305507000026,,,,,517,18,Woman,Right,
,,,,,,,,,,,,,,,,,517,18,Woman,Right,0,20,0.4,1,0,-,0,0.9450775000004796,['n'],0.7839194999978645,1.91,925.262893500003,,,,,517,18,Woman,Right,
,,,,,,,,,,,,,,,,,517,18,Woman,Right,0,38,0.4,1,180,-,180,2.186214800000016,['y'],1.4549421000047005,1.69,931.8127441999968,,,,,517,18,Woman,Right,
,,,,,,,,,,,,,,,,,517,18,Woman,Right,0,49,0.15,2,0,180,180,1.7966063999992912,['y'],1.08821860000171,1.942,938.2960386999985,,,,,517,18,Woman,Right,
,,,,,,,,,,,,,,,,,517,18,Woman,Right,0,53,0.15,2,0,180,0,0.9093827999968198,['y'],0.8785917999994126,1.92,942.3960881000021,,,,,517,18,Woman,Right,
,,,,,,,,,,,,,,,,,517,18,Woman,Right,0,21,0.4,2,0,180,180,0.6511013999988791,['y'],1.3517294000048423,1.932,946.8635828999977,,,,,517,18,Woman,Right,
,,,,,,,,,,,,,,,,,517,18,Woman,Right,0,19,0.4,2,180,0,180,0.5028482000052463,['y'],1.1666977000058978,1.964,951.3633150000023,,,,,517,18,Woman,Right,
,,,,,,,,,,,,,,,,,517,18,Woman,Right,0,65,0.15,2,0,180,180,0.4803500999987591,['n'],1.039574000002176,1.964,955.397461200002,,,,,517,18,Woman,Right,
,,,,,,,,,,,,,,,,,517,18,Woman,Right,0,78,0.15,1,180,-,180,0.7194316000022809,['n'],0.807862000001478,1.962,959.2961006999976,,,,,517,18,Woman,Right,
,,,,,,,,,,,,,,,,,517,18,Woman,Right,0,39,0.4,2,180,0,0,0.3469117999993614,['y'],1.3271268000025884,1.95,964.0461547000014,,,,,517,18,Woman,Right,
,,,,,,,,,,,,,,,,,517,18,Woman,Right,0,45,0.15,2,0,180,0,0.5256021000022884,['y'],0.7362327000009827,1.95,968.0292331000019,,,,,517,18,Woman,Right,
,,,,,,,,,,,,,,,,,517,18,Woman,Right,0,22,0.4,1,180,-,180,0.4088389000025927,['y'],3.41552159999992,1.8479999999999999,975.9797848000017,,,,,517,18,Woman,Right,
,,,,,,,,,,,,,,,,,517,18,Woman,Right,0,72,0.15,1,0,-,0,1.161866900001769,['n'],2.2796206999992137,1.926,982.6137887000004,,,,,517,18,Woman,Right,
,,,,,,,,,,,,,,,,,517,18,Woman,Right,0,25,0.4,2,0,180,180,0.565685499997926,['n'],1.8878206000008504,1.908,987.4795114000008,,,,,517,18,Woman,Right,
,,,,,,,,,,,,,,,,,517,18,Woman,Right,0,2,1,1,180,-,0,0.33476189999782946,['y'],1.1671314999985043,1.968,991.5790949000002,,,,,517,18,Woman,Right,
,,,,,,,,,,,,,,,,,517,18,Woman,Right,0,24,0.4,1,0,-,0,0.4668563999948674,['y'],1.239759399999457,1.96,995.6294668999981,,,,,517,18,Woman,Right,
,,,,,,,,,,,,,,,,,517,18,Woman,Right,0,43,0.4,2,180,0,0,0.3334328999990248,['y'],0.9756630999982008,1.96,999.3464422999969,,,,,517,18,Woman,Right,
,,,,,,,,,,,,,,,,,517,18,Woman,Right,0,18,0.4,1,180,-,0,0.3169934999968973,['y'],0.4605694999991101,1.968,1003.3642636000004,,,,,517,18,Woman,Right,
,,,,,,,,,,,,,,,,,517,18,Woman,Right,0,74,0.15,1,180,-,0,0.4065859000038472,['y'],0.8155250999989221,1.968,1007.1131846999997,,,,,517,18,Woman,Right,
,,,,,,,,,,,,,,,,,517,18,Woman,Right,0,17,0.4,2,0,180,180,0.35367410000617383,['y'],0.471398900001077,1.968,1011.2623643999978,,,,,517,18,Woman,Right,
,,,,,,,,,,,,,,,,,517,18,Woman,Right,0,23,0.4,2,180,0,0,0.5437598999997135,['y'],1.0235295000020415,1.928,1015.7630558000019,,,,,517,18,Woman,Right,
,,,,,,,,,,,,,,,,,517,18,Woman,Right,0,63,0.15,2,180,0,180,0.43259779999789316,['y'],0.6160040999966441,1.956,1019.3463112000027,,,,,517,18,Woman,Right,
,,,,,,,,,,,,,,,,,517,18,Woman,Right,0,57,0.15,2,0,180,180,0.40408880000177305,['y'],0.5596027999999933,1.956,1023.0456001999992,,,,,517,18,Woman,Right,
,,,,,,,,,,,,,,,,,517,18,Woman,Right,0,29,0.4,2,0,180,0,0.3091201999995974,['y'],0.7122065000003204,1.96,1026.4789133000013,,,,,517,18,Woman,Right,
,,,,,,,,,,,,,,,,,517,18,Woman,Right,0,54,0.15,1,180,-,0,0.3479490999961854,['y'],3.2078366999994614,1.96,1032.4287887999963,,,,,517,18,Woman,Right,
,,,,,,,,,,,,,,,,,517,18,Woman,Right,0,11,0.4,2,180,0,0,0.3677072999998927,['y'],0.8790653999967617,1.952,1037.280297899997,,,,,517,18,Woman,Right,
,,,,,,,,,,,,,,,,,517,18,Woman,Right,0,75,0.15,2,180,0,0,0.3259170999954222,['y'],1.0317142000058084,1.95,1041.8287182999993,,,,,517,18,Woman,Right,
,,,,,,,,,,,,,,,,,517,18,Woman,Right,0,44,0.15,1,0,-,0,0.344042000004265,['y'],0.7596804999993765,1.948,1045.3290282000016,,,,,517,18,Woman,Right,
,,,,,,,,,,,,,,,,,517,18,Woman,Right,0,31,0.4,2,180,0,180,0.5953873999969801,['y'],0.599847100005718,1.948,1048.962350599999,,,,,517,18,Woman,Right,
,,,,,,,,,,,,,,,,,517,18,Woman,Right,0,70,0.15,1,180,-,0,0.506250500002352,['y'],0.5039914000008139,1.948,1052.5794765999963,,,,,517,18,Woman,Right,
,,,,,,,,,,,,,,,,,517,18,Woman,Right,0,33,0.4,2,0,180,180,0.45310890000109794,['y'],0.383517700000084,1.936,1055.8792519999988,,,,,517,18,Woman,Right,
,,,,,,,,,,,,,,,,,517,18,Woman,Right,0,37,0.4,2,0,180,180,0.43355760000122245,['y'],0.40599939999810886,1.928,1059.3620401000007,,,,,517,18,Woman,Right,
,,,,,,,,,,,,,,,,,517,18,Woman,Right,0,42,0.4,1,180,-,180,1.1575106000018422,['y'],0.6000745999990613,1.8980000000000001,1063.9970404999985,,,,,517,18,Woman,Right,
,,,,,,,,,,,,,,,,,517,18,Woman,Right,0,56,0.15,1,0,-,0,0.4103977999984636,['y'],0.5518436999991536,1.908,1067.4640484999982,,,,,517,18,Woman,Right,
,,,,,,,,,,,,,,,,,517,18,Woman,Right,0,69,0.15,2,0,180,180,3.2610232000006363,['y'],2.1994992999971146,1.3980000000000001,1076.0785095000028,,,,,517,18,Woman,Right,
,,,,,,,,,,,,,,,,,517,18,Woman,Right,0,32,0.4,1,0,-,0,0.5298887999961153,['y'],0.9125165000004927,1.986,1080.6300258999981,,,,,517,18,Woman,Right,
,,,,,,,,,,,,,,,,,517,18,Woman,Right,0,55,0.15,2,180,0,0,0.7903167000040412,['y'],1.9115744999944582,1.958,1086.279282800002,,,,,517,18,Woman,Right,
,,,,,,,,,,,,,,,,,517,18,Woman,Right,0,5,1,2,0,180,180,1.0510391000061645,['y'],1.7676952999972855,1.96,1092.9792197999996,,,,,517,18,Woman,Right,
,,,,,,,,,,,,,,,,,517,18,Woman,Right,1,68,0.15,1,0,-,180,0.8417727000050945,['n'],2.6874210000023595,1.926,1131.895217899997,71.25,35.0,82.5,,517,18,Woman,Right,
,,,,,,,,,,,,,,,,,517,18,Woman,Right,1,59,0.15,2,180,0,180,0.4303933999981382,['y'],1.8632448999996996,1.926,1136.4448800999962,,,,,517,18,Woman,Right,
,,,,,,,,,,,,,,,,,517,18,Woman,Right,1,36,0.4,1,0,-,0,0.4332635000027949,['y'],0.5840765999964788,1.926,1139.8292978999962,,,,,517,18,Woman,Right,
,,,,,,,,,,,,,,,,,517,18,Woman,Right,1,42,0.4,1,180,-,180,0.6109301000033156,['y'],0.9839449999999488,1.926,1143.9449877000006,,,,,517,18,Woman,Right,
,,,,,,,,,,,,,,,,,517,18,Woman,Right,1,64,0.15,1,0,-,180,1.2603359000058845,['n'],0.5514623999988544,1.518,1149.1282429999992,,,,,517,18,Woman,Right,
,,,,,,,,,,,,,,,,,517,18,Woman,Right,1,47,0.15,2,180,0,180,0.8883413000003202,['y'],1.7277408000009018,1.704,1154.8617147999976,,,,,517,18,Woman,Right,
,,,,,,,,,,,,,,,,,517,18,Woman,Right,1,19,0.4,2,180,0,180,2.6249370000005,['y'],1.783071600002586,1.718,1161.7955852000014,,,,,517,18,Woman,Right,
,,,,,,,,,,,,,,,,,517,18,Woman,Right,1,7,1,2,180,0,0,0.3607996999999159,['y'],0.9594072000036249,1.722,1165.4788858999964,,,,,517,18,Woman,Right,
,,,,,,,,,,,,,,,,,517,18,Woman,Right,1,4,1,1,0,-,0,1.0740734999999404,['n'],0.5119489999997313,1.8479999999999999,1169.7780646999963,,,,,517,18,Woman,Right,
,,,,,,,,,,,,,,,,,517,18,Woman,Right,1,60,0.15,1,0,-,180,1.1358376999996835,['n'],0.7113530999995419,1.8479999999999999,1174.0114785999976,,,,,517,18,Woman,Right,
,,,,,,,,,,,,,,,,,517,18,Woman,Right,1,23,0.4,2,180,0,180,1.1053682999990997,['n'],0.7836410999952932,1.726,1178.4280072999973,,,,,517,18,Woman,Right,
,,,,,,,,,,,,,,,,,517,18,Woman,Right,1,55,0.15,2,180,0,180,0.8756137999953353,['n'],0.6716807999982848,1.818,1182.4449313000005,,,,,517,18,Woman,Right,
,,,,,,,,,,,,,,,,,517,18,Woman,Right,1,43,0.4,2,180,0,0,0.46932809999998426,['y'],0.8796766999948886,1.93,1186.5280284999972,,,,,517,18,Woman,Right,
,,,,,,,,,,,,,,,,,517,18,Woman,Right,1,35,0.4,2,180,0,0,0.5067004000011366,['y'],0.8395056000008481,1.874,1190.3280417999995,,,,,517,18,Woman,Right,
,,,,,,,,,,,,,,,,,517,18,Woman,Right,1,33,0.4,2,0,180,180,0.9488857000033022,['y'],0.775326099996164,1.8719999999999999,1194.2780499,,,,,517,18,Woman,Right,
,,,,,,,,,,,,,,,,,517,18,Woman,Right,1,3,1,2,180,0,180,0.512005800002953,['y'],1.11962130000029,1.8639999999999999,1198.0953272999977,,,,,517,18,Woman,Right,
,,,,,,,,,,,,,,,,,517,18,Woman,Right,1,31,0.4,2,180,0,0,0.4228737000012188,['y'],0.5839478000052623,1.8639999999999999,1201.5116156000004,,,,,517,18,Woman,Right,
,,,,,,,,,,,,,,,,,517,18,Woman,Right,1,15,0.4,2,180,0,0,0.38797019999765325,['y'],0.7910430000047199,1.866,1205.078625299997,,,,,517,18,Woman,Right,
,,,,,,,,,,,,,,,,,517,18,Woman,Right,1,40,0.4,1,0,-,0,0.668008299995563,['n'],0.9441045999992639,1.866,1209.0451409000016,,,,,517,18,Woman,Right,
,,,,,,,,,,,,,,,,,517,18,Woman,Right,1,5,1,2,0,180,180,0.3548272000043653,['y'],0.5280208999975002,1.866,1212.277922100002,,,,,517,18,Woman,Right,
,,,,,,,,,,,,,,,,,517,18,Woman,Right,1,6,1,1,180,-,180,0.725807499999064,['n'],0.5431549000059022,1.96,1216.845762500001,,,,,517,18,Woman,Right,
,,,,,,,,,,,,,,,,,517,18,Woman,Right,1,74,0.15,1,180,-,180,0.6801634000003105,['n'],0.8638363999998546,1.87,1220.6444734999968,,,,,517,18,Woman,Right,
,,,,,,,,,,,,,,,,,517,18,Woman,Right,1,70,0.15,1,180,-,0,1.7134681999959867,['y'],0.8963335000007646,1.908,1226.645929899998,,,,,517,18,Woman,Right,
,,,,,,,,,,,,,,,,,517,18,Woman,Right,1,71,0.15,2,180,0,0,0.4360740000047372,['n'],0.8082712000032188,1.874,1230.2951870999968,,,,,517,18,Woman,Right,
,,,,,,,,,,,,,,,,,517,18,Woman,Right,1,77,0.15,2,0,180,0,0.6383065999980317,['n'],1.463774399999238,1.8940000000000001,1235.0287039999967,,,,,517,18,Woman,Right,
,,,,,,,,,,,,,,,,,517,18,Woman,Right,1,54,0.15,1,180,-,180,0.5989725000035833,['n'],0.9351324000017485,1.408,1239.8114808000028,,,,,517,18,Woman,Right,
,,,,,,,,,,,,,,,,,517,18,Woman,Right,1,14,0.4,1,180,-,0,0.7406835000001593,['n'],1.26358849999815,1.204,1244.8614052999983,,,,,517,18,Woman,Right,
,,,,,,,,,,,,,,,,,517,18,Woman,Right,1,30,0.4,1,180,-,0,1.6080985000007786,['n'],1.1596815999946557,1.054,1250.644809999998,,,,,517,18,Woman,Right,
,,,,,,,,,,,,,,,,,517,18,Woman,Right,1,39,0.4,2,180,0,180,0.8781826000049477,['y'],1.1596805999943172,1.562,1256.1612100999992,,,,,517,18,Woman,Right,
,,,,,,,,,,,,,,,,,517,18,Woman,Right,1,75,0.15,2,180,0,0,2.2581255999975838,['y'],1.8395986999967135,1.452,1263.2111212000018,,,,,517,18,Woman,Right,
,,,,,,,,,,,,,,,,,517,18,Woman,Right,1,1,1,2,0,180,180,0.5157026999950176,['y'],0.7515297999998438,1.8980000000000001,1267.5445440999974,,,,,517,18,Woman,Right,
,,,,,,,,,,,,,,,,,517,18,Woman,Right,1,56,0.15,1,0,-,180,3.2634222000051523,['y'],1.1596350000036182,1.346,1275.244486800002,,,,,517,18,Woman,Right,
,,,,,,,,,,,,,,,,,517,18,Woman,Right,1,11,0.4,2,180,0,0,1.0067434000011417,['y'],1.3278239000064787,1.8679999999999999,1280.0277881000002,,,,,517,18,Woman,Right,
,,,,,,,,,,,,,,,,,517,18,Woman,Right,1,0,1,1,0,-,0,2.2122200000012526,['n'],0.7196493000010378,1.954,1286.344487800001,,,,,517,18,Woman,Right,
,,,,,,,,,,,,,,,,,517,18,Woman,Right,1,53,0.15,2,0,180,180,2.3036465999975917,['y'],0.7515582999985781,1.94,1291.9277937000006,,,,,517,18,Woman,Right,
,,,,,,,,,,,,,,,,,517,18,Woman,Right,1,20,0.4,1,0,-,0,1.546089799994661,['y'],3.423688899994886,1.884,1299.6943489999976,,,,,517,18,Woman,Right,
,,,,,,,,,,,,,,,,,517,18,Woman,Right,1,46,0.15,1,180,-,180,3.0043958999958704,['y'],0.6075543999977526,1.93,1305.7610064999972,,,,,517,18,Woman,Right,
,,,,,,,,,,,,,,,,,517,18,Woman,Right,1,22,0.4,1,180,-,180,0.2884193999998388,['n'],0.783447800000431,1.908,1314.7777824000004,,,,,517,18,Woman,Right,
,,,,,,,,,,,,,,,,,517,18,Woman,Right,1,73,0.15,2,0,180,180,1.5170789999974659,['n'],0.39161869999952614,1.83,1319.4111181999979,,,,,517,18,Woman,Right,
,,,,,,,,,,,,,,,,,517,18,Woman,Right,1,18,0.4,1,180,-,180,1.0479755999986082,['y'],0.8873668000014732,1.764,1323.8439209999997,,,,,517,18,Woman,Right,
,,,,,,,,,,,,,,,,,517,18,Woman,Right,1,44,0.15,1,0,-,0,4.538358999998309,['y'],2.1835725999990245,1.4140000000000001,1333.7279127000002,,,,,517,18,Woman,Right,
,,,,,,,,,,,,,,,,,517,18,Woman,Right,1,28,0.4,1,0,-,0,0.5126850000015111,['n'],0.7119669999956386,1.928,1337.7773463999984,,,,,517,18,Woman,Right,
,,,,,,,,,,,,,,,,,517,18,Woman,Right,1,38,0.4,1,180,-,180,1.5331374000015785,['y'],0.8153281999984756,1.802,1342.7778236000013,,,,,517,18,Woman,Right,
,,,,,,,,,,,,,,,,,517,18,Woman,Right,1,79,0.15,2,180,0,0,1.348029000000679,['y'],0.695494300001883,1.802,1347.027210100001,,,,,517,18,Woman,Right,
,,,,,,,,,,,,,,,,,517,18,Woman,Right,1,26,0.4,1,180,-,180,0.5700215000033495,['n'],1.3435959000053117,1.802,1351.2278394000023,,,,,517,18,Woman,Right,
,,,,,,,,,,,,,,,,,517,18,Woman,Right,1,21,0.4,2,0,180,180,0.4724629999982426,['n'],0.9759379000024637,1.802,1355.2271276999963,,,,,517,18,Woman,Right,
,,,,,,,,,,,,,,,,,517,18,Woman,Right,1,51,0.15,2,180,0,180,1.3388747999997577,['n'],0.5759019000033732,2.0,1360.1444220999983,,,,,517,18,Woman,Right,
,,,,,,,,,,,,,,,,,517,18,Woman,Right,1,58,0.15,1,180,-,180,1.5353252000059001,['n'],0.6561686999993981,1.566,1365.8443049999987,,,,,517,18,Woman,Right,
,,,,,,,,,,,,,,,,,517,18,Woman,Right,1,50,0.15,1,180,-,180,1.9556286000006367,['y'],0.9277002999951947,1.866,1370.9777934000012,,,,,517,18,Woman,Right,
,,,,,,,,,,,,,,,,,517,18,Woman,Right,1,76,0.15,1,0,-,0,1.7949601000000257,['y'],1.3678501000031247,1.8780000000000001,1376.9437229999967,,,,,517,18,Woman,Right,
,,,,,,,,,,,,,,,,,517,18,Woman,Right,1,61,0.15,2,0,180,0,6.63582669999596,['y'],0.920292700000573,1.866,1386.8777832999986,,,,,517,18,Woman,Right,
,,,,,,,,,,,,,,,,,517,18,Woman,Right,1,29,0.4,2,0,180,0,5.127896899997722,['y'],0.926642799997353,1.5819999999999999,1396.2774867999979,,,,,517,18,Woman,Right,
,,,,,,,,,,,,,,,,,517,18,Woman,Right,1,34,0.4,1,180,-,180,0.9039925000033691,['n'],0.7438514000023133,1.67,1401.7942580000017,,,,,517,18,Woman,Right,
,,,,,,,,,,,,,,,,,517,18,Woman,Right,1,12,0.4,1,0,-,180,0.8011145000054967,['n'],7.064171799996984,1.684,1412.3268796999982,,,,,517,18,Woman,Right,
,,,,,,,,,,,,,,,,,517,18,Woman,Right,1,8,0.4,1,0,-,180,0.5189356999981101,['n'],0.807972399998107,1.684,1415.8934614999962,,,,,517,18,Woman,Right,
,,,,,,,,,,,,,,,,,517,18,Woman,Right,1,2,1,1,180,-,180,0.20048289999976987,['n'],1.958253999997396,1.684,1420.3768685999967,,,,,517,18,Woman,Right,
,,,,,,,,,,,,,,,,,517,18,Woman,Right,1,66,0.15,1,180,-,0,2.8657388999999966,['y'],0.9759022000071127,1.774,1426.6100007999994,,,,,517,18,Woman,Right,
,,,,,,,,,,,,,,,,,517,18,Woman,Right,1,63,0.15,2,180,0,180,0.9416532000032021,['n'],0.6554159000006621,1.776,1430.3940768999964,,,,,517,18,Woman,Right,
,,,,,,,,,,,,,,,,,517,18,Woman,Right,1,41,0.4,2,0,180,180,1.2023723000020254,['y'],0.663631000003079,1.892,1435.0273944,,,,,517,18,Woman,Right,
,,,,,,,,,,,,,,,,,517,18,Woman,Right,1,27,0.4,2,180,0,0,0.859456099999079,['y'],2.9115511999989394,1.876,1441.411198599999,,,,,517,18,Woman,Right,
,,,,,,,,,,,,,,,,,517,18,Woman,Right,1,52,0.15,1,0,-,0,0.828375999997661,['n'],0.6155138000031002,1.858,1445.310190199998,,,,,517,18,Woman,Right,
,,,,,,,,,,,,,,,,,517,18,Woman,Right,1,10,0.4,1,180,-,180,0.2593553000042448,['n'],0.9595879000044079,1.8599999999999999,1448.7269012999968,,,,,517,18,Woman,Right,
,,,,,,,,,,,,,,,,,517,18,Woman,Right,1,37,0.4,2,0,180,0,0.7355682999987039,['y'],2.39202810000279,1.624,1454.9266304999983,,,,,517,18,Woman,Right,
,,,,,,,,,,,,,,,,,517,18,Woman,Right,1,67,0.15,2,180,0,0,0.40924229999654926,['y'],0.6154238999952213,2.0,1458.660023999997,,,,,517,18,Woman,Right,
,,,,,,,,,,,,,,,,,517,18,Woman,Right,1,17,0.4,2,0,180,0,0.4959113999939291,['y'],0.7435624999998254,1.972,1462.5100991,,,,,517,18,Woman,Right,
,,,,,,,,,,,,,,,,,517,18,Woman,Right,1,65,0.15,2,0,180,0,0.4145201999999699,['y'],0.5756388000008883,1.998,1466.1766655999963,,,,,517,18,Woman,Right,
,,,,,,,,,,,,,,,,,517,18,Woman,Right,1,62,0.15,1,180,-,0,0.2846817999961786,['y'],0.5756609999953071,1.996,1469.3599002999981,,,,,517,18,Woman,Right,
,,,,,,,,,,,,,,,,,517,18,Woman,Right,1,13,0.4,2,0,180,180,0.4288105000014184,['y'],0.6635569999998552,1.994,1472.8432315000027,,,,,517,18,Woman,Right,
,,,,,,,,,,,,,,,,,517,18,Woman,Right,1,48,0.15,1,0,-,0,0.45173069999873405,['y'],0.9199050999959582,1.994,1476.376763799999,,,,,517,18,Woman,Right,
,,,,,,,,,,,,,,,,,517,18,Woman,Right,1,49,0.15,2,0,180,0,0.4423367000053986,['y'],0.42322969999804627,1.994,1479.6597037000029,,,,,517,18,Woman,Right,
,,,,,,,,,,,,,,,,,517,18,Woman,Right,1,78,0.15,1,180,-,180,0.6171499999982188,['n'],0.7116896000006818,1.994,1483.9763902999985,,,,,517,18,Woman,Right,
,,,,,,,,,,,,,,,,,517,18,Woman,Right,1,9,0.4,2,0,180,180,0.49998279999999795,['y'],0.512358599997242,1.994,1487.5432952999981,,,,,517,18,Woman,Right,
,,,,,,,,,,,,,,,,,517,18,Woman,Right,1,25,0.4,2,0,180,180,0.36479079999844544,['y'],0.41589550000207964,1.994,1490.8597949999967,,,,,517,18,Woman,Right,
,,,,,,,,,,,,,,,,,517,18,Woman,Right,1,57,0.15,2,0,180,0,0.33430090000183554,['y'],0.47221759999956703,1.994,1494.2763276999976,,,,,517,18,Woman,Right,
,,,,,,,,,,,,,,,,,517,18,Woman,Right,1,32,0.4,1,0,-,180,0.6448959000044852,['y'],0.7119187000062084,1.994,1497.909671100002,,,,,517,18,Woman,Right,
,,,,,,,,,,,,,,,,,517,18,Woman,Right,1,72,0.15,1,0,-,0,1.5759113000021898,['n'],0.6156561999960104,1.5779999999999998,1503.4597166000021,,,,,517,18,Woman,Right,
,,,,,,,,,,,,,,,,,517,18,Woman,Right,1,24,0.4,1,0,-,180,0.5753620999967097,['y'],2.7199810999954934,1.418,1510.4595695000025,,,,,517,18,Woman,Right,
,,,,,,,,,,,,,,,,,517,18,Woman,Right,1,45,0.15,2,0,180,180,0.5532994000022882,['y'],4.15981670000474,1.8980000000000001,1517.7277982000014,,,,,517,18,Woman,Right,
,,,,,,,,,,,,,,,,,517,18,Woman,Right,1,69,0.15,2,0,180,180,0.5848938999988604,['y'],0.4635444999948959,1.83,1521.1098397000023,,,,,517,18,Woman,Right,
,,,,,,,,,,,,,,,,,517,18,Woman,Right,1,16,0.4,1,0,-,180,0.38414339999872027,['y'],0.9198462999993353,1.83,1524.7761604999978,,,,,517,18,Woman,Right,
,,,,,,,,,,,,,,,,,517,18,Woman,Right,2,21,0.4,2,0,180,180,0.5014469000016106,['y'],0.6881334999998217,1.928,1546.9433788999959,61.25,57.5,80.0,,517,18,Woman,Right,
,,,,,,,,,,,,,,,,,517,18,Woman,Right,2,34,0.4,1,180,-,180,1.1100157000037143,['n'],0.4239000000015949,1.928,1550.7428319999963,,,,,517,18,Woman,Right,
,,,,,,,,,,,,,,,,,517,18,Woman,Right,2,15,0.4,2,180,0,0,0.4560444999951869,['n'],0.5113123999981326,1.928,1553.8426467000027,,,,,517,18,Woman,Right,
,,,,,,,,,,,,,,,,,517,18,Woman,Right,2,31,0.4,2,180,0,0,0.40959299999667564,['n'],0.5045215000063763,1.608,1558.0595219000024,,,,,517,18,Woman,Right,
,,,,,,,,,,,,,,,,,517,18,Woman,Right,2,56,0.15,1,0,-,180,0.34107480000238866,['n'],0.710902899998473,1.722,1561.3093920000028,,,,,517,18,Woman,Right,
,,,,,,,,,,,,,,,,,517,18,Woman,Right,2,29,0.4,2,0,180,180,0.539165399997728,['y'],0.4154139000020223,1.916,1564.7093488000028,,,,,517,18,Woman,Right,
,,,,,,,,,,,,,,,,,517,18,Woman,Right,2,71,0.15,2,180,0,180,0.5743921999965096,['n'],1.9836639999994077,1.914,1569.7093603999965,,,,,517,18,Woman,Right,
,,,,,,,,,,,,,,,,,517,18,Woman,Right,2,35,0.4,2,180,0,180,0.37946070000180043,['y'],0.43955909999931464,1.8980000000000001,1572.7759430000006,,,,,517,18,Woman,Right,
,,,,,,,,,,,,,,,,,517,18,Woman,Right,2,16,0.4,1,0,-,180,0.32179489999543875,['y'],1.4644858000028762,1.9020000000000001,1576.8767807999975,,,,,517,18,Woman,Right,
,,,,,,,,,,,,,,,,,517,18,Woman,Right,2,0,1,1,0,-,180,0.5040413000024273,['y'],0.8077016999959596,1.9020000000000001,1580.559228799997,,,,,517,18,Woman,Right,
,,,,,,,,,,,,,,,,,517,18,Woman,Right,2,9,0.4,2,0,180,180,0.34895899999537505,['y'],0.4237162999997963,1.9020000000000001,1583.6257965999976,,,,,517,18,Woman,Right,
,,,,,,,,,,,,,,,,,517,18,Woman,Right,2,46,0.15,1,180,-,180,0.3048501000012038,['y'],0.5120411999960197,1.9020000000000001,1587.0258044000002,,,,,517,18,Woman,Right,
,,,,,,,,,,,,,,,,,517,18,Woman,Right,2,62,0.15,1,180,-,180,1.2158152999982121,['n'],0.36755680000351276,1.9020000000000001,1590.9591600999993,,,,,517,18,Woman,Right,
,,,,,,,,,,,,,,,,,517,18,Woman,Right,2,61,0.15,2,0,180,180,1.0495179999998072,['n'],0.752215200001956,1.9020000000000001,1595.176518100001,,,,,517,18,Woman,Right,
,,,,,,,,,,,,,,,,,517,18,Woman,Right,2,64,0.15,1,0,-,180,0.7333389999985229,['n'],1.2795324999970035,1.9060000000000001,1600.0091564999966,,,,,517,18,Woman,Right,
,,,,,,,,,,,,,,,,,517,18,Woman,Right,2,73,0.15,2,0,180,180,1.208951699998579,['n'],0.792065100002219,1.6480000000000001,1604.692920100002,,,,,517,18,Woman,Right,
,,,,,,,,,,,,,,,,,517,18,Woman,Right,2,32,0.4,1,0,-,0,0.3329384999960894,['n'],0.7762733000054141,1.954,1608.9263594000004,,,,,517,18,Woman,Right,
,,,,,,,,,,,,,,,,,517,18,Woman,Right,2,54,0.15,1,180,-,180,2.5113698999994085,['y'],0.9033447000037995,1.772,1614.9590093000006,,,,,517,18,Woman,Right,
,,,,,,,,,,,,,,,,,517,18,Woman,Right,2,55,0.15,2,180,0,0,2.6531027000019094,['y'],0.6240471999990405,1.8900000000000001,1620.8089575999984,,,,,517,18,Woman,Right,
,,,,,,,,,,,,,,,,,517,18,Woman,Right,2,36,0.4,1,0,-,0,1.495146900000691,['y'],0.43114880000211997,1.922,1624.959079799999,,,,,517,18,Woman,Right,
,,,,,,,,,,,,,,,,,517,18,Woman,Right,2,44,0.15,1,0,-,0,3.280187399999704,['y'],0.9668057000017143,1.952,1632.592235899996,,,,,517,18,Woman,Right,
,,,,,,,,,,,,,,,,,517,18,Woman,Right,2,79,0.15,2,180,0,0,1.7396678000004613,['y'],0.895433800003957,1.9020000000000001,1638.1266539999997,,,,,517,18,Woman,Right,
,,,,,,,,,,,,,,,,,517,18,Woman,Right,2,58,0.15,1,180,-,180,0.48526989999663783,['n'],0.7676024000029429,1.8860000000000001,1641.4928528000019,,,,,517,18,Woman,Right,
,,,,,,,,,,,,,,,,,517,18,Woman,Right,2,77,0.15,2,0,180,180,0.8258296999993036,['n'],0.7196239000040805,1.8980000000000001,1645.2097635000027,,,,,517,18,Woman,Right,
,,,,,,,,,,,,,,,,,517,18,Woman,Right,2,41,0.4,2,0,180,180,1.9674287000016193,['n'],0.5270062000054168,1.896,1649.8774142999973,,,,,517,18,Woman,Right,
,,,,,,,,,,,,,,,,,517,18,Woman,Right,2,47,0.15,2,180,0,180,1.4648222999967402,['n'],1.5030323000028147,1.888,1654.9928770999977,,,,,517,18,Woman,Right,
,,,,,,,,,,,,,,,,,517,18,Woman,Right,2,8,0.4,1,0,-,0,0.4500848999959999,['n'],0.624523999998928,1.8900000000000001,1658.3257432999962,,,,,517,18,Woman,Right,
,,,,,,,,,,,,,,,,,517,18,Woman,Right,2,4,1,1,0,-,180,0.16925679999985732,['n'],0.6958384000026854,1.8820000000000001,1662.209206200001,,,,,517,18,Woman,Right,
,,,,,,,,,,,,,,,,,517,18,Woman,Right,2,13,0.4,2,0,180,180,1.3649004999970202,['n'],0.7274684000003617,1.986,1666.5587104000006,,,,,517,18,Woman,Right,
,,,,,,,,,,,,,,,,,517,18,Woman,Right,2,40,0.4,1,0,-,180,1.886529099996551,['y'],0.40788729999621864,1.558,1671.5252709999986,,,,,517,18,Woman,Right,
,,,,,,,,,,,,,,,,,517,18,Woman,Right,2,19,0.4,2,180,0,180,1.0682211000021198,['n'],0.6713868000006187,1.8820000000000001,1676.0760415999976,,,,,517,18,Woman,Right,
,,,,,,,,,,,,,,,,,517,18,Woman,Right,2,39,0.4,2,180,0,0,0.5273369000060484,['y'],0.5510427999979584,1.814,1679.4761351999987,,,,,517,18,Woman,Right,
,,,,,,,,,,,,,,,,,517,18,Woman,Right,2,38,0.4,1,180,-,0,0.6198573000001488,['y'],0.7912642000010237,1.826,1683.076081799998,,,,,517,18,Woman,Right,
,,,,,,,,,,,,,,,,,517,18,Woman,Right,2,66,0.15,1,180,-,0,0.3966530000034254,['y'],0.8631526999961352,1.834,1686.4593286000018,,,,,517,18,Woman,Right,
,,,,,,,,,,,,,,,,,517,18,Woman,Right,2,28,0.4,1,0,-,180,0.32854230000521056,['n'],0.6562098000067635,1.834,1689.6752545999989,,,,,517,18,Woman,Right,
,,,,,,,,,,,,,,,,,517,18,Woman,Right,2,43,0.4,2,180,0,0,0.41559480000432814,['y'],1.9039988000004087,1.938,1694.5093504999968,,,,,517,18,Woman,Right,
,,,,,,,,,,,,,,,,,517,18,Woman,Right,2,7,1,2,180,0,0,0.34429739999904996,['y'],0.8713532999972813,1.926,1698.1585692000008,,,,,517,18,Woman,Right,
,,,,,,,,,,,,,,,,,517,18,Woman,Right,2,69,0.15,2,0,180,180,2.5575526999964495,['n'],0.8231605000037234,1.616,1704.842484599998,,,,,517,18,Woman,Right,
,,,,,,,,,,,,,,,,,517,18,Woman,Right,2,70,0.15,1,180,-,0,0.3522597000046517,['y'],0.6720716999989236,1.996,1708.9425561000025,,,,,517,18,Woman,Right,
,,,,,,,,,,,,,,,,,517,18,Woman,Right,2,49,0.15,2,0,180,0,1.3880146000010427,['y'],1.2960815999977058,1.982,1714.3917915999991,,,,,517,18,Woman,Right,
,,,,,,,,,,,,,,,,,517,18,Woman,Right,2,52,0.15,1,0,-,180,0.9265060000034282,['y'],1.7208988999991561,1.962,1719.1917812000029,,,,,517,18,Woman,Right,
,,,,,,,,,,,,,,,,,517,18,Woman,Right,2,25,0.4,2,0,180,0,1.2397292999958154,['y'],1.1917058999970322,1.992,1723.7251391000027,,,,,517,18,Woman,Right,
,,,,,,,,,,,,,,,,,517,18,Woman,Right,2,45,0.15,2,0,180,180,0.6899440999986837,['n'],0.7753768999973545,1.976,1727.3249719000014,,,,,517,18,Woman,Right,
,,,,,,,,,,,,,,,,,517,18,Woman,Right,2,60,0.15,1,0,-,0,2.447959900004207,['y'],1.8396886000045924,1.342,1734.8424812000012,,,,,517,18,Woman,Right,
,,,,,,,,,,,,,,,,,517,18,Woman,Right,2,67,0.15,2,180,0,180,2.0790513000029023,['y'],0.5837879000027897,1.65,1740.8265938999975,,,,,517,18,Woman,Right,
,,,,,,,,,,,,,,,,,517,18,Woman,Right,2,18,0.4,1,180,-,0,1.4267079999990528,['y'],1.8072723000004771,1.342,1747.275803299999,,,,,517,18,Woman,Right,
,,,,,,,,,,,,,,,,,517,18,Woman,Right,2,33,0.4,2,0,180,180,1.3185496000005514,['y'],0.6236542999977246,1.94,1754.0757094,,,,,517,18,Woman,Right,
,,,,,,,,,,,,,,,,,517,18,Woman,Right,2,1,1,2,0,180,180,0.5975782000023173,['y'],0.9913778999980423,1.984,1758.1423033999963,,,,,517,18,Woman,Right,
,,,,,,,,,,,,,,,,,517,18,Woman,Right,2,20,0.4,1,0,-,180,0.510550000006333,['y'],1.1277168999949936,1.982,1762.4254973999996,,,,,517,18,Woman,Right,
,,,,,,,,,,,,,,,,,517,18,Woman,Right,2,42,0.4,1,180,-,180,1.4458024999985355,['y'],0.5270833999966271,1.972,1766.6425094000006,,,,,517,18,Woman,Right,
,,,,,,,,,,,,,,,,,517,18,Woman,Right,2,2,1,1,180,-,0,0.4679567999992287,['y'],0.4948605999961728,1.96,1769.842186199996,,,,,517,18,Woman,Right,
,,,,,,,,,,,,,,,,,517,18,Woman,Right,2,74,0.15,1,180,-,0,0.36228790000313893,['y'],0.5200189999959548,1.968,1773.0919635000027,,,,,517,18,Woman,Right,
,,,,,,,,,,,,,,,,,517,18,Woman,Right,2,5,1,2,0,180,180,0.37251950000063516,['y'],0.4956151000005775,1.972,1776.4915064000015,,,,,517,18,Woman,Right,
,,,,,,,,,,,,,,,,,517,18,Woman,Right,2,37,0.4,2,0,180,180,0.48719630000414327,['n'],0.6717368999961764,1.964,1779.9414232999989,,,,,517,18,Woman,Right,
,,,,,,,,,,,,,,,,,517,18,Woman,Right,2,65,0.15,2,0,180,180,1.0949737000046298,['y'],0.42294140000012703,1.896,1783.7087009000024,,,,,517,18,Woman,Right,
,,,,,,,,,,,,,,,,,517,18,Woman,Right,2,10,0.4,1,180,-,180,0.9789737000028254,['n'],0.6474658000006457,1.792,1787.9087386000028,,,,,517,18,Woman,Right,
,,,,,,,,,,,,,,,,,517,18,Woman,Right,2,6,1,1,180,-,180,0.8661474999971688,['n'],0.44000790000427514,1.92,1791.7588203999985,,,,,517,18,Woman,Right,
,,,,,,,,,,,,,,,,,517,18,Woman,Right,2,27,0.4,2,180,0,0,0.3511748000018997,['y'],0.7600512999997591,1.942,1795.358047900001,,,,,517,18,Woman,Right,
,,,,,,,,,,,,,,,,,517,18,Woman,Right,2,26,0.4,1,180,-,0,0.6084435000011581,['y'],1.3430802000002586,2.0,1800.2257613999973,,,,,517,18,Woman,Right,
,,,,,,,,,,,,,,,,,517,18,Woman,Right,2,51,0.15,2,180,0,180,0.4919977000026847,['y'],0.6400675999975647,1.904,1804.4080132000017,,,,,517,18,Woman,Right,
,,,,,,,,,,,,,,,,,517,18,Woman,Right,2,63,0.15,2,180,0,0,0.4874926999982563,['y'],0.42368039999564644,1.94,1808.5422448999961,,,,,517,18,Woman,Right,
,,,,,,,,,,,,,,,,,517,18,Woman,Right,2,11,0.4,2,180,0,180,0.6460139999981038,['n'],0.7917714000068372,1.608,1812.891180300001,,,,,517,18,Woman,Right,
,,,,,,,,,,,,,,,,,517,18,Woman,Right,2,53,0.15,2,0,180,0,0.5961825999984285,['n'],0.7827658999958658,1.384,1816.9412301999982,,,,,517,18,Woman,Right,
,,,,,,,,,,,,,,,,,517,18,Woman,Right,2,14,0.4,1,180,-,180,0.612795000000915,['n'],0.9356917999975849,1.984,1821.8585098999974,,,,,517,18,Woman,Right,
,,,,,,,,,,,,,,,,,517,18,Woman,Right,2,57,0.15,2,0,180,0,0.6672605999992811,['n'],0.9206465000024764,1.9,1825.8086146999995,,,,,517,18,Woman,Right,
,,,,,,,,,,,,,,,,,517,18,Woman,Right,2,30,0.4,1,180,-,0,0.6626065000018571,['y'],0.3913835999992443,1.536,1829.308509399998,,,,,517,18,Woman,Right,
,,,,,,,,,,,,,,,,,517,18,Woman,Right,2,23,0.4,2,180,0,0,0.623770300000615,['y'],0.4159656999981962,1.5979999999999999,1832.6912115000014,,,,,517,18,Woman,Right,
,,,,,,,,,,,,,,,,,517,18,Woman,Right,2,17,0.4,2,0,180,180,0.5241208000006736,['y'],1.983362600003602,1.788,1837.3745771999966,,,,,517,18,Woman,Right,
,,,,,,,,,,,,,,,,,517,18,Woman,Right,2,76,0.15,1,0,-,0,0.6697836000021198,['y'],4.935973700004979,1.704,1846.624418899999,,,,,517,18,Woman,Right,
,,,,,,,,,,,,,,,,,517,18,Woman,Right,2,12,0.4,1,0,-,0,1.7993721999955596,['y'],1.1517081999991206,1.568,1852.3584197000018,,,,,517,18,Woman,Right,
,,,,,,,,,,,,,,,,,517,18,Woman,Right,2,59,0.15,2,180,0,0,0.9568572999996832,['y'],1.1040960000027553,1.124,1857.1250696999996,,,,,517,18,Woman,Right,
,,,,,,,,,,,,,,,,,517,18,Woman,Right,2,75,0.15,2,180,0,0,1.9746118999973987,['y'],0.9675627999968128,1.084,1862.5910774000004,,,,,517,18,Woman,Right,
,,,,,,,,,,,,,,,,,517,18,Woman,Right,2,72,0.15,1,0,-,0,1.6519335999983014,['y'],0.8073943999988842,1.19,1867.8583714999986,,,,,517,18,Woman,Right,
,,,,,,,,,,,,,,,,,517,18,Woman,Right,2,3,1,2,180,0,0,0.44200439999985974,['y'],1.8874672999954782,1.978,1872.8076451000015,,,,,517,18,Woman,Right,
,,,,,,,,,,,,,,,,,517,18,Woman,Right,2,50,0.15,1,180,-,0,1.8950079000060214,['y'],0.9114487000042573,1.748,1877.8577073999986,,,,,517,18,Woman,Right,
,,,,,,,,,,,,,,,,,517,18,Woman,Right,2,22,0.4,1,180,-,0,0.36609909999970114,['y'],2.415172100001655,1.896,1883.8585175999979,,,,,517,18,Woman,Right,
,,,,,,,,,,,,,,,,,517,18,Woman,Right,2,78,0.15,1,180,-,180,1.0176646999971126,['n'],0.5600572999974247,1.3479999999999999,1888.3258182999998,,,,,517,18,Woman,Right,
,,,,,,,,,,,,,,,,,517,18,Woman,Right,2,48,0.15,1,0,-,0,1.1284814999962691,['n'],0.9751678000029642,1.794,1892.740873900002,,,,,517,18,Woman,Right,
,,,,,,,,,,,,,,,,,517,18,Woman,Right,2,68,0.15,1,0,-,0,0.807579699998314,['n'],0.5038549000018975,1.696,1896.8417906999966,,,,,517,18,Woman,Right,
,,,,,,,,,,,,,,,,,517,18,Woman,Right,2,24,0.4,1,0,-,180,1.383027799995034,['y'],0.8316903000013554,1.744,1901.5254340000029,,,,,517,18,Woman,Right,
,,,,,,,,,,,,,,,,,517,18,Woman,Right,3,25,0.4,2,0,180,180,0.4034408000006806,['y'],2.799755100000766,1.768,1930.857465299996,61.25,37.5,60.0,,517,18,Woman,Right,
,,,,,,,,,,,,,,,,,517,18,Woman,Right,3,7,1,2,180,0,0,0.3197833000012906,['y'],1.1029125999993994,1.756,1935.174119700001,,,,,517,18,Woman,Right,
,,,,,,,,,,,,,,,,,517,18,Woman,Right,3,68,0.15,1,0,-,0,0.4553398999996716,['n'],0.5914778999940609,1.756,1938.4915858000022,,,,,517,18,Woman,Right,
,,,,,,,,,,,,,,,,,517,18,Woman,Right,3,65,0.15,2,0,180,0,1.3435719000044628,['y'],0.7918280999947456,1.346,1943.440595699998,,,,,517,18,Woman,Right,
,,,,,,,,,,,,,,,,,517,18,Woman,Right,3,42,0.4,1,180,-,180,1.023051399999531,['y'],0.6714683000027435,1.404,1947.4091484000019,,,,,517,18,Woman,Right,
,,,,,,,,,,,,,,,,,517,18,Woman,Right,3,41,0.4,2,0,180,0,0.7172799999971176,['n'],0.9840923000010662,1.548,1951.557201800002,,,,,517,18,Woman,Right,
,,,,,,,,,,,,,,,,,517,18,Woman,Right,3,37,0.4,2,0,180,180,4.1131852000035,['y'],0.6394297999941045,1.272,1958.6244546000016,,,,,517,18,Woman,Right,
,,,,,,,,,,,,,,,,,517,18,Woman,Right,3,73,0.15,2,0,180,0,1.8822844000023906,['y'],0.9760236000001896,1.798,1966.2245355999985,,,,,517,18,Woman,Right,
,,,,,,,,,,,,,,,,,517,18,Woman,Right,3,0,1,1,0,-,180,1.1700402999995276,['y'],0.5918371000007028,1.5899999999999999,1970.2576227999962,,,,,517,18,Woman,Right,
,,,,,,,,,,,,,,,,,517,18,Woman,Right,3,64,0.15,1,0,-,0,2.091856500002905,['y'],1.9116606000025058,1.1179999999999999,1977.1736569999994,,,,,517,18,Woman,Right,
,,,,,,,,,,,,,,,,,517,18,Woman,Right,3,72,0.15,1,0,-,0,0.7288875000012922,['y'],3.7675508000029367,1.802,1984.5415412000002,,,,,517,18,Woman,Right,
,,,,,,,,,,,,,,,,,517,18,Woman,Right,3,6,1,1,180,-,180,0.5603260000061709,['n'],0.3590170000024955,1.832,1988.423729000002,,,,,517,18,Woman,Right,
,,,,,,,,,,,,,,,,,517,18,Woman,Right,3,31,0.4,2,180,0,0,0.4866632000048412,['y'],0.5038897000049474,1.9,1991.874294299996,,,,,517,18,Woman,Right,
,,,,,,,,,,,,,,,,,517,18,Woman,Right,3,57,0.15,2,0,180,0,2.0800889000020106,['n'],2.59976689999894,1.946,1999.2412438000028,,,,,517,18,Woman,Right,
,,,,,,,,,,,,,,,,,517,18,Woman,Right,3,17,0.4,2,0,180,180,0.7920025999992504,['y'],0.43940350000048056,1.982,2002.6576434000017,,,,,517,18,Woman,Right,
,,,,,,,,,,,,,,,,,517,18,Woman,Right,3,44,0.15,1,0,-,0,2.910898100002669,['n'],0.8236487000031048,1.762,2009.0069504999992,,,,,517,18,Woman,Right,
,,,,,,,,,,,,,,,,,517,18,Woman,Right,3,74,0.15,1,180,-,180,2.0286991000029957,['y'],0.6878448000061326,1.752,2013.9735986000014,,,,,517,18,Woman,Right,
,,,,,,,,,,,,,,,,,517,18,Woman,Right,3,28,0.4,1,0,-,180,0.9998934000032023,['n'],0.7512178999968455,1.75,2018.0403187999982,,,,,517,18,Woman,Right,
,,,,,,,,,,,,,,,,,517,18,Woman,Right,3,75,0.15,2,180,0,0,1.9104502999980468,['y'],1.9518995999969775,1.764,2024.0068971,,,,,517,18,Woman,Right,
,,,,,,,,,,,,,,,,,517,18,Woman,Right,3,78,0.15,1,180,-,180,0.8000543999951333,['n'],0.5666229999987991,1.752,2027.6402276000008,,,,,517,18,Woman,Right,
,,,,,,,,,,,,,,,,,517,18,Woman,Right,3,5,1,2,0,180,180,0.30313899999600835,['n'],0.7591658000019379,1.754,2030.8743892999992,,,,,517,18,Woman,Right,
,,,,,,,,,,,,,,,,,517,18,Woman,Right,3,77,0.15,2,0,180,180,1.3371430000042892,['n'],0.6474124000014854,1.91,2035.2071157999962,,,,,517,18,Woman,Right,
,,,,,,,,,,,,,,,,,517,18,Woman,Right,3,16,0.4,1,0,-,0,0.1726944000038202,['n'],0.7594759999992675,1.916,2039.1900498999967,,,,,517,18,Woman,Right,
,,,,,,,,,,,,,,,,,517,18,Woman,Right,3,66,0.15,1,180,-,180,0.1188516999973217,['n'],0.6394531000041752,1.908,2043.7901665999962,,,,,517,18,Woman,Right,
,,,,,,,,,,,,,,,,,517,18,Woman,Right,3,18,0.4,1,180,-,180,0.22947209999983897,['n'],0.8559930000046734,1.908,2047.3233212999985,,,,,517,18,Woman,Right,
,,,,,,,,,,,,,,,,,517,18,Woman,Right,3,38,0.4,1,180,-,180,0.2330939000021317,['n'],0.43113889999949606,1.908,2050.3240375000023,,,,,517,18,Woman,Right,
,,,,,,,,,,,,,,,,,517,18,Woman,Right,3,76,0.15,1,0,-,180,0.6639150999981211,['n'],0.4237395999953151,1.766,2054.2399855999975,,,,,517,18,Woman,Right,
,,,,,,,,,,,,,,,,,517,18,Woman,Right,3,8,0.4,1,0,-,180,1.2222235000008368,['n'],0.4392636000047787,1.952,2058.740093399996,,,,,517,18,Woman,Right,
,,,,,,,,,,,,,,,,,517,18,Woman,Right,3,60,0.15,1,0,-,0,0.15350970000145026,['n'],0.5353567999991355,1.982,2062.0566228000025,,,,,517,18,Woman,Right,
,,,,,,,,,,,,,,,,,517,18,Woman,Right,3,39,0.4,2,180,0,180,0.3570929999987129,['n'],0.5197608000016771,1.966,2065.273276,,,,,517,18,Woman,Right,
,,,,,,,,,,,,,,,,,517,18,Woman,Right,3,48,0.15,1,0,-,0,2.43518889999541,['y'],0.5845878999971319,2.0,2071.173686599999,,,,,517,18,Woman,Right,
,,,,,,,,,,,,,,,,,517,18,Woman,Right,3,21,0.4,2,0,180,180,1.1072703000027104,['y'],0.37501789999805624,1.928,2078.573169000003,,,,,517,18,Woman,Right,
,,,,,,,,,,,,,,,,,517,18,Woman,Right,3,52,0.15,1,0,-,0,0.26581359999545384,['n'],0.6001771000010194,1.8980000000000001,2081.5731535000014,,,,,517,18,Woman,Right,
,,,,,,,,,,,,,,,,,517,18,Woman,Right,3,4,1,1,0,-,0,0.23937650000152644,['n'],0.5839608000023873,1.94,2085.3398321999994,,,,,517,18,Woman,Right,
,,,,,,,,,,,,,,,,,517,18,Woman,Right,3,10,0.4,1,180,-,180,0.33328220000112196,['y'],0.4521569999997155,1.936,2089.1240991000013,,,,,517,18,Woman,Right,
,,,,,,,,,,,,,,,,,517,18,Woman,Right,3,32,0.4,1,0,-,0,3.5938533000007737,['n'],0.5918151999940164,1.946,2095.6237798,,,,,517,18,Woman,Right,
,,,,,,,,,,,,,,,,,517,18,Woman,Right,3,53,0.15,2,0,180,180,0.6234914000015124,['n'],1.1913423000005423,1.8780000000000001,2099.8571851000015,,,,,517,18,Woman,Right,
,,,,,,,,,,,,,,,,,517,18,Woman,Right,3,30,0.4,1,180,-,180,0.40297329999884823,['n'],0.4321406000017305,1.91,2103.157077099997,,,,,517,18,Woman,Right,
,,,,,,,,,,,,,,,,,517,18,Woman,Right,3,11,0.4,2,180,0,0,0.5841509999954724,['y'],0.4795955000008689,1.908,2106.7237743000005,,,,,517,18,Woman,Right,
,,,,,,,,,,,,,,,,,517,18,Woman,Right,3,3,1,2,180,0,0,0.2899671999985003,['y'],1.271207300000242,1.988,2110.6397254999974,,,,,517,18,Woman,Right,
,,,,,,,,,,,,,,,,,517,18,Woman,Right,3,34,0.4,1,180,-,0,1.2691328000000794,['n'],0.8072174999979325,1.54,2115.523942699998,,,,,517,18,Woman,Right,
,,,,,,,,,,,,,,,,,517,18,Woman,Right,3,69,0.15,2,0,180,0,1.9453152999994927,['y'],1.3834740000020247,1.83,2121.2897353000008,,,,,517,18,Woman,Right,
,,,,,,,,,,,,,,,,,517,18,Woman,Right,3,19,0.4,2,180,0,0,0.3243685999987065,['y'],1.479257899998629,1.806,2125.556856000003,,,,,517,18,Woman,Right,
,,,,,,,,,,,,,,,,,517,18,Woman,Right,3,70,0.15,1,180,-,180,0.39507650000450667,['n'],0.6317757000069832,1.82,2129.3396586000017,,,,,517,18,Woman,Right,
,,,,,,,,,,,,,,,,,517,18,Woman,Right,3,79,0.15,2,180,0,0,1.6014942999972845,['y'],1.320388100000855,1.96,2134.5896520000024,,,,,517,18,Woman,Right,
,,,,,,,,,,,,,,,,,517,18,Woman,Right,3,20,0.4,1,0,-,0,0.296077899998636,['y'],1.2555935999989742,1.9,2138.606372000002,,,,,517,18,Woman,Right,
,,,,,,,,,,,,,,,,,517,18,Woman,Right,3,36,0.4,1,0,-,0,0.4174757000000682,['y'],0.5832516000009491,1.934,2141.839528299999,,,,,517,18,Woman,Right,
,,,,,,,,,,,,,,,,,517,18,Woman,Right,3,63,0.15,2,180,0,0,0.46306039999763016,['y'],0.4958686999962083,1.932,2145.0061225000027,,,,,517,18,Woman,Right,
,,,,,,,,,,,,,,,,,517,18,Woman,Right,3,9,0.4,2,0,180,180,0.5215960999994422,['y'],0.5509616999988793,1.938,2148.2895129000026,,,,,517,18,Woman,Right,
,,,,,,,,,,,,,,,,,517,18,Woman,Right,3,26,0.4,1,180,-,180,0.4460308999987319,['y'],1.4239120000056573,1.936,2152.339455299996,,,,,517,18,Woman,Right,
,,,,,,,,,,,,,,,,,517,18,Woman,Right,3,51,0.15,2,180,0,180,0.4985891999967862,['n'],0.45513880000362406,1.936,2155.6567546000006,,,,,517,18,Woman,Right,
,,,,,,,,,,,,,,,,,517,18,Woman,Right,3,43,0.4,2,180,0,0,1.5453093000032823,['y'],0.5434424999984913,1.862,2160.5236699000016,,,,,517,18,Woman,Right,
,,,,,,,,,,,,,,,,,517,18,Woman,Right,3,46,0.15,1,180,-,180,0.5905389000035939,['n'],0.47200709999742685,1.612,2164.1068209000005,,,,,517,18,Woman,Right,
,,,,,,,,,,,,,,,,,517,18,Woman,Right,3,71,0.15,2,180,0,180,0.5610726999948383,['n'],0.5115492999975686,1.626,2167.539707600001,,,,,517,18,Woman,Right,
,,,,,,,,,,,,,,,,,517,18,Woman,Right,3,22,0.4,1,180,-,180,1.2356078999946476,['y'],0.5360995000010007,1.676,2171.5394242999973,,,,,517,18,Woman,Right,
,,,,,,,,,,,,,,,,,517,18,Woman,Right,3,47,0.15,2,180,0,180,1.0533539000025485,['n'],0.6312627000006614,1.676,2171.5394242999973,,,,,517,18,Woman,Right,
,,,,,,,,,,,,,,,,,517,18,Woman,Right,3,67,0.15,2,180,0,180,1.9745077999978093,['y'],1.0553473999971175,1.754,2180.7905281999992,,,,,517,18,Woman,Right,
,,,,,,,,,,,,,,,,,517,18,Woman,Right,3,2,1,1,180,-,180,0.7595665999979246,['n'],1.7112419999975828,1.818,2185.9565834000023,,,,,517,18,Woman,Right,
,,,,,,,,,,,,,,,,,517,18,Woman,Right,3,27,0.4,2,180,0,0,1.8721082000047318,['y'],0.583913800001028,1.91,2190.7728420999993,,,,,517,18,Woman,Right,
,,,,,,,,,,,,,,,,,517,18,Woman,Right,3,23,0.4,2,180,0,180,0.7302651999998488,['n'],0.41552339999907417,1.766,2194.139240700002,,,,,517,18,Woman,Right,
,,,,,,,,,,,,,,,,,517,18,Woman,Right,3,62,0.15,1,180,-,0,0.7337146000063512,['y'],0.6726043999951798,1.816,2197.623090299996,,,,,517,18,Woman,Right,
,,,,,,,,,,,,,,,,,517,18,Woman,Right,3,1,1,2,0,180,180,1.1912175999968895,['y'],1.8317053999999189,1.888,2202.9725664,,,,,517,18,Woman,Right,
,,,,,,,,,,,,,,,,,517,18,Woman,Right,3,13,0.4,2,0,180,180,0.3479016999990563,['n'],0.40741110000089975,1.992,2206.455884199997,,,,,517,18,Woman,Right,
,,,,,,,,,,,,,,,,,517,18,Woman,Right,3,15,0.4,2,180,0,0,0.9731623000043328,['y'],1.6875377999967895,1.972,2211.4396868999975,,,,,517,18,Woman,Right,
,,,,,,,,,,,,,,,,,517,18,Woman,Right,3,49,0.15,2,0,180,0,3.8094340000025113,['y'],2.5186409000016283,1.074,2220.8565568999984,,,,,517,18,Woman,Right,
,,,,,,,,,,,,,,,,,517,18,Woman,Right,3,40,0.4,1,0,-,0,0.32899629999883473,['n'],0.7274214000062784,1.772,2225.0891096999985,,,,,517,18,Woman,Right,
,,,,,,,,,,,,,,,,,517,18,Woman,Right,3,61,0.15,2,0,180,0,3.0733242999995127,['y'],0.535648900004162,1.918,2231.173026700002,,,,,517,18,Woman,Right,
,,,,,,,,,,,,,,,,,517,18,Woman,Right,3,24,0.4,1,0,-,0,0.2687837999983458,['n'],0.5437070000043605,1.904,2234.6390602999963,,,,,517,18,Woman,Right,
,,,,,,,,,,,,,,,,,517,18,Woman,Right,3,45,0.15,2,0,180,180,0.1893608000027598,['n'],0.4481087000021944,1.904,2237.4890548999974,,,,,517,18,Woman,Right,
,,,,,,,,,,,,,,,,,517,18,Woman,Right,3,54,0.15,1,180,-,180,1.5006762999983039,['n'],0.5032075999988592,1.43,2243.0389784,,,,,517,18,Woman,Right,
,,,,,,,,,,,,,,,,,517,18,Woman,Right,3,55,0.15,2,180,0,180,3.8807350999995833,['y'],1.4083723000003374,1.09,2251.439150500002,,,,,517,18,Woman,Right,
,,,,,,,,,,,,,,,,,517,18,Woman,Right,3,59,0.15,2,180,0,0,0.6553724999976112,['y'],0.6153621999983443,1.908,2255.372817800002,,,,,517,18,Woman,Right,
,,,,,,,,,,,,,,,,,517,18,Woman,Right,3,58,0.15,1,180,-,180,0.40884060000098543,['n'],0.4950096000029589,1.8900000000000001,2258.6395529,,,,,517,18,Woman,Right,
,,,,,,,,,,,,,,,,,517,18,Woman,Right,3,35,0.4,2,180,0,180,1.1671277999994345,['n'],0.7118665000016335,1.758,2262.7890544999973,,,,,517,18,Woman,Right,
,,,,,,,,,,,,,,,,,517,18,Woman,Right,3,33,0.4,2,0,180,0,0.7811821000068448,['n'],5.527256300003501,1.786,2271.6733424999984,,,,,517,18,Woman,Right,
,,,,,,,,,,,,,,,,,517,18,Woman,Right,3,14,0.4,1,180,-,180,1.0436259000052814,['y'],0.719885600003181,1.688,2275.7731268999996,,,,,517,18,Woman,Right,
,,,,,,,,,,,,,,,,,517,18,Woman,Right,3,56,0.15,1,0,-,0,0.9646808000034071,['n'],0.6156792999972822,1.734,2280.573383900002,,,,,517,18,Woman,Right,
,,,,,,,,,,,,,,,,,517,18,Woman,Right,3,29,0.4,2,0,180,180,1.0828295999963302,['y'],0.8002191999985371,1.246,2285.3388793999984,,,,,517,18,Woman,Right,
,,,,,,,,,,,,,,,,,517,18,Woman,Right,3,50,0.15,1,180,-,0,4.776932900000247,['y'],1.0720522999981767,1.876,2293.9725123000026,,,,,517,18,Woman,Right,
,,,,,,,,,,,,,,,,,517,18,Woman,Right,3,12,0.4,1,0,-,180,0.7851043999980902,['n'],1.2720047999973758,1.73,2298.4720831000013,,,,,517,18,Woman,Right,
,,,,,,,,,,,,,,,,,517,18,Woman,Right,4,11,0.4,2,180,0,180,0.47765379999327706,['y'],0.5996790999997756,1.846,2315.7728441,70.0,65.0,65.0,,517,18,Woman,Right,
,,,,,,,,,,,,,,,,,517,18,Woman,Right,4,35,0.4,2,180,0,180,0.48813520000112476,['n'],0.3042102000035811,1.818,2319.805974099996,,,,,517,18,Woman,Right,
,,,,,,,,,,,,,,,,,517,18,Woman,Right,4,44,0.15,1,0,-,0,0.3366225999998278,['n'],0.5036997999995947,1.824,2322.8053543999995,,,,,517,18,Woman,Right,
,,,,,,,,,,,,,,,,,517,18,Woman,Right,4,6,1,1,180,-,180,0.09895799999503652,['n'],1.7589892000032705,1.84,2326.8560068000006,,,,,517,18,Woman,Right,
,,,,,,,,,,,,,,,,,517,18,Woman,Right,4,66,0.15,1,180,-,180,0.6076450999971712,['n'],0.5358841999986907,1.824,2330.1563062999994,,,,,517,18,Woman,Right,
,,,,,,,,,,,,,,,,,517,18,Woman,Right,4,36,0.4,1,0,-,180,0.33190040000044974,['n'],0.4227266000016243,1.5979999999999999,2334.305875500002,,,,,517,18,Woman,Right,
,,,,,,,,,,,,,,,,,517,18,Woman,Right,4,75,0.15,2,180,0,0,0.6868347999989055,['y'],1.3352325999949244,2.0,2338.5558555000025,,,,,517,18,Woman,Right,
,,,,,,,,,,,,,,,,,517,18,Woman,Right,4,26,0.4,1,180,-,180,0.9371662000048673,['n'],1.0396982000020216,1.806,2342.755247000001,,,,,517,18,Woman,Right,
,,,,,,,,,,,,,,,,,517,18,Woman,Right,4,41,0.4,2,0,180,180,0.9135615999985021,['y'],0.639688200004457,1.97,2346.7552350999977,,,,,517,18,Woman,Right,
,,,,,,,,,,,,,,,,,517,18,Woman,Right,4,54,0.15,1,180,-,180,1.732758099999046,['y'],0.7991408000016236,1.824,2351.805627599999,,,,,517,18,Woman,Right,
,,,,,,,,,,,,,,,,,517,18,Woman,Right,4,37,0.4,2,0,180,180,0.394523199996911,['y'],0.39995749999798136,1.276,2356.0218293,,,,,517,18,Woman,Right,
,,,,,,,,,,,,,,,,,517,18,Woman,Right,4,31,0.4,2,180,0,180,0.5464005000030738,['y'],1.5030456999957096,1.892,2360.2384544000015,,,,,517,18,Woman,Right,
,,,,,,,,,,,,,,,,,517,18,Woman,Right,4,72,0.15,1,0,-,0,0.8944224000006216,['y'],1.1522930999999517,1.704,2364.9064553999997,,,,,517,18,Woman,Right,
,,,,,,,,,,,,,,,,,517,18,Woman,Right,4,65,0.15,2,0,180,0,2.1397357000023476,['y'],0.5354681000026176,1.754,2369.8723728999976,,,,,517,18,Woman,Right,
,,,,,,,,,,,,,,,,,517,18,Woman,Right,4,59,0.15,2,180,0,180,0.7266373000020394,['n'],3.3036667999986093,1.756,2377.406142300002,,,,,517,18,Woman,Right,
,,,,,,,,,,,,,,,,,517,18,Woman,Right,4,57,0.15,2,0,180,0,0.6366740000012214,['y'],1.383102499996312,1.712,2381.721791099997,,,,,517,18,Woman,Right,
,,,,,,,,,,,,,,,,,517,18,Woman,Right,4,32,0.4,1,0,-,180,0.6206931000051554,['y'],0.4718799000038416,1.752,2384.9555607,,,,,517,18,Woman,Right,
,,,,,,,,,,,,,,,,,517,18,Woman,Right,4,34,0.4,1,180,-,0,0.5635714999953052,['y'],0.4711389000003692,1.834,2388.4216259000023,,,,,517,18,Woman,Right,
,,,,,,,,,,,,,,,,,517,18,Woman,Right,4,0,1,1,0,-,180,0.6082806000049459,['y'],0.791366299999936,1.97,2392.0722064,,,,,517,18,Woman,Right,
,,,,,,,,,,,,,,,,,517,18,Woman,Right,4,38,0.4,1,180,-,0,1.1048227999999654,['y'],2.0075893999965047,1.98,2397.2716409999994,,,,,517,18,Woman,Right,
,,,,,,,,,,,,,,,,,517,18,Woman,Right,4,19,0.4,2,180,0,0,0.8004073999982211,['y'],1.0715433999939705,1.998,2401.1722119999977,,,,,517,18,Woman,Right,
,,,,,,,,,,,,,,,,,517,18,Woman,Right,4,69,0.15,2,0,180,180,0.9456290000016452,['n'],0.34358030000294093,1.92,2404.704864200001,,,,,517,18,Woman,Right,
,,,,,,,,,,,,,,,,,517,18,Woman,Right,4,58,0.15,1,180,-,180,1.8932351999974344,['y'],0.655989499995485,1.972,2409.3222448000015,,,,,517,18,Woman,Right,
,,,,,,,,,,,,,,,,,517,18,Woman,Right,4,52,0.15,1,0,-,180,0.7727207999996608,['y'],0.863687500001106,1.936,2413.105553399997,,,,,517,18,Woman,Right,
,,,,,,,,,,,,,,,,,517,18,Woman,Right,4,28,0.4,1,0,-,180,0.6791828999994323,['n'],0.2795144000047003,1.8639999999999999,2416.6884514999983,,,,,517,18,Woman,Right,
,,,,,,,,,,,,,,,,,517,18,Woman,Right,4,27,0.4,2,180,0,180,0.7655799999993178,['n'],0.8082648999989033,1.728,2420.388528999996,,,,,517,18,Woman,Right,
,,,,,,,,,,,,,,,,,517,18,Woman,Right,4,17,0.4,2,0,180,180,1.4112347999980557,['y'],0.6790822999973898,1.966,2424.622435600002,,,,,517,18,Woman,Right,
,,,,,,,,,,,,,,,,,517,18,Woman,Right,4,7,1,2,180,0,0,0.402821200004837,['y'],2.3679126999995788,1.972,2429.538700500001,,,,,517,18,Woman,Right,
,,,,,,,,,,,,,,,,,517,18,Woman,Right,4,78,0.15,1,180,-,0,0.6474885999996332,['y'],0.383187800005544,1.984,2432.6554117999985,,,,,517,18,Woman,Right,
,,,,,,,,,,,,,,,,,517,18,Woman,Right,4,77,0.15,2,0,180,180,1.2485692999980529,['y'],0.4314254999990226,1.092,2437.5395254999967,,,,,517,18,Woman,Right,
,,,,,,,,,,,,,,,,,517,18,Woman,Right,4,13,0.4,2,0,180,180,1.2566223999965587,['y'],6.823466299996653,1.798,2448.0893144,,,,,517,18,Woman,Right,
,,,,,,,,,,,,,,,,,517,18,Woman,Right,4,46,0.15,1,180,-,0,0.4874887999976636,['n'],0.8075380000009318,1.818,2451.5046659,,,,,517,18,Woman,Right,
,,,,,,,,,,,,,,,,,517,18,Woman,Right,4,42,0.4,1,180,-,180,0.19816310000169324,['n'],0.8069965999966371,1.824,2454.588579700001,,,,,517,18,Woman,Right,
,,,,,,,,,,,,,,,,,517,18,Woman,Right,4,48,0.15,1,0,-,180,0.22427620000235038,['n'],0.5279882999966503,1.824,2457.504535100001,,,,,517,18,Woman,Right,
,,,,,,,,,,,,,,,,,517,18,Woman,Right,4,24,0.4,1,0,-,180,0.20093130000168458,['n'],0.34414610000385437,1.824,2460.254616899998,,,,,517,18,Woman,Right,
,,,,,,,,,,,,,,,,,517,18,Woman,Right,4,2,1,1,180,-,180,0.4835157999987132,['n'],0.3043385000055423,1.824,2463.2720234000008,,,,,517,18,Woman,Right,
,,,,,,,,,,,,,,,,,517,18,Woman,Right,4,64,0.15,1,0,-,180,0.6678944000013871,['n'],0.39176710000174353,1.824,2466.522213600001,,,,,517,18,Woman,Right,
,,,,,,,,,,,,,,,,,517,18,Woman,Right,4,74,0.15,1,180,-,180,0.01667509999970207,['n'],0.34165329999814276,1.824,2469.2552123999994,,,,,517,18,Woman,Right,
,,,,,,,,,,,,,,,,,517,18,Woman,Right,4,8,0.4,1,0,-,180,0.6923141000006581,['n'],0.8720418000011705,1.824,2473.388353399998,,,,,517,18,Woman,Right,
,,,,,,,,,,,,,,,,,517,18,Woman,Right,4,4,1,1,0,-,0,0.6107219999976223,['n'],0.7521013000005041,1.98,2477.5053843999995,,,,,517,18,Woman,Right,
,,,,,,,,,,,,,,,,,517,18,Woman,Right,4,40,0.4,1,0,-,0,0.6923451999973622,['y'],0.5517032999996445,1.91,2481.0546969999996,,,,,517,18,Woman,Right,
,,,,,,,,,,,,,,,,,517,18,Woman,Right,4,9,0.4,2,0,180,180,0.7805374999952619,['y'],1.0473870999994688,2.0,2486.0544365000023,,,,,517,18,Woman,Right,
,,,,,,,,,,,,,,,,,517,18,Woman,Right,4,49,0.15,2,0,180,180,0.5737608000054024,['n'],0.35122599999886006,2.0,2489.2544554999986,,,,,517,18,Woman,Right,
,,,,,,,,,,,,,,,,,517,18,Woman,Right,4,68,0.15,1,0,-,180,0.3185726000010618,['y'],1.6706221999993431,2.0,2493.6384314000024,,,,,517,18,Woman,Right,
,,,,,,,,,,,,,,,,,517,18,Woman,Right,4,62,0.15,1,180,-,0,0.5529950999989524,['y'],1.0954754000049434,1.998,2497.654938200001,,,,,517,18,Woman,Right,
,,,,,,,,,,,,,,,,,517,18,Woman,Right,4,76,0.15,1,0,-,180,0.2142431000029319,['n'],0.5269978999931482,2.0,2500.5883152000024,,,,,517,18,Woman,Right,
,,,,,,,,,,,,,,,,,517,18,Woman,Right,4,21,0.4,2,0,180,180,0.5268383999937214,['n'],0.6311906000046292,2.0,2504.721835700002,,,,,517,18,Woman,Right,
,,,,,,,,,,,,,,,,,517,18,Woman,Right,4,12,0.4,1,0,-,180,0.4835101999997278,['n'],0.607448500006285,1.994,2508.5543008000022,,,,,517,18,Woman,Right,
,,,,,,,,,,,,,,,,,517,18,Woman,Right,4,33,0.4,2,0,180,180,0.7672768999982509,['y'],0.41679490000387887,2.0,2511.9047772999984,,,,,517,18,Woman,Right,
,,,,,,,,,,,,,,,,,517,18,Woman,Right,4,1,1,2,0,180,180,0.613670099999581,['y'],0.7354947999992874,2.0,2515.3880095999994,,,,,517,18,Woman,Right,
,,,,,,,,,,,,,,,,,517,18,Woman,Right,4,29,0.4,2,0,180,180,0.6470938999991631,['y'],0.7762036999993143,2.0,2518.937778499996,,,,,517,18,Woman,Right,
,,,,,,,,,,,,,,,,,517,18,Woman,Right,4,50,0.15,1,180,-,180,1.346317600000475,['y'],1.559172799999942,1.024,2524.570921599996,,,,,517,18,Woman,Right,
,,,,,,,,,,,,,,,,,517,18,Woman,Right,4,61,0.15,2,0,180,0,0.7286405999984709,['n'],0.8639707999973325,1.796,2528.5883047000025,,,,,517,18,Woman,Right,
,,,,,,,,,,,,,,,,,517,18,Woman,Right,4,3,1,2,180,0,0,0.37966099999903236,['n'],0.5195969999986119,1.3319999999999999,2532.721042600002,,,,,517,18,Woman,Right,
,,,,,,,,,,,,,,,,,517,18,Woman,Right,4,53,0.15,2,0,180,180,0.8480182999992394,['n'],1.0153479000000516,1.5779999999999998,2536.8051691,,,,,517,18,Woman,Right,
,,,,,,,,,,,,,,,,,517,18,Woman,Right,4,30,0.4,1,180,-,180,0.7221295999988797,['n'],0.6880158999993,1.5979999999999999,2540.3710186000026,,,,,517,18,Woman,Right,
,,,,,,,,,,,,,,,,,517,18,Woman,Right,4,10,0.4,1,180,-,180,1.404277399997227,['n'],0.3202512999996543,1.8519999999999999,2544.2208200000023,,,,,517,18,Woman,Right,
,,,,,,,,,,,,,,,,,517,18,Woman,Right,4,22,0.4,1,180,-,0,0.45940309999423334,['y'],0.6239408999972511,1.8599999999999999,2547.6041004,,,,,517,18,Woman,Right,
,,,,,,,,,,,,,,,,,517,18,Woman,Right,4,39,0.4,2,180,0,0,0.319509900000412,['y'],0.7282372000045143,1.8679999999999999,2550.970795399997,,,,,517,18,Woman,Right,
,,,,,,,,,,,,,,,,,517,18,Woman,Right,4,23,0.4,2,180,0,0,0.31307899999956135,['y'],0.3754094000032637,1.8780000000000001,2554.204059800002,,,,,517,18,Woman,Right,
,,,,,,,,,,,,,,,,,517,18,Woman,Right,4,16,0.4,1,0,-,0,0.9169983000028878,['n'],2.151683800002502,1.884,2559.570683500002,,,,,517,18,Woman,Right,
,,,,,,,,,,,,,,,,,517,18,Woman,Right,4,47,0.15,2,180,0,180,0.5074500999980955,['y'],0.4877325999987079,1.8940000000000001,2562.637354899998,,,,,517,18,Woman,Right,
,,,,,,,,,,,,,,,,,517,18,Woman,Right,4,55,0.15,2,180,0,0,1.167106099994271,['n'],0.8150789999999688,1.06,2567.637614499996,,,,,517,18,Woman,Right,
,,,,,,,,,,,,,,,,,517,18,Woman,Right,4,67,0.15,2,180,0,180,0.8808162999994238,['y'],0.8479029000009177,1.772,2571.4880389000027,,,,,517,18,Woman,Right,
,,,,,,,,,,,,,,,,,517,18,Woman,Right,4,45,0.15,2,0,180,0,0.6786454000030062,['y'],0.5680378999968525,1.748,2574.871640600002,,,,,517,18,Woman,Right,
,,,,,,,,,,,,,,,,,517,18,Woman,Right,4,14,0.4,1,180,-,0,2.294546699995408,['n'],0.5676489000034053,1.832,2579.838071099999,,,,,517,18,Woman,Right,
,,,,,,,,,,,,,,,,,517,18,Woman,Right,4,56,0.15,1,0,-,180,0.5294556000008015,['y'],0.3360984000028111,1.836,2583.4707131999967,,,,,517,18,Woman,Right,
,,,,,,,,,,,,,,,,,517,18,Woman,Right,4,79,0.15,2,180,0,0,0.5998349000001326,['n'],0.647797300000093,1.6219999999999999,2587.3372358999986,,,,,517,18,Woman,Right,
,,,,,,,,,,,,,,,,,517,18,Woman,Right,4,73,0.15,2,0,180,0,0.5258347999988473,['y'],0.6555530999976327,1.924,2590.8872839999967,,,,,517,18,Woman,Right,
,,,,,,,,,,,,,,,,,517,18,Woman,Right,4,25,0.4,2,0,180,180,1.5735224000018206,['y'],1.8872659999979078,1.942,2596.9379074000026,,,,,517,18,Woman,Right,
,,,,,,,,,,,,,,,,,517,18,Woman,Right,4,5,1,2,0,180,180,0.3106654000002891,['y'],0.9912299999996321,1.982,2600.4380149999997,,,,,517,18,Woman,Right,
,,,,,,,,,,,,,,,,,517,18,Woman,Right,4,15,0.4,2,180,0,180,0.5599826000034227,['y'],0.5115751000048476,1.932,2603.754628499999,,,,,517,18,Woman,Right,
,,,,,,,,,,,,,,,,,517,18,Woman,Right,4,63,0.15,2,180,0,0,1.8301155000008293,['y'],0.5995457999961218,2.0,2608.238739399996,,,,,517,18,Woman,Right,
,,,,,,,,,,,,,,,,,517,18,Woman,Right,4,70,0.15,1,180,-,0,0.46410679999826243,['y'],0.43946040000446374,2.0,2611.3205310999983,,,,,517,18,Woman,Right,
,,,,,,,,,,,,,,,,,517,18,Woman,Right,4,20,0.4,1,0,-,180,0.4208522999979323,['n'],0.6238078999958816,1.934,2614.5704127999998,,,,,517,18,Woman,Right,
,,,,,,,,,,,,,,,,,517,18,Woman,Right,4,60,0.15,1,0,-,0,0.33744779999688035,['n'],0.5751512999995612,1.94,2618.453819100003,,,,,517,18,Woman,Right,
,,,,,,,,,,,,,,,,,517,18,Woman,Right,4,71,0.15,2,180,0,180,0.7202552999951877,['n'],0.655116599999019,1.806,2622.2045940000025,,,,,517,18,Woman,Right,
,,,,,,,,,,,,,,,,,517,18,Woman,Right,4,51,0.15,2,180,0,180,0.9220695999974851,['y'],1.7356856999977026,1.854,2627.0204352,,,,,517,18,Woman,Right,
,,,,,,,,,,,,,,,,,517,18,Woman,Right,4,43,0.4,2,180,0,180,0.7462072000053013,['n'],0.28000089999841293,1.666,2630.5703316,,,,,517,18,Woman,Right,
,,,,,,,,,,,,,,,,,517,18,Woman,Right,4,18,0.4,1,180,-,0,0.2895509999943897,['y'],0.6318955000024289,1.962,2633.7037952999963,,,,,517,18,Woman,Right,
,,,,,,,,,,,,,,,,,517,18,Woman,Right,5,74,0.15,1,180,-,180,0.3763754000028712,['n'],1.135408499998448,1.888,2640.3043897000025,51.25,57.5,67.5,,517,18,Woman,Right,
,,,,,,,,,,,,,,,,,517,18,Woman,Right,5,25,0.4,2,0,180,180,0.4822390999979689,['y'],0.5038291000018944,1.928,2643.720335099999,,,,,517,18,Woman,Right,
,,,,,,,,,,,,,,,,,517,18,Woman,Right,5,31,0.4,2,180,0,0,0.5277786000006017,['y'],2.9599002999966615,1.642,2649.753893000001,,,,,517,18,Woman,Right,
,,,,,,,,,,,,,,,,,517,18,Woman,Right,5,73,0.15,2,0,180,0,0.2822946999949636,['y'],1.0878911000036169,1.6520000000000001,2653.3036054999975,,,,,517,18,Woman,Right,
,,,,,,,,,,,,,,,,,517,18,Woman,Right,5,17,0.4,2,0,180,180,0.3998040000005858,['y'],0.5359930000049644,1.964,2656.5376104000024,,,,,517,18,Woman,Right,
,,,,,,,,,,,,,,,,,517,18,Woman,Right,5,13,0.4,2,0,180,180,0.39128530000016326,['y'],0.583640099997865,1.972,2659.670228499999,,,,,517,18,Woman,Right,
,,,,,,,,,,,,,,,,,517,18,Woman,Right,5,62,0.15,1,180,-,180,0.2916731000004802,['y'],0.5114777999988291,2.0,2662.970219199997,,,,,517,18,Woman,Right,
,,,,,,,,,,,,,,,,,517,18,Woman,Right,5,27,0.4,2,180,0,180,1.0990702000053716,['y'],0.5191761000023689,1.97,2666.8376069000005,,,,,517,18,Woman,Right,
,,,,,,,,,,,,,,,,,517,18,Woman,Right,5,26,0.4,1,180,-,180,0.5391440000021248,['y'],0.47889610000129323,1.982,2670.070216100001,,,,,517,18,Woman,Right,
,,,,,,,,,,,,,,,,,517,18,Woman,Right,5,48,0.15,1,0,-,180,0.7987379999976838,['n'],0.35964419999800157,1.752,2673.5703509000014,,,,,517,18,Woman,Right,
,,,,,,,,,,,,,,,,,517,18,Woman,Right,5,37,0.4,2,0,180,180,0.5465285999962362,['y'],0.5036260999986553,1.92,2676.837475399996,,,,,517,18,Woman,Right,
,,,,,,,,,,,,,,,,,517,18,Woman,Right,5,9,0.4,2,0,180,180,0.2335901999977068,['y'],0.5343244999967283,1.968,2679.9201453999995,,,,,517,18,Woman,Right,
,,,,,,,,,,,,,,,,,517,18,Woman,Right,5,79,0.15,2,180,0,180,0.29512809999869205,['y'],0.55937200000335,1.972,2682.8867864999993,,,,,517,18,Woman,Right,
,,,,,,,,,,,,,,,,,517,18,Woman,Right,5,77,0.15,2,0,180,180,1.146693899994716,['y'],0.7198376000014832,1.796,2687.4201366999987,,,,,517,18,Woman,Right,
,,,,,,,,,,,,,,,,,517,18,Woman,Right,5,19,0.4,2,180,0,0,0.5684517000045162,['y'],0.4400817999994615,1.888,2690.770200400002,,,,,517,18,Woman,Right,
,,,,,,,,,,,,,,,,,517,18,Woman,Right,5,53,0.15,2,0,180,180,0.3151600999990478,['n'],0.5196982999987085,1.834,2694.1041183999987,,,,,517,18,Woman,Right,
,,,,,,,,,,,,,,,,,517,18,Woman,Right,5,78,0.15,1,180,-,180,0.6760400999992271,['y'],0.5679453999982798,1.936,2697.7374402999994,,,,,517,18,Woman,Right,
,,,,,,,,,,,,,,,,,517,18,Woman,Right,5,76,0.15,1,0,-,0,0.9184594999969704,['y'],1.304174899996724,1.92,2702.1540647,,,,,517,18,Woman,Right,
,,,,,,,,,,,,,,,,,517,18,Woman,Right,5,12,0.4,1,0,-,0,0.5001458999977331,['y'],0.47177199999714503,1.918,2705.236571100002,,,,,517,18,Woman,Right,
,,,,,,,,,,,,,,,,,517,18,Woman,Right,5,52,0.15,1,0,-,0,0.3053533999991487,['y'],1.415052399999695,1.892,2709.0533422000008,,,,,517,18,Woman,Right,
,,,,,,,,,,,,,,,,,517,18,Woman,Right,5,66,0.15,1,180,-,0,0.19881339999847114,['y'],0.4558566999985487,1.8900000000000001,2711.903909599998,,,,,517,18,Woman,Right,
,,,,,,,,,,,,,,,,,517,18,Woman,Right,5,69,0.15,2,0,180,0,0.3267640000049141,['y'],0.5033297000045422,1.91,2714.9879236999986,,,,,517,18,Woman,Right,
,,,,,,,,,,,,,,,,,517,18,Woman,Right,5,5,1,2,0,180,180,0.6602079000003869,['y'],0.42304149999836227,1.92,2718.537287899999,,,,,517,18,Woman,Right,
,,,,,,,,,,,,,,,,,517,18,Woman,Right,5,60,0.15,1,0,-,180,1.330380100000184,['n'],0.8477787999945576,1.834,2723.1701498999973,,,,,517,18,Woman,Right,
,,,,,,,,,,,,,,,,,517,18,Woman,Right,5,23,0.4,2,180,0,0,0.9885799999974552,['y'],0.5837783999959356,1.836,2726.853936300002,,,,,517,18,Woman,Right,
,,,,,,,,,,,,,,,,,517,18,Woman,Right,5,55,0.15,2,180,0,0,0.3366932999997516,['y'],1.4072833000027458,1.8639999999999999,2731.1198328000028,,,,,517,18,Woman,Right,
,,,,,,,,,,,,,,,,,517,18,Woman,Right,5,33,0.4,2,0,180,0,0.3660816000046907,['y'],0.45562799999606796,1.8679999999999999,2734.2531597999987,,,,,517,18,Woman,Right,
,,,,,,,,,,,,,,,,,517,18,Woman,Right,5,39,0.4,2,180,0,180,1.703716500000155,['y'],0.5994993999993312,1.8719999999999999,2738.7033882999967,,,,,517,18,Woman,Right,
,,,,,,,,,,,,,,,,,517,18,Woman,Right,5,14,0.4,1,180,-,180,0.6147774999990361,['y'],1.5359872999979416,1.016,2743.2031301000025,,,,,517,18,Woman,Right,
,,,,,,,,,,,,,,,,,517,18,Woman,Right,5,59,0.15,2,180,0,180,1.5769270000018878,['y'],1.127419500000542,1.866,2749.037148700001,,,,,517,18,Woman,Right,
,,,,,,,,,,,,,,,,,517,18,Woman,Right,5,32,0.4,1,0,-,180,1.0046829999992042,['y'],1.399580600002082,1.174,2753.8698788999973,,,,,517,18,Woman,Right,
,,,,,,,,,,,,,,,,,517,18,Woman,Right,5,45,0.15,2,0,180,180,0.4340714999998454,['y'],1.5751145000031102,1.922,2758.1872466999994,,,,,517,18,Woman,Right,
,,,,,,,,,,,,,,,,,517,18,Woman,Right,5,71,0.15,2,180,0,0,0.5170059999945806,['y'],0.5434507000027224,1.8940000000000001,2761.3530802000023,,,,,517,18,Woman,Right,
,,,,,,,,,,,,,,,,,517,18,Woman,Right,5,11,0.4,2,180,0,180,0.7312382999953115,['n'],0.9515494000006584,1.734,2765.236520999999,,,,,517,18,Woman,Right,
,,,,,,,,,,,,,,,,,517,18,Woman,Right,5,67,0.15,2,180,0,180,1.2518290000007255,['n'],0.7436985000022105,1.84,2769.4696889999977,,,,,517,18,Woman,Right,
,,,,,,,,,,,,,,,,,517,18,Woman,Right,5,30,0.4,1,180,-,180,0.22669519999908516,['n'],0.5442709999988438,1.8599999999999999,2772.587645899999,,,,,517,18,Woman,Right,
,,,,,,,,,,,,,,,,,517,18,Woman,Right,5,56,0.15,1,0,-,180,0.14582009999867296,['n'],0.4235852999991039,1.84,2775.319573300003,,,,,517,18,Woman,Right,
,,,,,,,,,,,,,,,,,517,18,Woman,Right,5,61,0.15,2,0,180,0,0.9757716999956756,['n'],0.4716499999994994,1.3780000000000001,2779.0370104999965,,,,,517,18,Woman,Right,
,,,,,,,,,,,,,,,,,517,18,Woman,Right,5,22,0.4,1,180,-,180,0.32141930000216234,['n'],0.5271447999984957,1.654,2782.120301199997,,,,,517,18,Woman,Right,
,,,,,,,,,,,,,,,,,517,18,Woman,Right,5,57,0.15,2,0,180,0,0.11849130000337027,['n'],0.42305019999912474,1.7,2785.0368928000025,,,,,517,18,Woman,Right,
,,,,,,,,,,,,,,,,,517,18,Woman,Right,5,3,1,2,180,0,0,0.4864556000029552,['y'],0.8237370999995619,1.8860000000000001,2788.6037625000026,,,,,517,18,Woman,Right,
,,,,,,,,,,,,,,,,,517,18,Woman,Right,5,54,0.15,1,180,-,0,0.9770647000041208,['n'],0.680121199999121,1.946,2792.8034428999963,,,,,517,18,Woman,Right,
,,,,,,,,,,,,,,,,,517,18,Woman,Right,5,75,0.15,2,180,0,180,0.1325460000007297,['n'],1.1280983999968157,1.97,2796.0862836000015,,,,,517,18,Woman,Right,
,,,,,,,,,,,,,,,,,517,18,Woman,Right,5,20,0.4,1,0,-,180,1.1676067000007606,['n'],0.7442567999969469,1.92,2800.086679,,,,,517,18,Woman,Right,
,,,,,,,,,,,,,,,,,517,18,Woman,Right,5,44,0.15,1,0,-,180,0.49723019999510143,['n'],0.4309223000018392,1.936,2803.119455,,,,,517,18,Woman,Right,
,,,,,,,,,,,,,,,,,517,18,Woman,Right,5,42,0.4,1,180,-,0,0.16562189999967813,['n'],0.910565600002883,1.946,2806.5532760999995,,,,,517,18,Woman,Right,
,,,,,,,,,,,,,,,,,517,18,Woman,Right,5,10,0.4,1,180,-,180,0.17851620000146795,['n'],0.4635061000008136,1.946,2809.852679900003,,,,,517,18,Woman,Right,
,,,,,,,,,,,,,,,,,517,18,Woman,Right,5,41,0.4,2,0,180,0,0.6793183000045246,['n'],0.5761530000017956,1.584,2813.8194817999974,,,,,517,18,Woman,Right,
,,,,,,,,,,,,,,,,,517,18,Woman,Right,5,51,0.15,2,180,0,180,0.4817297999979928,['n'],0.6712102000019513,1.6360000000000001,2817.236791299998,,,,,517,18,Woman,Right,
,,,,,,,,,,,,,,,,,517,18,Woman,Right,5,43,0.4,2,180,0,180,1.61019479999959,['y'],0.73680549999699,1.684,2821.6536761000025,,,,,517,18,Woman,Right,
,,,,,,,,,,,,,,,,,517,18,Woman,Right,5,35,0.4,2,180,0,0,0.28863629999978,['y'],0.5275592999969376,1.798,2824.7194339999987,,,,,517,18,Woman,Right,
,,,,,,,,,,,,,,,,,517,18,Woman,Right,5,24,0.4,1,0,-,0,0.5689472000012756,['y'],0.5758900000000722,1.818,2828.5193988999963,,,,,517,18,Woman,Right,
,,,,,,,,,,,,,,,,,517,18,Woman,Right,5,2,1,1,180,-,180,0.7038661999977194,['n'],0.38297079999756534,1.832,2831.7359991999983,,,,,517,18,Woman,Right,
,,,,,,,,,,,,,,,,,517,18,Woman,Right,5,70,0.15,1,180,-,180,1.313265999997384,['y'],0.7834694999983185,1.612,2836.0375416000024,,,,,517,18,Woman,Right,
,,,,,,,,,,,,,,,,,517,18,Woman,Right,5,50,0.15,1,180,-,0,0.9466409000015119,['y'],0.375950699999521,1.734,2839.503368400001,,,,,517,18,Woman,Right,
,,,,,,,,,,,,,,,,,517,18,Woman,Right,5,8,0.4,1,0,-,0,0.4861884999991162,['y'],0.8721867999993265,1.9020000000000001,2843.137004999997,,,,,517,18,Woman,Right,
,,,,,,,,,,,,,,,,,517,18,Woman,Right,5,4,1,1,0,-,0,0.3958554999990156,['n'],0.47158869999839226,1.85,2846.2033643999966,,,,,517,18,Woman,Right,
,,,,,,,,,,,,,,,,,517,18,Woman,Right,5,7,1,2,180,0,0,0.49757830000453396,['y'],0.6400800999981584,1.9020000000000001,2849.5859380999973,,,,,517,18,Woman,Right,
,,,,,,,,,,,,,,,,,517,18,Woman,Right,5,6,1,1,180,-,180,0.6604296000004979,['y'],0.8632692999963183,1.916,2853.953265700002,,,,,517,18,Woman,Right,
,,,,,,,,,,,,,,,,,517,18,Woman,Right,5,46,0.15,1,180,-,180,2.291763599998376,['n'],0.7674429999970016,1.752,2859.219535199998,,,,,517,18,Woman,Right,
,,,,,,,,,,,,,,,,,517,18,Woman,Right,5,72,0.15,1,0,-,180,0.8694247000021278,['n'],0.5515554000012344,1.816,2862.702597399999,,,,,517,18,Woman,Right,
,,,,,,,,,,,,,,,,,517,18,Woman,Right,5,49,0.15,2,0,180,180,1.3123526999988826,['n'],0.9443901999984519,1.826,2867.0529074000005,,,,,517,18,Woman,Right,
,,,,,,,,,,,,,,,,,517,18,Woman,Right,5,36,0.4,1,0,-,0,0.5674720999959391,['n'],1.4242909000022337,1.448,2871.136424999997,,,,,517,18,Woman,Right,
,,,,,,,,,,,,,,,,,517,18,Woman,Right,5,21,0.4,2,0,180,180,0.5579037999996217,['y'],0.6318964999954915,1.55,2874.4525006999975,,,,,517,18,Woman,Right,
,,,,,,,,,,,,,,,,,517,18,Woman,Right,5,29,0.4,2,0,180,180,0.5983345000058762,['n'],0.2956620000040857,1.754,2877.8531831,,,,,517,18,Woman,Right,
,,,,,,,,,,,,,,,,,517,18,Woman,Right,5,1,1,2,0,180,180,0.4176794000013615,['y'],0.5351745000007213,2.0,2881.885807300001,,,,,517,18,Woman,Right,
,,,,,,,,,,,,,,,,,517,18,Woman,Right,5,65,0.15,2,0,180,180,0.7798285000026226,['n'],0.3195674999951734,1.97,2885.4356984999977,,,,,517,18,Woman,Right,
,,,,,,,,,,,,,,,,,517,18,Woman,Right,5,34,0.4,1,180,-,180,0.8498264999943785,['n'],0.5837854000055813,2.0,2889.319896000001,,,,,517,18,Woman,Right,
,,,,,,,,,,,,,,,,,517,18,Woman,Right,5,40,0.4,1,0,-,180,0.5268547999949078,['y'],1.7757990000027348,2.0,2893.936478399999,,,,,517,18,Woman,Right,
,,,,,,,,,,,,,,,,,517,18,Woman,Right,5,15,0.4,2,180,0,180,0.5819048999983352,['y'],2.4390944999977364,2.0,2899.436420799997,,,,,517,18,Woman,Right,
,,,,,,,,,,,,,,,,,517,18,Woman,Right,5,64,0.15,1,0,-,0,1.1877056999946944,['y'],0.9675803999998607,2.0,2904.1022981999995,,,,,517,18,Woman,Right,
,,,,,,,,,,,,,,,,,517,18,Woman,Right,5,68,0.15,1,0,-,180,0.736552299997129,['n'],0.3759721999958856,1.764,2907.9522966000004,,,,,517,18,Woman,Right,
,,,,,,,,,,,,,,,,,517,18,Woman,Right,5,18,0.4,1,180,-,0,0.2558945999990101,['n'],0.4718356999946991,1.744,2911.102275600002,,,,,517,18,Woman,Right,
,,,,,,,,,,,,,,,,,517,18,Woman,Right,5,63,0.15,2,180,0,180,0.5529242999982671,['n'],0.7592338000031305,1.85,2914.5194309,,,,,517,18,Woman,Right,
,,,,,,,,,,,,,,,,,517,18,Woman,Right,5,0,1,1,0,-,0,0.04639409999799682,['n'],0.9675680000000284,1.846,2917.635602399998,,,,,517,18,Woman,Right,
,,,,,,,,,,,,,,,,,517,18,Woman,Right,5,16,0.4,1,0,-,0,0.730518900003517,['n'],0.5275265000018408,1.846,2920.919782799996,,,,,517,18,Woman,Right,
,,,,,,,,,,,,,,,,,517,18,Woman,Right,5,47,0.15,2,180,0,180,1.0222046000053524,['y'],0.4870258000009926,1.994,2924.8699131999965,,,,,517,18,Woman,Right,
,,,,,,,,,,,,,,,,,517,18,Woman,Right,5,38,0.4,1,180,-,180,1.2153494999947725,['y'],1.119621999998344,1.87,2929.2688734999974,,,,,517,18,Woman,Right,
,,,,,,,,,,,,,,,,,517,18,Woman,Right,5,58,0.15,1,180,-,180,0.296349399999599,['n'],0.4161588999995729,1.8780000000000001,2932.136556600002,,,,,517,18,Woman,Right,
,,,,,,,,,,,,,,,,,517,18,Woman,Right,5,28,0.4,1,0,-,0,0.07713389999844367,['y'],3.0715967000069213,1.8940000000000001,2937.485616500002,,,,,517,18,Woman,Right,
,,,,,,,,,,,,,,,,,,,,,,,,,,,,,,,,,60.0,55.0,70.0,2291.0466849000004,,,,,
