p_block,p_section,p_coherence,p_direction1,p_direction2,p_direction_response,p_direction_RT,p_change_response,p_change_RT,p_confidence,p_full_correct,p_without5_correct,p_full_total,p_without5_total,p_full_avg,p_witout5_avg,p_total_time,sub,age,sex,handedness,loop,trial randomization,coherence,condition,direction1,direction2,direction_response,direction_RT,change_response,change_RT,change_confidence,change_confidence_RT,block_direction_avg,block_stable_avg,block_change_avg,total_time,sub,age,sex,handedness,
1,1,1.0,180,-,180,0.6231639000000087,-,-,-,,,,,,,,539,19,Woman,Right,,,,,,,,,,,,,,,,,539,19,Woman,Right,
1,1,1.0,180,-,180,0.2717104000000745,-,-,-,,,,,,,,539,19,Woman,Right,,,,,,,,,,,,,,,,,539,19,Woman,Right,
1,1,1.0,0,-,0,0.0875068000000283,-,-,-,,,,,,,,539,19,Woman,Right,,,,,,,,,,,,,,,,,539,19,Woman,Right,
1,1,1.0,180,-,180,0.017098699999905875,-,-,-,,,,,,,,539,19,Woman,Right,,,,,,,,,,,,,,,,,539,19,Woman,Right,
1,1,1.0,180,-,180,0.0643268999999691,-,-,-,,,,,,,,539,19,Woman,Right,,,,,,,,,,,,,,,,,539,19,Woman,Right,
1,1,1.0,180,-,180,0.24048739999989266,-,-,-,,,,,,,,539,19,Woman,Right,,,,,,,,,,,,,,,,,539,19,Woman,Right,
1,1,1.0,0,-,0,0.1857299000000694,-,-,-,,,,,,,,539,19,Woman,Right,,,,,,,,,,,,,,,,,539,19,Woman,Right,
1,1,1.0,180,-,180,0.01685929999985092,-,-,-,,,,,,,,539,19,Woman,Right,,,,,,,,,,,,,,,,,539,19,Woman,Right,
1,1,1.0,180,-,180,0.09297440000000279,-,-,-,,,,,,,,539,19,Woman,Right,,,,,,,,,,,,,,,,,539,19,Woman,Right,
1,1,1.0,180,-,180,0.01692600000001221,-,-,-,10,10,10,10,1.0,1.0,,539,19,Woman,Right,,,,,,,,,,,,,,,,,539,19,Woman,Right,
2,1,0.4,180,-,180,0.26099770000018907,-,-,-,,,,,,,,539,19,Woman,Right,,,,,,,,,,,,,,,,,539,19,Woman,Right,
2,1,0.15,0,-,0,0.021136000000069544,-,-,-,,,,,,,,539,19,Woman,Right,,,,,,,,,,,,,,,,,539,19,Woman,Right,
2,1,0.4,180,-,180,0.05443709999985913,-,-,-,,,,,,,,539,19,Woman,Right,,,,,,,,,,,,,,,,,539,19,Woman,Right,
2,1,0.15,180,-,0,0.18974630000002435,-,-,-,,,,,,,,539,19,Woman,Right,,,,,,,,,,,,,,,,,539,19,Woman,Right,
2,1,0.4,0,-,0,0.06442450000008648,-,-,-,,,,,,,,539,19,Woman,Right,,,,,,,,,,,,,,,,,539,19,Woman,Right,
2,1,0.15,0,-,0,0.10495719999994435,-,-,-,,,,,,,,539,19,Woman,Right,,,,,,,,,,,,,,,,,539,19,Woman,Right,
2,1,0.4,180,-,180,0.11038959999996223,-,-,-,,,,,,,,539,19,Woman,Right,,,,,,,,,,,,,,,,,539,19,Woman,Right,
2,1,0.15,180,-,180,0.2611806999998407,-,-,-,,,,,,,,539,19,Woman,Right,,,,,,,,,,,,,,,,,539,19,Woman,Right,
2,1,0.4,0,-,0,0.016402199999902223,-,-,-,,,,,,,,539,19,Woman,Right,,,,,,,,,,,,,,,,,539,19,Woman,Right,
2,1,0.15,180,-,180,0.31586640000000443,-,-,-,9,5,10,5,0.9,1.0,,539,19,Woman,Right,,,,,,,,,,,,,,,,,539,19,Woman,Right,
3,2,1.0,0,180,0,1.8660793999999896,['n'],5.854213699999946,1.268,,,,,,,,539,19,Woman,Right,,,,,,,,,,,,,,,,,539,19,Woman,Right,
3,2,1.0,180,0,0,4.966262700000016,['y'],3.8605740999998943,1.98,,,,,,,,539,19,Woman,Right,,,,,,,,,,,,,,,,,539,19,Woman,Right,
3,2,1.0,180,0,0,1.0916944999999032,['y'],2.108037500000137,1.968,,,,,,,,539,19,Woman,Right,,,,,,,,,,,,,,,,,539,19,Woman,Right,
3,2,1.0,0,180,180,1.1308264000003874,['y'],1.299710000000232,2.0,,,,,,,,539,19,Woman,Right,,,,,,,,,,,,,,,,,539,19,Woman,Right,
3,2,1.0,180,0,0,0.779703199999858,['y'],1.5219068999999763,1.982,,,,,,,,539,19,Woman,Right,,,,,,,,,,,,,,,,,539,19,Woman,Right,
3,2,1.0,0,180,180,1.1396896000001107,['y'],1.9403889000000163,1.938,,,,,,,,539,19,Woman,Right,,,,,,,,,,,,,,,,,539,19,Woman,Right,
3,2,1.0,180,0,0,0.5823159000001397,['y'],2.612703799999963,1.944,,,,,,,,539,19,Woman,Right,,,,,,,,,,,,,,,,,539,19,Woman,Right,
3,2,1.0,0,180,180,0.5498923999998624,['y'],2.1085307999996985,1.982,,,,,,,,539,19,Woman,Right,,,,,,,,,,,,,,,,,539,19,Woman,Right,
3,2,1.0,0,180,180,0.41628010000022186,['y'],0.9970185000001948,1.952,,,,,,,,539,19,Woman,Right,,,,,,,,,,,,,,,,,539,19,Woman,Right,
3,2,1.0,180,0,0,0.427558300000328,['y'],1.6248584999998457,1.974,9,9,10,10,0.9,0.9,,539,19,Woman,Right,,,,,,,,,,,,,,,,,539,19,Woman,Right,
4,2,0.15,0,180,180,1.8607868999997663,['n'],2.5683422999995855,1.222,,,,,,,,539,19,Woman,Right,,,,,,,,,,,,,,,,,539,19,Woman,Right,
4,2,0.4,0,180,180,0.916685900000175,['y'],2.2332039000002624,1.248,,,,,,,,539,19,Woman,Right,,,,,,,,,,,,,,,,,539,19,Woman,Right,
4,2,0.15,0,180,0,1.640950200000134,['n'],1.237228700000287,1.05,,,,,,,,539,19,Woman,Right,,,,,,,,,,,,,,,,,539,19,Woman,Right,
4,2,0.4,0,180,0,1.899431999999706,['y'],0.7551568000003499,1.464,,,,,,,,539,19,Woman,Right,,,,,,,,,,,,,,,,,539,19,Woman,Right,
4,2,0.15,180,0,180,0.5959515999998075,['n'],1.0587915000000976,1.302,,,,,,,,539,19,Woman,Right,,,,,,,,,,,,,,,,,539,19,Woman,Right,
4,2,0.15,0,180,180,1.1138671000003342,['y'],1.3805072999998629,1.244,,,,,,,,539,19,Woman,Right,,,,,,,,,,,,,,,,,539,19,Woman,Right,
4,2,0.15,0,180,0,0.509669600000052,['y'],1.3435459999996056,1.494,,,,,,,,539,19,Woman,Right,,,,,,,,,,,,,,,,,539,19,Woman,Right,
4,2,0.4,180,0,0,1.0659481000002415,['y'],0.08071820000031948,1.696,,,,,,,,539,19,Woman,Right,,,,,,,,,,,,,,,,,539,19,Woman,Right,
4,2,0.15,180,0,0,1.9165046000002803,['y'],0.45182660000000396,1.69,,,,,,,,539,19,Woman,Right,,,,,,,,,,,,,,,,,539,19,Woman,Right,
4,2,0.4,180,0,0,0.5158940000001166,['y'],0.5178384000000733,1.726,,,,,,,,539,19,Woman,Right,,,,,,,,,,,,,,,,,539,19,Woman,Right,
4,2,0.15,180,0,0,0.40673289999995177,['y'],1.1970772000004217,1.814,,,,,,,,539,19,Woman,Right,,,,,,,,,,,,,,,,,539,19,Woman,Right,
4,2,0.4,0,180,0,0.6620449000001827,['y'],1.4497255999999652,1.72,,,,,,,,539,19,Woman,Right,,,,,,,,,,,,,,,,,539,19,Woman,Right,
4,2,0.4,0,180,180,0.877151899999717,['y'],0.5439713999999185,1.714,,,,,,,,539,19,Woman,Right,,,,,,,,,,,,,,,,,539,19,Woman,Right,
4,2,0.4,0,180,180,0.9324385999998412,['y'],0.5976818000003732,1.812,,,,,,,,539,19,Woman,Right,,,,,,,,,,,,,,,,,539,19,Woman,Right,
4,2,0.15,0,180,0,1.6041921000000912,['y'],0.9389342999998007,1.78,,,,,,,,539,19,Woman,Right,,,,,,,,,,,,,,,,,539,19,Woman,Right,
4,2,0.15,0,180,0,1.6999663999999939,['y'],1.606205300000056,1.808,,,,,,,,539,19,Woman,Right,,,,,,,,,,,,,,,,,539,19,Woman,Right,
4,2,0.15,0,180,180,1.04194600000028,['y'],0.44713350000029095,1.722,,,,,,,,539,19,Woman,Right,,,,,,,,,,,,,,,,,539,19,Woman,Right,
4,2,0.15,180,0,180,0.43583940000007715,['y'],1.0412042000002657,1.738,,,,,,,,539,19,Woman,Right,,,,,,,,,,,,,,,,,539,19,Woman,Right,
4,2,0.15,0,180,180,1.4263002000002416,['y'],0.8723134000001664,1.778,,,,,,,,539,19,Woman,Right,,,,,,,,,,,,,,,,,539,19,Woman,Right,
4,2,0.4,180,0,0,0.7481536999998752,['y'],0.948223599999892,1.808,,,,,,,,539,19,Woman,Right,,,,,,,,,,,,,,,,,539,19,Woman,Right,
4,2,0.15,180,0,180,0.5082820000002357,['y'],0.9820740000000114,1.738,,,,,,,,539,19,Woman,Right,,,,,,,,,,,,,,,,,539,19,Woman,Right,
4,2,0.15,180,0,180,0.8586202999999841,['y'],1.3272291000002951,1.744,,,,,,,,539,19,Woman,Right,,,,,,,,,,,,,,,,,539,19,Woman,Right,
4,2,0.4,180,0,0,0.45256620000009207,['y'],1.0646549000002778,1.83,,,,,,,,539,19,Woman,Right,,,,,,,,,,,,,,,,,539,19,Woman,Right,
4,2,0.4,0,180,180,0.3528571000001648,['y'],0.6421829999999318,1.822,,,,,,,,539,19,Woman,Right,,,,,,,,,,,,,,,,,539,19,Woman,Right,
4,2,0.15,0,180,0,0.3872338999999556,['y'],0.810775299999932,1.74,,,,,,,,539,19,Woman,Right,,,,,,,,,,,,,,,,,539,19,Woman,Right,
4,2,0.4,0,180,180,0.5108264000000418,['y'],1.5861101999998937,1.76,,,,,,,,539,19,Woman,Right,,,,,,,,,,,,,,,,,539,19,Woman,Right,
4,2,0.4,0,180,180,0.3711466999998265,['y'],1.3320852999995623,1.824,,,,,,,,539,19,Woman,Right,,,,,,,,,,,,,,,,,539,19,Woman,Right,
4,2,0.15,0,180,180,0.37290919999986727,['y'],0.7661316999997325,1.766,,,,,,,,539,19,Woman,Right,,,,,,,,,,,,,,,,,539,19,Woman,Right,
4,2,0.4,180,0,0,2.2998508999999103,['y'],1.025169200000164,1.82,,,,,,,,539,19,Woman,Right,,,,,,,,,,,,,,,,,539,19,Woman,Right,
4,2,0.4,180,0,0,0.25089759999991657,['y'],1.8157978999997795,1.836,7,6,10,6,0.7,1.0,,539,19,Woman,Right,,,,,,,,,,,,,,,,,539,19,Woman,Right,
5,3,1.0,0,-,0,0.6161716999999953,['n'],2.3880464999997457,1.954,,,,,,,,539,19,Woman,Right,,,,,,,,,,,,,,,,,539,19,Woman,Right,
5,3,1.0,0,-,0,0.4455172000002676,['n'],1.7959336000003532,1.942,,,,,,,,539,19,Woman,Right,,,,,,,,,,,,,,,,,539,19,Woman,Right,
5,3,0.15,0,-,0,0.6415001999998822,['n'],0.8803395999998429,1.942,,,,,,,,539,19,Woman,Right,,,,,,,,,,,,,,,,,539,19,Woman,Right,
5,3,0.4,180,-,180,0.24903139999969426,['n'],2.5511983000001237,1.938,,,,,,,,539,19,Woman,Right,,,,,,,,,,,,,,,,,539,19,Woman,Right,
5,3,0.15,180,0,0,0.27229689999967377,['n'],2.061148300000241,1.706,,,,,,,,539,19,Woman,Right,,,,,,,,,,,,,,,,,539,19,Woman,Right,
5,3,0.15,180,0,180,1.1000985999999102,['n'],1.2541722999999365,1.3679999999999999,,,,,,,,539,19,Woman,Right,,,,,,,,,,,,,,,,,539,19,Woman,Right,
5,3,1.0,0,-,0,0.2953906999996434,['n'],1.7638032999998359,1.916,,,,,,,,539,19,Woman,Right,,,,,,,,,,,,,,,,,539,19,Woman,Right,
5,3,0.15,180,-,180,0.3324262999999519,['n'],0.7911787000002732,1.866,,,,,,,,539,19,Woman,Right,,,,,,,,,,,,,,,,,539,19,Woman,Right,
5,3,0.4,180,-,0,0.3107927999999447,['y'],1.979655399999956,1.252,,,,,,,,539,19,Woman,Right,,,,,,,,,,,,,,,,,539,19,Woman,Right,
5,3,1.0,180,0,0,2.4751044999998157,['y'],0.9612004999999044,1.928,8,5,10,6,0.8,0.8333333333333334,,539,19,Woman,Right,,,,,,,,,,,,,,,,,539,19,Woman,Right,
,,,,,,,,,,,,,,,,5.999999757477781e-06,539,19,Woman,Right,,,,,,,,,,,,,,,,,539,19,Woman,Right,
,,,,,,,,,,,,,,,,,539,19,Woman,Right,0,5,1,2,0,180,180,1.5893586999995932,['y'],4.33310849999998,1.93,619.6334906000002,,,,,539,19,Woman,Right,
,,,,,,,,,,,,,,,,,539,19,Woman,Right,0,50,0.15,1,180,-,180,1.4943088999998508,['y'],5.0773651000004065,1.932,630.4340677,,,,,539,19,Woman,Right,
,,,,,,,,,,,,,,,,,539,19,Woman,Right,0,64,0.15,1,0,-,180,1.5680856000003587,['y'],1.5890690000001086,1.704,637.5342052000001,,,,,539,19,Woman,Right,
,,,,,,,,,,,,,,,,,539,19,Woman,Right,0,26,0.4,1,180,-,0,0.8110803999998097,['y'],1.9170852000002014,1.366,643.4672986999999,,,,,539,19,Woman,Right,
,,,,,,,,,,,,,,,,,539,19,Woman,Right,0,30,0.4,1,180,-,0,0.8030897000003279,['y'],1.7728875000002517,1.376,650.5332303999999,,,,,539,19,Woman,Right,
,,,,,,,,,,,,,,,,,539,19,Woman,Right,0,4,1,1,0,-,0,0.39501130000007834,['y'],2.861042600000019,1.676,659.3673248,,,,,539,19,Woman,Right,
,,,,,,,,,,,,,,,,,539,19,Woman,Right,0,36,0.4,1,0,-,0,0.5316987999999583,['y'],7.365561600000092,1.63,673.2000137,,,,,539,19,Woman,Right,
,,,,,,,,,,,,,,,,,539,19,Woman,Right,0,43,0.4,2,180,0,0,0.5711662999997316,['n'],2.7489180000002307,1.326,679.883288,,,,,539,19,Woman,Right,
,,,,,,,,,,,,,,,,,539,19,Woman,Right,0,53,0.15,2,0,180,0,1.323442900000373,['n'],2.045422099999996,1.308,688.1507612,,,,,539,19,Woman,Right,
,,,,,,,,,,,,,,,,,539,19,Woman,Right,0,44,0.15,1,0,-,0,0.8583372999996755,['y'],1.0538170999998329,1.3980000000000001,695.2333204000001,,,,,539,19,Woman,Right,
,,,,,,,,,,,,,,,,,539,19,Woman,Right,0,68,0.15,1,0,-,0,1.1311103000002731,['y'],2.5498579000000063,1.4140000000000001,702.3830045999998,,,,,539,19,Woman,Right,
,,,,,,,,,,,,,,,,,539,19,Woman,Right,0,27,0.4,2,180,0,0,0.4732725999997456,['y'],1.085724499999742,1.676,708.9505319,,,,,539,19,Woman,Right,
,,,,,,,,,,,,,,,,,539,19,Woman,Right,0,14,0.4,1,180,-,0,0.7003146000001834,['y'],0.8826579000001402,1.6219999999999999,715.3672809999998,,,,,539,19,Woman,Right,
,,,,,,,,,,,,,,,,,539,19,Woman,Right,0,33,0.4,2,0,180,180,0.4410261999996692,['y'],1.1179964000002656,1.714,720.3166562000001,,,,,539,19,Woman,Right,
,,,,,,,,,,,,,,,,,539,19,Woman,Right,0,59,0.15,2,180,0,0,1.0913218000000597,['n'],1.2937199999996665,1.5939999999999999,726.0005479000001,,,,,539,19,Woman,Right,
,,,,,,,,,,,,,,,,,539,19,Woman,Right,0,34,0.4,1,180,-,0,0.4487642999997661,['y'],1.925768600000083,1.524,731.6498634999998,,,,,539,19,Woman,Right,
,,,,,,,,,,,,,,,,,539,19,Woman,Right,0,37,0.4,2,0,180,180,0.4734204999999747,['y'],1.1416949999997996,1.562,738.3833316999999,,,,,539,19,Woman,Right,
,,,,,,,,,,,,,,,,,539,19,Woman,Right,0,70,0.15,1,180,-,180,1.394656799999666,['n'],1.5100389000003815,1.292,744.6832586,,,,,539,19,Woman,Right,
,,,,,,,,,,,,,,,,,539,19,Woman,Right,0,31,0.4,2,180,0,0,0.31942860000026485,['y'],0.9737337999999909,1.702,749.3493794000001,,,,,539,19,Woman,Right,
,,,,,,,,,,,,,,,,,539,19,Woman,Right,0,2,1,1,180,-,0,0.6493552000001728,['y'],1.0945965999999316,1.748,757.5002927999999,,,,,539,19,Woman,Right,
,,,,,,,,,,,,,,,,,539,19,Woman,Right,0,24,0.4,1,0,-,180,0.47303550000015093,['y'],1.1178534000000582,1.692,763.2337539,,,,,539,19,Woman,Right,
,,,,,,,,,,,,,,,,,539,19,Woman,Right,0,54,0.15,1,180,-,0,0.41662300000007235,['n'],2.3582538999999088,1.288,770.7834483000001,,,,,539,19,Woman,Right,
,,,,,,,,,,,,,,,,,539,19,Woman,Right,0,8,0.4,1,0,-,0,0.9451500999998643,['y'],1.381638099999691,1.548,777.7668085,,,,,539,19,Woman,Right,
,,,,,,,,,,,,,,,,,539,19,Woman,Right,0,65,0.15,2,0,180,0,0.5864633000001049,['n'],1.1336140999997042,1.1560000000000001,782.6999305999998,,,,,539,19,Woman,Right,
,,,,,,,,,,,,,,,,,539,19,Woman,Right,0,6,1,1,180,-,0,0.5720178999999916,['n'],1.6062919000000875,1.314,789.8833688,,,,,539,19,Woman,Right,
,,,,,,,,,,,,,,,,,539,19,Woman,Right,0,35,0.4,2,180,0,0,0.35214749999977357,['y'],1.2542352999998911,1.626,795.0996584,,,,,539,19,Woman,Right,
,,,,,,,,,,,,,,,,,539,19,Woman,Right,0,56,0.15,1,0,-,0,1.1840676000001622,['y'],2.2055614999999307,1.262,803.7326871,,,,,539,19,Woman,Right,
,,,,,,,,,,,,,,,,,539,19,Woman,Right,0,75,0.15,2,180,0,0,1.8550540999999612,['y'],2.1018522999997913,1.238,813.2504779000001,,,,,539,19,Woman,Right,
,,,,,,,,,,,,,,,,,539,19,Woman,Right,0,7,1,2,180,0,0,0.3081274000001031,['y'],1.5742279000000963,1.896,819.2834048,,,,,539,19,Woman,Right,
,,,,,,,,,,,,,,,,,539,19,Woman,Right,0,29,0.4,2,0,180,0,0.6401464000000487,['y'],0.8143616000002112,1.658,824.3827366999999,,,,,539,19,Woman,Right,
,,,,,,,,,,,,,,,,,539,19,Woman,Right,0,67,0.15,2,180,0,0,0.5948220000000219,['y'],2.1742709999998624,1.566,830.4002838000001,,,,,539,19,Woman,Right,
,,,,,,,,,,,,,,,,,539,19,Woman,Right,0,62,0.15,1,180,-,0,0.5828590000000986,['y'],2.8760635000003276,1.418,837.0503973999998,,,,,539,19,Woman,Right,
,,,,,,,,,,,,,,,,,539,19,Woman,Right,0,48,0.15,1,0,-,0,1.8573570999997173,['n'],1.1986077000001387,1.324,843.233291,,,,,539,19,Woman,Right,
,,,,,,,,,,,,,,,,,539,19,Woman,Right,0,10,0.4,1,180,-,0,1.253340499999922,['n'],1.4465009999998983,1.346,849.2494947999999,,,,,539,19,Woman,Right,
,,,,,,,,,,,,,,,,,539,19,Woman,Right,0,79,0.15,2,180,0,0,1.062272799999846,['y'],1.1665087999999741,1.26,857.1664095000001,,,,,539,19,Woman,Right,
,,,,,,,,,,,,,,,,,539,19,Woman,Right,0,77,0.15,2,0,180,180,2.0202902999999424,['y'],1.3827729999998155,1.5899999999999999,863.8831773000002,,,,,539,19,Woman,Right,
,,,,,,,,,,,,,,,,,539,19,Woman,Right,0,19,0.4,2,180,0,0,0.47913100000005215,['y'],1.2227249000002303,1.712,869.8005622000001,,,,,539,19,Woman,Right,
,,,,,,,,,,,,,,,,,539,19,Woman,Right,0,74,0.15,1,180,-,0,0.5472220000001471,['y'],5.270687799999905,1.318,878.716457,,,,,539,19,Woman,Right,
,,,,,,,,,,,,,,,,,539,19,Woman,Right,0,20,0.4,1,0,-,180,0.8670738000000711,['y'],1.1024778000000879,1.6139999999999999,884.2496818,,,,,539,19,Woman,Right,
,,,,,,,,,,,,,,,,,539,19,Woman,Right,0,18,0.4,1,180,-,0,0.9347121000000698,['n'],0.7346885000001748,1.3679999999999999,889.4998986,,,,,539,19,Woman,Right,
,,,,,,,,,,,,,,,,,539,19,Woman,Right,0,72,0.15,1,0,-,180,1.8495685999996567,['n'],0.9348756999997931,1.634,898.1837359000001,,,,,539,19,Woman,Right,
,,,,,,,,,,,,,,,,,539,19,Woman,Right,0,9,0.4,2,0,180,180,0.5614739000002373,['y'],0.8307632999999441,1.704,903.6667011999998,,,,,539,19,Woman,Right,
,,,,,,,,,,,,,,,,,539,19,Woman,Right,0,0,1,1,0,-,0,2.17891950000012,['n'],0.7828613000001496,1.612,911.5824576999998,,,,,539,19,Woman,Right,
,,,,,,,,,,,,,,,,,539,19,Woman,Right,0,46,0.15,1,180,-,0,0.6600074000002678,['y'],1.6466826000000765,1.426,917.9328916,,,,,539,19,Woman,Right,
,,,,,,,,,,,,,,,,,539,19,Woman,Right,0,58,0.15,1,180,-,180,1.6385519999998905,['n'],0.9987925999998879,1.284,923.4336822,,,,,539,19,Woman,Right,
,,,,,,,,,,,,,,,,,539,19,Woman,Right,0,60,0.15,1,0,-,0,1.538316499999837,['y'],2.158981699999913,1.306,932.9666987,,,,,539,19,Woman,Right,
,,,,,,,,,,,,,,,,,539,19,Woman,Right,0,45,0.15,2,0,180,0,0.6956815000003189,['n'],1.918796100000236,1.232,938.9330076000001,,,,,539,19,Woman,Right,
,,,,,,,,,,,,,,,,,539,19,Woman,Right,0,12,0.4,1,0,-,180,1.1598226000000977,['n'],2.1342910999997002,1.662,948.7325319000001,,,,,539,19,Woman,Right,
,,,,,,,,,,,,,,,,,539,19,Woman,Right,0,76,0.15,1,0,-,0,2.882466199999726,['y'],2.0844697999996242,1.698,958.7002398,,,,,539,19,Woman,Right,
,,,,,,,,,,,,,,,,,539,19,Woman,Right,0,25,0.4,2,0,180,180,1.039423799999895,['y'],1.3350775999997495,1.6320000000000001,965.5665167000002,,,,,539,19,Woman,Right,
,,,,,,,,,,,,,,,,,539,19,Woman,Right,0,41,0.4,2,0,180,180,0.5668590000000222,['y'],1.1751757000001817,1.708,972.566624,,,,,539,19,Woman,Right,
,,,,,,,,,,,,,,,,,539,19,Woman,Right,0,32,0.4,1,0,-,0,1.26006069999994,['n'],0.7348833999999442,1.6280000000000001,978.9828775999999,,,,,539,19,Woman,Right,
,,,,,,,,,,,,,,,,,539,19,Woman,Right,0,55,0.15,2,180,0,0,0.7036499000000731,['n'],1.279520600000069,1.214,984.6828850000002,,,,,539,19,Woman,Right,
,,,,,,,,,,,,,,,,,539,19,Woman,Right,0,71,0.15,2,180,0,0,1.090369600000031,['n'],2.5912734000003184,1.174,991.4661427000001,,,,,539,19,Woman,Right,
,,,,,,,,,,,,,,,,,539,19,Woman,Right,0,38,0.4,1,180,-,0,0.3531060999998772,['n'],1.5111941999998635,1.276,997.1826909000001,,,,,539,19,Woman,Right,
,,,,,,,,,,,,,,,,,539,19,Woman,Right,0,40,0.4,1,0,-,180,1.3481932999998207,['y'],1.743699000000106,1.35,1003.4827955000001,,,,,539,19,Woman,Right,
,,,,,,,,,,,,,,,,,539,19,Woman,Right,0,66,0.15,1,180,-,0,0.7979270000000724,['y'],2.3907101999998304,1.286,1011.1500080000001,,,,,539,19,Woman,Right,
,,,,,,,,,,,,,,,,,539,19,Woman,Right,0,11,0.4,2,180,0,0,0.2437430999998469,['y'],2.4477107999996406,1.718,1017.9663958000001,,,,,539,19,Woman,Right,
,,,,,,,,,,,,,,,,,539,19,Woman,Right,0,15,0.4,2,180,0,0,0.31393279999974766,['y'],1.0231243999996877,1.748,1022.8825321999998,,,,,539,19,Woman,Right,
,,,,,,,,,,,,,,,,,539,19,Woman,Right,0,49,0.15,2,0,180,0,0.6570043000001533,['y'],1.799672399999963,1.662,1028.7827827,,,,,539,19,Woman,Right,
,,,,,,,,,,,,,,,,,539,19,Woman,Right,0,52,0.15,1,0,-,0,0.6351801999999225,['y'],1.3994533999998566,1.3479999999999999,1034.332833,,,,,539,19,Woman,Right,
,,,,,,,,,,,,,,,,,539,19,Woman,Right,0,57,0.15,2,0,180,0,0.3401683000001867,['y'],1.3432732999999644,1.328,1039.2830899,,,,,539,19,Woman,Right,
,,,,,,,,,,,,,,,,,539,19,Woman,Right,0,16,0.4,1,0,-,180,0.3762123999999858,['y'],1.4400588000003154,1.276,1046.0989516,,,,,539,19,Woman,Right,
,,,,,,,,,,,,,,,,,539,19,Woman,Right,0,21,0.4,2,0,180,0,0.612441399999625,['y'],0.9757959999997183,1.6179999999999999,1051.1496186,,,,,539,19,Woman,Right,
,,,,,,,,,,,,,,,,,539,19,Woman,Right,0,73,0.15,2,0,180,180,2.0256171999999424,['y'],0.9997499000000971,1.28,1057.7826286999998,,,,,539,19,Woman,Right,
,,,,,,,,,,,,,,,,,539,19,Woman,Right,0,17,0.4,2,0,180,180,1.141266899999664,['y'],1.3274483000000146,1.682,1063.7827782999998,,,,,539,19,Woman,Right,
,,,,,,,,,,,,,,,,,539,19,Woman,Right,0,51,0.15,2,180,0,0,0.36776030000009996,['n'],2.567911499999809,1.244,1071.5323388000002,,,,,539,19,Woman,Right,
,,,,,,,,,,,,,,,,,539,19,Woman,Right,0,28,0.4,1,0,-,0,0.7003940999998122,['n'],3.2655076000000918,1.296,1078.7500885,,,,,539,19,Woman,Right,
,,,,,,,,,,,,,,,,,539,19,Woman,Right,0,39,0.4,2,180,0,0,0.5578166000000238,['y'],1.432056200000261,1.732,1084.0166304,,,,,539,19,Woman,Right,
,,,,,,,,,,,,,,,,,539,19,Woman,Right,0,23,0.4,2,180,0,0,0.3616799000001265,['y'],1.639982400000008,1.718,1089.4494079,,,,,539,19,Woman,Right,
,,,,,,,,,,,,,,,,,539,19,Woman,Right,0,3,1,2,180,0,0,0.4699611000000914,['y'],1.2233471999998073,1.934,1096.1166432999999,,,,,539,19,Woman,Right,
,,,,,,,,,,,,,,,,,539,19,Woman,Right,0,1,1,2,0,180,180,0.5571691000000101,['y'],1.1913457000000562,1.93,1101.1665638,,,,,539,19,Woman,Right,
,,,,,,,,,,,,,,,,,539,19,Woman,Right,0,13,0.4,2,0,180,180,0.8435659000001579,['y'],0.9276829000000362,1.88,1107.7997228,,,,,539,19,Woman,Right,
,,,,,,,,,,,,,,,,,539,19,Woman,Right,0,61,0.15,2,0,180,180,0.6659490000001824,['y'],1.340050699999665,1.796,1113.2162238,,,,,539,19,Woman,Right,
,,,,,,,,,,,,,,,,,539,19,Woman,Right,0,78,0.15,1,180,-,180,0.6796770000000834,['y'],0.9435944000001655,1.798,1118.2822540000002,,,,,539,19,Woman,Right,
,,,,,,,,,,,,,,,,,539,19,Woman,Right,0,22,0.4,1,180,-,0,0.30018169999993916,['y'],0.7917554000000564,1.674,1122.2330908999998,,,,,539,19,Woman,Right,
,,,,,,,,,,,,,,,,,539,19,Woman,Right,0,47,0.15,2,180,0,0,0.38305179999997563,['y'],1.2625100000000202,1.712,1127.9321022,,,,,539,19,Woman,Right,
,,,,,,,,,,,,,,,,,539,19,Woman,Right,0,69,0.15,2,0,180,0,0.29521939999995084,['y'],1.5041689999998198,1.788,1133.3165761,,,,,539,19,Woman,Right,
,,,,,,,,,,,,,,,,,539,19,Woman,Right,0,42,0.4,1,180,-,0,0.8825755000002573,['y'],0.8241171999998187,1.75,1140.666494,,,,,539,19,Woman,Right,
,,,,,,,,,,,,,,,,,539,19,Woman,Right,0,63,0.15,2,180,0,0,0.8080911000001834,['y'],0.9033997999999883,1.688,1146.9657083000002,,,,,539,19,Woman,Right,
,,,,,,,,,,,,,,,,,539,19,Woman,Right,1,15,0.4,2,180,0,0,0.3892774000000827,['y'],1.5520139999998719,1.78,1172.1825589,61.25,32.5,80.0,,539,19,Woman,Right,
,,,,,,,,,,,,,,,,,539,19,Woman,Right,1,74,0.15,1,180,-,0,0.2938211999999112,['y'],0.8725035000002208,1.744,1178.0491814000002,,,,,539,19,Woman,Right,
,,,,,,,,,,,,,,,,,539,19,Woman,Right,1,30,0.4,1,180,-,0,0.2964013000000705,['y'],1.0479199999999764,1.774,1182.2822445000002,,,,,539,19,Woman,Right,
,,,,,,,,,,,,,,,,,539,19,Woman,Right,1,28,0.4,1,0,-,180,0.5603354999998373,['n'],1.8320434000002024,1.408,1188.4164796999999,,,,,539,19,Woman,Right,
,,,,,,,,,,,,,,,,,539,19,Woman,Right,1,54,0.15,1,180,-,180,2.047149999999874,['n'],1.1441423999999643,1.692,1195.1820705,,,,,539,19,Woman,Right,
,,,,,,,,,,,,,,,,,539,19,Woman,Right,1,9,0.4,2,0,180,0,0.6883129000002555,['y'],1.2320339999996577,1.688,1200.099224,,,,,539,19,Woman,Right,
,,,,,,,,,,,,,,,,,539,19,Woman,Right,1,65,0.15,2,0,180,180,0.5492248999998992,['y'],2.192128799999864,1.208,1207.049845,,,,,539,19,Woman,Right,
,,,,,,,,,,,,,,,,,539,19,Woman,Right,1,0,1,1,0,-,0,0.6045307999997931,['n'],1.6168791000000056,1.934,1213.0161838999998,,,,,539,19,Woman,Right,
,,,,,,,,,,,,,,,,,539,19,Woman,Right,1,51,0.15,2,180,0,180,2.1491359999999986,['n'],0.8481756000001042,1.672,1219.5832649,,,,,539,19,Woman,Right,
,,,,,,,,,,,,,,,,,539,19,Woman,Right,1,26,0.4,1,180,-,180,1.8917797999997674,['n'],3.216539399999874,1.328,1228.1493587,,,,,539,19,Woman,Right,
,,,,,,,,,,,,,,,,,539,19,Woman,Right,1,35,0.4,2,180,0,180,1.4664926999998897,['n'],2.0043736000002355,1.176,1234.5158348,,,,,539,19,Woman,Right,
,,,,,,,,,,,,,,,,,539,19,Woman,Right,1,7,1,2,180,0,0,0.6335464000003412,['y'],1.1526531999998042,1.94,1239.9828167,,,,,539,19,Woman,Right,
,,,,,,,,,,,,,,,,,539,19,Woman,Right,1,6,1,1,180,-,180,0.5529366000000664,['n'],0.9044922999996743,1.938,1244.832167,,,,,539,19,Woman,Right,
,,,,,,,,,,,,,,,,,539,19,Woman,Right,1,57,0.15,2,0,180,0,0.8551102999999785,['n'],1.0483956000002763,1.452,1252.2824387,,,,,539,19,Woman,Right,
,,,,,,,,,,,,,,,,,539,19,Woman,Right,1,43,0.4,2,180,0,180,1.2998736999998073,['y'],1.1971018999997796,1.022,1261.5326948000002,,,,,539,19,Woman,Right,
,,,,,,,,,,,,,,,,,539,19,Woman,Right,1,2,1,1,180,-,180,0.6636146000000736,['n'],1.4407614000001558,1.956,1267.9321332,,,,,539,19,Woman,Right,
,,,,,,,,,,,,,,,,,539,19,Woman,Right,1,1,1,2,0,180,0,1.7122976000000563,['y'],1.944836099999975,1.956,1267.9321332,,,,,539,19,Woman,Right,
,,,,,,,,,,,,,,,,,539,19,Woman,Right,1,31,0.4,2,180,0,0,0.5234464999998636,['y'],1.0650058000001081,1.7,1279.7824351,,,,,539,19,Woman,Right,
,,,,,,,,,,,,,,,,,539,19,Woman,Right,1,17,0.4,2,0,180,0,1.1493951000002198,['y'],0.8009401999997863,1.798,1284.8995715,,,,,539,19,Woman,Right,
,,,,,,,,,,,,,,,,,539,19,Woman,Right,1,11,0.4,2,180,0,0,0.5100578999999925,['y'],0.8169975999999224,1.792,1289.3664174,,,,,539,19,Woman,Right,
,,,,,,,,,,,,,,,,,539,19,Woman,Right,1,24,0.4,1,0,-,0,1.2525207999997292,['y'],0.984584299999824,1.836,1295.2824116000002,,,,,539,19,Woman,Right,
,,,,,,,,,,,,,,,,,539,19,Woman,Right,1,33,0.4,2,0,180,180,0.5267581999996764,['y'],0.8567708000000493,1.314,1299.5494024,,,,,539,19,Woman,Right,
,,,,,,,,,,,,,,,,,539,19,Woman,Right,1,71,0.15,2,180,0,180,2.139786300000196,['y'],3.800853800000368,1.3399999999999999,1309.5163223999998,,,,,539,19,Woman,Right,
,,,,,,,,,,,,,,,,,539,19,Woman,Right,1,5,1,2,0,180,180,0.9472172999999202,['y'],0.8646576000001005,1.752,1315.2485965,,,,,539,19,Woman,Right,
,,,,,,,,,,,,,,,,,539,19,Woman,Right,1,50,0.15,1,180,-,180,1.7096738000000187,['y'],2.5371832000000722,1.492,1322.5323165999998,,,,,539,19,Woman,Right,
,,,,,,,,,,,,,,,,,539,19,Woman,Right,1,52,0.15,1,0,-,0,0.7013103999997838,['n'],1.208855500000027,1.252,1329.2829428,,,,,539,19,Woman,Right,
,,,,,,,,,,,,,,,,,539,19,Woman,Right,1,76,0.15,1,0,-,0,1.8038323999999193,['y'],2.01624320000019,1.276,1336.2824808,,,,,539,19,Woman,Right,
,,,,,,,,,,,,,,,,,539,19,Woman,Right,1,20,0.4,1,0,-,0,1.0842489000001478,['n'],1.4012007999999696,1.322,1342.3989591,,,,,539,19,Woman,Right,
,,,,,,,,,,,,,,,,,539,19,Woman,Right,1,19,0.4,2,180,0,180,1.0755760000001828,['y'],1.2332808999999543,1.374,1349.7823180999999,,,,,539,19,Woman,Right,
,,,,,,,,,,,,,,,,,539,19,Woman,Right,1,41,0.4,2,0,180,0,0.627899200000229,['y'],2.225030600000082,1.26,1355.7158533000002,,,,,539,19,Woman,Right,
,,,,,,,,,,,,,,,,,539,19,Woman,Right,1,72,0.15,1,0,-,0,1.198884899999939,['y'],7.705403599999954,1.688,1368.865214,,,,,539,19,Woman,Right,
,,,,,,,,,,,,,,,,,539,19,Woman,Right,1,79,0.15,2,180,0,180,0.858767600000192,['y'],1.3210303999999269,1.716,1374.5665893,,,,,539,19,Woman,Right,
,,,,,,,,,,,,,,,,,539,19,Woman,Right,1,67,0.15,2,180,0,180,0.712224100000185,['y'],1.2728751999998167,1.6600000000000001,1380.8658166,,,,,539,19,Woman,Right,
,,,,,,,,,,,,,,,,,539,19,Woman,Right,1,46,0.15,1,180,-,0,0.6103484999998727,['n'],1.8568990999997368,1.282,1386.1158013,,,,,539,19,Woman,Right,
,,,,,,,,,,,,,,,,,539,19,Woman,Right,1,59,0.15,2,180,0,0,1.6383332000000337,['n'],0.6813045999997485,1.248,1391.4324585999998,,,,,539,19,Woman,Right,
,,,,,,,,,,,,,,,,,539,19,Woman,Right,1,8,0.4,1,0,-,0,1.2992487999999867,['y'],0.8975868999996237,1.284,1396.6659908000001,,,,,539,19,Woman,Right,
,,,,,,,,,,,,,,,,,539,19,Woman,Right,1,75,0.15,2,180,0,0,1.1295528000000559,['y'],1.0414204000003338,1.174,1401.8655809000002,,,,,539,19,Woman,Right,
,,,,,,,,,,,,,,,,,539,19,Woman,Right,1,21,0.4,2,0,180,180,1.4965807999997196,['n'],1.1215425000000323,1.31,1407.8489746999999,,,,,539,19,Woman,Right,
,,,,,,,,,,,,,,,,,539,19,Woman,Right,1,68,0.15,1,0,-,180,1.299811899999895,['n'],1.0802307999997538,1.284,1413.3321366,,,,,539,19,Woman,Right,
,,,,,,,,,,,,,,,,,539,19,Woman,Right,1,18,0.4,1,180,-,180,0.8875691000002917,['n'],1.3452330000000075,1.638,1418.8995298999998,,,,,539,19,Woman,Right,
,,,,,,,,,,,,,,,,,539,19,Woman,Right,1,44,0.15,1,0,-,0,1.5647453999999925,['y'],1.1373994000000494,1.814,1424.5492570000001,,,,,539,19,Woman,Right,
,,,,,,,,,,,,,,,,,539,19,Woman,Right,1,61,0.15,2,0,180,0,0.7165939000001345,['y'],1.06582329999992,1.738,1429.6827312,,,,,539,19,Woman,Right,
,,,,,,,,,,,,,,,,,539,19,Woman,Right,1,42,0.4,1,180,-,0,0.8202207999997881,['y'],1.394037600000047,1.334,1435.6324928999998,,,,,539,19,Woman,Right,
,,,,,,,,,,,,,,,,,539,19,Woman,Right,1,29,0.4,2,0,180,0,0.5441138000001047,['n'],1.2900887000000694,1.786,1440.4322059,,,,,539,19,Woman,Right,
,,,,,,,,,,,,,,,,,539,19,Woman,Right,1,58,0.15,1,180,-,180,0.8809300000002622,['n'],2.8659014999998362,1.784,1447.865085,,,,,539,19,Woman,Right,
,,,,,,,,,,,,,,,,,539,19,Woman,Right,1,63,0.15,2,180,0,0,1.8735525000001871,['y'],1.969739799999843,1.3780000000000001,1454.9152921999998,,,,,539,19,Woman,Right,
,,,,,,,,,,,,,,,,,539,19,Woman,Right,1,38,0.4,1,180,-,0,2.030912299999727,['n'],2.161643599999934,1.28,1463.6158891999999,,,,,539,19,Woman,Right,
,,,,,,,,,,,,,,,,,539,19,Woman,Right,1,64,0.15,1,0,-,0,1.7332237000000532,['n'],1.481879200000094,1.26,1471.0660899,,,,,539,19,Woman,Right,
,,,,,,,,,,,,,,,,,539,19,Woman,Right,1,16,0.4,1,0,-,0,0.7891219999996792,['n'],1.2660644000002321,1.272,1477.1490456000001,,,,,539,19,Woman,Right,
,,,,,,,,,,,,,,,,,539,19,Woman,Right,1,40,0.4,1,0,-,0,0.7617415000004257,['n'],0.6741114999999809,1.5979999999999999,1481.5991699,,,,,539,19,Woman,Right,
,,,,,,,,,,,,,,,,,539,19,Woman,Right,1,37,0.4,2,0,180,0,0.7022390000001906,['n'],1.3061947999999575,1.626,1487.465718,,,,,539,19,Woman,Right,
,,,,,,,,,,,,,,,,,539,19,Woman,Right,1,60,0.15,1,0,-,0,1.4216458000000785,['y'],1.3297271000001274,1.6,1494.4661059999999,,,,,539,19,Woman,Right,
,,,,,,,,,,,,,,,,,539,19,Woman,Right,1,4,1,1,0,-,0,0.3415564000001723,['n'],2.1457343000001856,1.954,1501.3653843000002,,,,,539,19,Woman,Right,
,,,,,,,,,,,,,,,,,539,19,Woman,Right,1,27,0.4,2,180,0,180,0.909885900000063,['n'],4.426130900000317,1.6179999999999999,1513.5989177000001,,,,,539,19,Woman,Right,
,,,,,,,,,,,,,,,,,539,19,Woman,Right,1,22,0.4,1,180,-,180,1.5762556999998196,['y'],1.0098730999998224,1.65,1519.8988737,,,,,539,19,Woman,Right,
,,,,,,,,,,,,,,,,,539,19,Woman,Right,1,12,0.4,1,0,-,0,0.877757499999916,['y'],1.705551000000014,1.692,1525.7324388000002,,,,,539,19,Woman,Right,
,,,,,,,,,,,,,,,,,539,19,Woman,Right,1,3,1,2,180,0,0,0.5771970000000692,['y'],1.1614581999997426,1.874,1530.6815957999997,,,,,539,19,Woman,Right,
,,,,,,,,,,,,,,,,,539,19,Woman,Right,1,32,0.4,1,0,-,0,0.8096449999998185,['n'],1.7299395999998524,1.814,1536.3823687,,,,,539,19,Woman,Right,
,,,,,,,,,,,,,,,,,539,19,Woman,Right,1,53,0.15,2,0,180,0,2.5300803999998607,['n'],1.1461643000002368,1.672,1545.6990286,,,,,539,19,Woman,Right,
,,,,,,,,,,,,,,,,,539,19,Woman,Right,1,70,0.15,1,180,-,0,2.047736900000018,['y'],3.1306141000000025,1.1,1554.0816098999999,,,,,539,19,Woman,Right,
,,,,,,,,,,,,,,,,,539,19,Woman,Right,1,13,0.4,2,0,180,0,3.971161100000245,['n'],1.690052000000378,1.63,1565.1823736000001,,,,,539,19,Woman,Right,
,,,,,,,,,,,,,,,,,539,19,Woman,Right,1,36,0.4,1,0,-,0,0.3515743000002658,['n'],1.0827810999999201,1.73,1570.5656983,,,,,539,19,Woman,Right,
,,,,,,,,,,,,,,,,,539,19,Woman,Right,1,49,0.15,2,0,180,0,0.7462888000000021,['n'],1.1943207999997867,1.43,1577.3485823,,,,,539,19,Woman,Right,
,,,,,,,,,,,,,,,,,539,19,Woman,Right,1,45,0.15,2,0,180,0,1.6872651999997288,['n'],3.1701222000001508,1.104,1587.2656686,,,,,539,19,Woman,Right,
,,,,,,,,,,,,,,,,,539,19,Woman,Right,1,56,0.15,1,0,-,0,0.7159689000000071,['y'],2.3709333000001607,1.362,1595.2656738,,,,,539,19,Woman,Right,
,,,,,,,,,,,,,,,,,539,19,Woman,Right,1,73,0.15,2,0,180,0,1.2680390000000443,['y'],0.8905217000001358,1.248,1601.2312929999998,,,,,539,19,Woman,Right,
,,,,,,,,,,,,,,,,,539,19,Woman,Right,1,48,0.15,1,0,-,0,0.42703260000007504,['n'],1.7066079999999602,1.0,1609.2818790000001,,,,,539,19,Woman,Right,
,,,,,,,,,,,,,,,,,539,19,Woman,Right,1,78,0.15,1,180,-,0,0.8690474999998514,['n'],1.2264055999999073,1.3900000000000001,1615.2319988,,,,,539,19,Woman,Right,
,,,,,,,,,,,,,,,,,539,19,Woman,Right,1,69,0.15,2,0,180,0,0.7992282000000159,['y'],2.151616500000273,1.3359999999999999,1621.5820076,,,,,539,19,Woman,Right,
,,,,,,,,,,,,,,,,,539,19,Woman,Right,1,10,0.4,1,180,-,0,0.4540876000000935,['y'],0.8988727000000836,1.6179999999999999,1625.9817119,,,,,539,19,Woman,Right,
,,,,,,,,,,,,,,,,,539,19,Woman,Right,1,55,0.15,2,180,0,180,2.4227614000001267,['y'],1.1549055999998927,1.316,1633.6155082999999,,,,,539,19,Woman,Right,
,,,,,,,,,,,,,,,,,539,19,Woman,Right,1,62,0.15,1,180,-,0,0.9106888000001163,['y'],2.619020499999806,1.28,1640.8663093999999,,,,,539,19,Woman,Right,
,,,,,,,,,,,,,,,,,539,19,Woman,Right,1,25,0.4,2,0,180,180,1.0568797999999333,['y'],1.226674600000024,1.696,1647.3657118,,,,,539,19,Woman,Right,
,,,,,,,,,,,,,,,,,539,19,Woman,Right,1,39,0.4,2,180,0,0,0.3682144999997945,['y'],1.1628402999999707,1.78,1653.9990033999998,,,,,539,19,Woman,Right,
,,,,,,,,,,,,,,,,,539,19,Woman,Right,1,77,0.15,2,0,180,0,4.576682500000061,['y'],1.419235899999876,1.25,1663.4661483,,,,,539,19,Woman,Right,
,,,,,,,,,,,,,,,,,539,19,Woman,Right,1,14,0.4,1,180,-,180,0.5099278999996386,['y'],1.5952267999996366,1.662,1669.2481475999998,,,,,539,19,Woman,Right,
,,,,,,,,,,,,,,,,,539,19,Woman,Right,1,47,0.15,2,180,0,0,0.6442501999999877,['y'],1.850496000000021,1.436,1675.8987219,,,,,539,19,Woman,Right,
,,,,,,,,,,,,,,,,,539,19,Woman,Right,1,34,0.4,1,180,-,180,0.7827278999998271,['n'],0.969890999999734,1.74,1680.8823901,,,,,539,19,Woman,Right,
,,,,,,,,,,,,,,,,,539,19,Woman,Right,1,66,0.15,1,180,-,0,0.7444698000003882,['n'],0.9071171000000504,1.624,1685.6324101999999,,,,,539,19,Woman,Right,
,,,,,,,,,,,,,,,,,539,19,Woman,Right,1,23,0.4,2,180,0,0,0.42081380000036006,['y'],0.9311499000000367,1.6680000000000001,1691.2484484000001,,,,,539,19,Woman,Right,
,,,,,,,,,,,,,,,,,539,19,Woman,Right,2,40,0.4,1,0,-,0,0.45360429999982443,['n'],1.219145699999899,1.916,1707.2652176000001,55.0,57.5,70.0,,539,19,Woman,Right,
,,,,,,,,,,,,,,,,,539,19,Woman,Right,2,45,0.15,2,0,180,0,0.33891029999995226,['n'],1.035436000000118,1.81,1711.9650424000001,,,,,539,19,Woman,Right,
,,,,,,,,,,,,,,,,,539,19,Woman,Right,2,60,0.15,1,0,-,180,2.6085339000001113,['n'],1.6670397000002595,1.5939999999999999,1719.2818882000001,,,,,539,19,Woman,Right,
,,,,,,,,,,,,,,,,,539,19,Woman,Right,2,36,0.4,1,0,-,0,0.27995499999997264,['n'],0.8349836000002142,1.818,1723.3482365999998,,,,,539,19,Woman,Right,
,,,,,,,,,,,,,,,,,539,19,Woman,Right,2,57,0.15,2,0,180,0,0.8058789000001525,['n'],0.9392541000001984,1.696,1728.3323669000001,,,,,539,19,Woman,Right,
,,,,,,,,,,,,,,,,,539,19,Woman,Right,2,46,0.15,1,180,-,180,0.9879037999999127,['n'],1.0111590999999862,1.654,1733.1657200999998,,,,,539,19,Woman,Right,
,,,,,,,,,,,,,,,,,539,19,Woman,Right,2,33,0.4,2,0,180,0,1.0452979000001505,['n'],0.7710688000001937,1.698,1737.7656398,,,,,539,19,Woman,Right,
,,,,,,,,,,,,,,,,,539,19,Woman,Right,2,69,0.15,2,0,180,180,1.7169902999999067,['y'],1.0594618999998602,1.384,1743.2654423,,,,,539,19,Woman,Right,
,,,,,,,,,,,,,,,,,539,19,Woman,Right,2,42,0.4,1,180,-,0,0.5046050000000832,['n'],0.7153811000002861,1.658,1747.5321267999998,,,,,539,19,Woman,Right,
,,,,,,,,,,,,,,,,,539,19,Woman,Right,2,15,0.4,2,180,0,180,1.374977399999807,['n'],0.9554152000000613,1.67,1752.6153998,,,,,539,19,Woman,Right,
,,,,,,,,,,,,,,,,,539,19,Woman,Right,2,52,0.15,1,0,-,180,1.1789847000000009,['n'],1.243087800000012,1.71,1759.3155664,,,,,539,19,Woman,Right,
,,,,,,,,,,,,,,,,,539,19,Woman,Right,2,66,0.15,1,180,-,180,0.8028263999999581,['n'],0.6837017999996533,1.752,1763.6483291999998,,,,,539,19,Woman,Right,
,,,,,,,,,,,,,,,,,539,19,Woman,Right,2,78,0.15,1,180,-,0,0.41932200000019293,['n'],0.6833274999999048,1.722,1767.5653948999998,,,,,539,19,Woman,Right,
,,,,,,,,,,,,,,,,,539,19,Woman,Right,2,67,0.15,2,180,0,180,0.9738492999999835,['n'],0.6515171999999438,1.78,1771.8824100000002,,,,,539,19,Woman,Right,
,,,,,,,,,,,,,,,,,539,19,Woman,Right,2,74,0.15,1,180,-,180,1.0475836000000527,['n'],0.787652099999832,1.816,1777.0488907,,,,,539,19,Woman,Right,
,,,,,,,,,,,,,,,,,539,19,Woman,Right,2,25,0.4,2,0,180,0,1.7193127999998978,['y'],0.8835195999999996,1.3599999999999999,1782.4650057,,,,,539,19,Woman,Right,
,,,,,,,,,,,,,,,,,539,19,Woman,Right,2,51,0.15,2,180,0,0,0.4106977999999799,['n'],0.6271923999997853,1.722,1786.415282,,,,,539,19,Woman,Right,
,,,,,,,,,,,,,,,,,539,19,Woman,Right,2,79,0.15,2,180,0,180,0.6771447999999509,['n'],0.9636340000001837,1.8599999999999999,1793.2650156,,,,,539,19,Woman,Right,
,,,,,,,,,,,,,,,,,539,19,Woman,Right,2,39,0.4,2,180,0,0,1.0378756000000067,['y'],0.7714657999999872,1.6600000000000001,1799.1153679,,,,,539,19,Woman,Right,
,,,,,,,,,,,,,,,,,539,19,Woman,Right,2,70,0.15,1,180,-,180,0.8164922999999362,['n'],1.6278618999999708,1.27,1804.4322851000002,,,,,539,19,Woman,Right,
,,,,,,,,,,,,,,,,,539,19,Woman,Right,2,8,0.4,1,0,-,0,0.35343680000005406,['n'],1.4356136999999762,1.744,1809.8817706999998,,,,,539,19,Woman,Right,
,,,,,,,,,,,,,,,,,539,19,Woman,Right,2,41,0.4,2,0,180,180,0.9531870999999228,['n'],1.9238141999999243,1.672,1816.9656343000001,,,,,539,19,Woman,Right,
,,,,,,,,,,,,,,,,,539,19,Woman,Right,2,14,0.4,1,180,-,0,0.6368453999998565,['n'],0.72314520000009,1.78,1821.2487366,,,,,539,19,Woman,Right,
,,,,,,,,,,,,,,,,,539,19,Woman,Right,2,3,1,2,180,0,0,0.4908792999999605,['y'],1.0197842999996283,1.862,1825.7313347999998,,,,,539,19,Woman,Right,
,,,,,,,,,,,,,,,,,539,19,Woman,Right,2,77,0.15,2,0,180,0,1.1771871000000829,['y'],0.8351942999997846,1.68,1831.4985347000002,,,,,539,19,Woman,Right,
,,,,,,,,,,,,,,,,,539,19,Woman,Right,2,73,0.15,2,0,180,180,0.9446729000001142,['n'],2.1078652999999576,1.5939999999999999,1839.8648812000001,,,,,539,19,Woman,Right,
,,,,,,,,,,,,,,,,,539,19,Woman,Right,2,62,0.15,1,180,-,180,0.7783969000001889,['n'],2.3402016000000003,1.678,1847.7311191,,,,,539,19,Woman,Right,
,,,,,,,,,,,,,,,,,539,19,Woman,Right,2,35,0.4,2,180,0,0,0.7245661000001746,['y'],1.0042616999999154,1.678,1847.7311191,,,,,539,19,Woman,Right,
,,,,,,,,,,,,,,,,,539,19,Woman,Right,2,50,0.15,1,180,-,0,0.3582934999999452,['y'],0.8838544000000184,1.694,1856.6808947999998,,,,,539,19,Woman,Right,
,,,,,,,,,,,,,,,,,539,19,Woman,Right,2,13,0.4,2,0,180,0,0.377050799999779,['y'],0.9397640000001957,1.816,1860.8983417999998,,,,,539,19,Woman,Right,
,,,,,,,,,,,,,,,,,539,19,Woman,Right,2,55,0.15,2,180,0,0,0.4553664000000026,['y'],0.9559732999996413,1.658,1865.4487119,,,,,539,19,Woman,Right,
,,,,,,,,,,,,,,,,,539,19,Woman,Right,2,49,0.15,2,0,180,0,0.7215021000001798,['y'],1.2360555000000204,1.67,1870.6813604999998,,,,,539,19,Woman,Right,
,,,,,,,,,,,,,,,,,539,19,Woman,Right,2,71,0.15,2,180,0,0,1.5127597999999125,['y'],1.3074406000000636,1.678,1876.6314984,,,,,539,19,Woman,Right,
,,,,,,,,,,,,,,,,,539,19,Woman,Right,2,75,0.15,2,180,0,0,0.49655200000006516,['y'],1.604044199999862,1.624,1883.9153631,,,,,539,19,Woman,Right,
,,,,,,,,,,,,,,,,,539,19,Woman,Right,2,34,0.4,1,180,-,180,0.7512956999999005,['n'],4.132218899999771,1.25,1891.4483903,,,,,539,19,Woman,Right,
,,,,,,,,,,,,,,,,,539,19,Woman,Right,2,27,0.4,2,180,0,0,0.2818348999999216,['y'],0.6760527000001275,1.72,1895.1156065,,,,,539,19,Woman,Right,
,,,,,,,,,,,,,,,,,539,19,Woman,Right,2,17,0.4,2,0,180,180,0.4027626999995846,['y'],0.7721430999999939,1.808,1899.4154165999998,,,,,539,19,Woman,Right,
,,,,,,,,,,,,,,,,,539,19,Woman,Right,2,1,1,2,0,180,180,0.7321721999996953,['y'],0.7802349999997205,1.828,1904.8990597000002,,,,,539,19,Woman,Right,
,,,,,,,,,,,,,,,,,539,19,Woman,Right,2,21,0.4,2,0,180,180,0.5015762999996696,['y'],1.244525099999919,1.796,1910.4653595999998,,,,,539,19,Woman,Right,
,,,,,,,,,,,,,,,,,539,19,Woman,Right,2,10,0.4,1,180,-,0,0.31583809999983714,['y'],0.7962981999999101,1.77,1914.6647016000002,,,,,539,19,Woman,Right,
,,,,,,,,,,,,,,,,,539,19,Woman,Right,2,44,0.15,1,0,-,0,0.8823459999998704,['y'],0.868420100000094,1.696,1919.5150694999998,,,,,539,19,Woman,Right,
,,,,,,,,,,,,,,,,,539,19,Woman,Right,2,0,1,1,0,-,0,0.787536799999998,['n'],1.2519938000000366,1.596,1924.4155157999999,,,,,539,19,Woman,Right,
,,,,,,,,,,,,,,,,,539,19,Woman,Right,2,7,1,2,180,0,0,0.2789480999999796,['y'],0.7961480999997548,1.922,1928.5984313999998,,,,,539,19,Woman,Right,
,,,,,,,,,,,,,,,,,539,19,Woman,Right,2,68,0.15,1,0,-,0,0.44904429999996864,['y'],0.8841444999998203,1.788,1933.2487685,,,,,539,19,Woman,Right,
,,,,,,,,,,,,,,,,,539,19,Woman,Right,2,4,1,1,0,-,0,0.44963989999996556,['n'],0.836000299999796,1.936,1938.3479496999998,,,,,539,19,Woman,Right,
,,,,,,,,,,,,,,,,,539,19,Woman,Right,2,53,0.15,2,0,180,0,0.566645399999743,['y'],0.8369542000000365,1.384,1943.3984592000002,,,,,539,19,Woman,Right,
,,,,,,,,,,,,,,,,,539,19,Woman,Right,2,24,0.4,1,0,-,0,0.3309579000001577,['n'],1.4682754000000386,1.8940000000000001,1950.2982241,,,,,539,19,Woman,Right,
,,,,,,,,,,,,,,,,,539,19,Woman,Right,2,37,0.4,2,0,180,180,0.6558587999998053,['y'],1.9970806999999695,1.6640000000000001,1956.1307093,,,,,539,19,Woman,Right,
,,,,,,,,,,,,,,,,,539,19,Woman,Right,2,32,0.4,1,0,-,0,0.3186540000001514,['n'],1.8927653000000646,1.808,1961.5986272999999,,,,,539,19,Woman,Right,
,,,,,,,,,,,,,,,,,539,19,Woman,Right,2,56,0.15,1,0,-,0,2.0508694999998625,['n'],2.2684414999998808,1.238,1968.5986084,,,,,539,19,Woman,Right,
,,,,,,,,,,,,,,,,,539,19,Woman,Right,2,11,0.4,2,180,0,180,1.498538599999847,['n'],1.6763831000002938,1.322,1975.1152779,,,,,539,19,Woman,Right,
,,,,,,,,,,,,,,,,,539,19,Woman,Right,2,63,0.15,2,180,0,0,0.45651690000022427,['n'],0.9727325999997447,1.4,1980.4827649999997,,,,,539,19,Woman,Right,
,,,,,,,,,,,,,,,,,539,19,Woman,Right,2,54,0.15,1,180,-,0,0.5975320000002284,['n'],0.9970377999998163,1.256,1984.8985647999998,,,,,539,19,Woman,Right,
,,,,,,,,,,,,,,,,,539,19,Woman,Right,2,12,0.4,1,0,-,0,0.3202701000000161,['y'],1.5086938999997983,1.5979999999999999,1992.1981643,,,,,539,19,Woman,Right,
,,,,,,,,,,,,,,,,,539,19,Woman,Right,2,20,0.4,1,0,-,0,0.4079887999996572,['n'],0.8126137999997809,1.748,1996.2139446,,,,,539,19,Woman,Right,
,,,,,,,,,,,,,,,,,539,19,Woman,Right,2,19,0.4,2,180,0,0,0.7574610000001485,['y'],1.8289789999998902,1.298,2001.5481796999998,,,,,539,19,Woman,Right,
,,,,,,,,,,,,,,,,,539,19,Woman,Right,2,38,0.4,1,180,-,180,1.114914299999782,['n'],1.2846167000002424,1.626,2007.4483013,,,,,539,19,Woman,Right,
,,,,,,,,,,,,,,,,,539,19,Woman,Right,2,23,0.4,2,180,0,0,1.7707651999999143,['n'],1.6371432999999342,1.304,2015.5481283999998,,,,,539,19,Woman,Right,
,,,,,,,,,,,,,,,,,539,19,Woman,Right,2,28,0.4,1,0,-,0,0.43175590000009834,['n'],1.2047056000001248,1.6640000000000001,2021.2640791,,,,,539,19,Woman,Right,
,,,,,,,,,,,,,,,,,539,19,Woman,Right,2,31,0.4,2,180,0,180,0.7127807000001667,['n'],1.3813947000003282,1.722,2027.0979241999999,,,,,539,19,Woman,Right,
,,,,,,,,,,,,,,,,,539,19,Woman,Right,2,65,0.15,2,0,180,0,0.6070308999996996,['n'],1.0934675000003153,1.214,2032.7810003999998,,,,,539,19,Woman,Right,
,,,,,,,,,,,,,,,,,539,19,Woman,Right,2,16,0.4,1,0,-,180,1.24909579999985,['y'],1.8285900000000765,1.302,2038.9310681000002,,,,,539,19,Woman,Right,
,,,,,,,,,,,,,,,,,539,19,Woman,Right,2,76,0.15,1,0,-,0,0.646004400000038,['y'],2.413937299999816,1.282,2045.0642220999998,,,,,539,19,Woman,Right,
,,,,,,,,,,,,,,,,,539,19,Woman,Right,2,59,0.15,2,180,0,180,2.5859553000000233,['y'],1.6207346999999572,1.56,2052.3313656,,,,,539,19,Woman,Right,
,,,,,,,,,,,,,,,,,539,19,Woman,Right,2,5,1,2,0,180,180,0.7249243000001115,['y'],1.0533838999999716,1.732,2057.8145156,,,,,539,19,Woman,Right,
,,,,,,,,,,,,,,,,,539,19,Woman,Right,2,2,1,1,180,-,180,0.6401358000002801,['n'],0.8451021999999284,1.846,2062.5984608,,,,,539,19,Woman,Right,
,,,,,,,,,,,,,,,,,539,19,Woman,Right,2,18,0.4,1,180,-,0,2.0534214999997857,['y'],1.8612710999996125,1.264,2076.2814046000003,,,,,539,19,Woman,Right,
,,,,,,,,,,,,,,,,,539,19,Woman,Right,2,61,0.15,2,0,180,0,0.48947599999974045,['y'],2.189390700000331,1.612,2082.8815697,,,,,539,19,Woman,Right,
,,,,,,,,,,,,,,,,,539,19,Woman,Right,2,6,1,1,180,-,180,0.572405500000059,['n'],0.9652863000001162,1.776,2088.6146025999997,,,,,539,19,Woman,Right,
,,,,,,,,,,,,,,,,,539,19,Woman,Right,2,43,0.4,2,180,0,0,0.32516490000034537,['y'],1.1254320000007283,1.792,2094.3645336,,,,,539,19,Woman,Right,
,,,,,,,,,,,,,,,,,539,19,Woman,Right,2,48,0.15,1,0,-,0,0.5812605000000985,['y'],1.8456160999994609,1.388,2100.3807737999996,,,,,539,19,Woman,Right,
,,,,,,,,,,,,,,,,,539,19,Woman,Right,2,29,0.4,2,0,180,0,0.4400844000001598,['y'],2.6215718000003108,1.6099999999999999,2106.8311882,,,,,539,19,Woman,Right,
,,,,,,,,,,,,,,,,,539,19,Woman,Right,2,26,0.4,1,180,-,0,1.5133781000004092,['y'],1.6933260000005248,1.326,2113.7813259000004,,,,,539,19,Woman,Right,
,,,,,,,,,,,,,,,,,539,19,Woman,Right,2,58,0.15,1,180,-,0,0.42608429999927466,['y'],1.269666099999995,1.388,2118.1491347,,,,,539,19,Woman,Right,
,,,,,,,,,,,,,,,,,539,19,Woman,Right,2,30,0.4,1,180,-,180,0.4744548999997278,['n'],1.4932575000002544,1.3599999999999999,2123.1643909000004,,,,,539,19,Woman,Right,
,,,,,,,,,,,,,,,,,539,19,Woman,Right,2,72,0.15,1,0,-,180,2.319092899999305,['n'],0.9655849000000671,1.254,2129.0645913999997,,,,,539,19,Woman,Right,
,,,,,,,,,,,,,,,,,539,19,Woman,Right,2,22,0.4,1,180,-,180,1.5502489999998943,['n'],0.7688693000000058,1.3980000000000001,2134.2484539999996,,,,,539,19,Woman,Right,
,,,,,,,,,,,,,,,,,539,19,Woman,Right,2,64,0.15,1,0,-,0,0.4803002999997261,['y'],1.6775800999994317,1.184,2140.6149766999997,,,,,539,19,Woman,Right,
,,,,,,,,,,,,,,,,,539,19,Woman,Right,2,47,0.15,2,180,0,0,0.7365092000000004,['y'],1.4218457999995735,1.316,2146.0804578999996,,,,,539,19,Woman,Right,
,,,,,,,,,,,,,,,,,539,19,Woman,Right,2,9,0.4,2,0,180,0,0.9520015999996758,['y'],1.1338945999996213,1.6560000000000001,2151.1310535000002,,,,,539,19,Woman,Right,
,,,,,,,,,,,,,,,,,539,19,Woman,Right,3,78,0.15,1,180,-,0,0.27844379999987723,['n'],1.013361000000259,1.0,2160.4806199000004,61.25,70.0,65.0,,539,19,Woman,Right,
,,,,,,,,,,,,,,,,,539,19,Woman,Right,3,52,0.15,1,0,-,0,0.5114667999996527,['y'],1.5176939000002676,1.342,2166.5311672,,,,,539,19,Woman,Right,
,,,,,,,,,,,,,,,,,539,19,Woman,Right,3,39,0.4,2,180,0,0,0.3978735000000597,['y'],1.2136721000006219,1.854,2170.9149608999996,,,,,539,19,Woman,Right,
,,,,,,,,,,,,,,,,,539,19,Woman,Right,3,50,0.15,1,180,-,0,0.654603699999825,['y'],3.6140341000000262,1.78,2178.6481161,,,,,539,19,Woman,Right,
,,,,,,,,,,,,,,,,,539,19,Woman,Right,3,25,0.4,2,0,180,180,1.7397847000002002,['y'],0.9017357000002448,1.71,2185.163931,,,,,539,19,Woman,Right,
,,,,,,,,,,,,,,,,,539,19,Woman,Right,3,33,0.4,2,0,180,180,0.6276492000006328,['y'],0.7983512000000701,1.734,2189.5315419,,,,,539,19,Woman,Right,
,,,,,,,,,,,,,,,,,539,19,Woman,Right,3,37,0.4,2,0,180,0,0.6554586000002018,['n'],1.0855868999997256,1.31,2195.6639475,,,,,539,19,Woman,Right,
,,,,,,,,,,,,,,,,,539,19,Woman,Right,3,5,1,2,0,180,180,0.7356983999998192,['y'],1.0857586000001902,1.6440000000000001,2202.9803979,,,,,539,19,Woman,Right,
,,,,,,,,,,,,,,,,,539,19,Woman,Right,3,70,0.15,1,180,-,180,1.6587119999994684,['y'],2.309602999999697,1.1219999999999999,2210.5644275000004,,,,,539,19,Woman,Right,
,,,,,,,,,,,,,,,,,539,19,Woman,Right,3,0,1,1,0,-,0,0.2520660999998654,['n'],3.2697165999998106,1.9,2217.1473635,,,,,539,19,Woman,Right,
,,,,,,,,,,,,,,,,,539,19,Woman,Right,3,63,0.15,2,180,0,180,1.7109186999996382,['y'],2.261643699999695,1.57,2225.2143229000003,,,,,539,19,Woman,Right,
,,,,,,,,,,,,,,,,,539,19,Woman,Right,3,8,0.4,1,0,-,0,0.6019971000005171,['n'],1.1501032999995005,1.6360000000000001,2230.1314667999995,,,,,539,19,Woman,Right,
,,,,,,,,,,,,,,,,,539,19,Woman,Right,3,68,0.15,1,0,-,180,1.2420082999997248,['n'],1.3579490000001897,1.3860000000000001,2236.1977416,,,,,539,19,Woman,Right,
,,,,,,,,,,,,,,,,,539,19,Woman,Right,3,59,0.15,2,180,0,0,1.7386470000001282,['y'],3.2777819000002637,1.258,2244.2142955,,,,,539,19,Woman,Right,
,,,,,,,,,,,,,,,,,539,19,Woman,Right,3,24,0.4,1,0,-,0,0.2547887000000628,['n'],1.3499578999999358,1.6099999999999999,2248.7815005,,,,,539,19,Woman,Right,
,,,,,,,,,,,,,,,,,539,19,Woman,Right,3,34,0.4,1,180,-,180,0.36614949999966484,['n'],0.8137851000001319,1.72,2252.7308506,,,,,539,19,Woman,Right,
,,,,,,,,,,,,,,,,,539,19,Woman,Right,3,14,0.4,1,180,-,180,0.4924896999991688,['n'],0.8059663000003638,1.7,2257.1644057000003,,,,,539,19,Woman,Right,
,,,,,,,,,,,,,,,,,539,19,Woman,Right,3,66,0.15,1,180,-,0,0.055303099999946426,['n'],1.0302713999999469,1.756,2261.7135930000004,,,,,539,19,Woman,Right,
,,,,,,,,,,,,,,,,,539,19,Woman,Right,3,51,0.15,2,180,0,180,0.5525932999998986,['n'],1.3982308000004195,1.766,2268.0801227,,,,,539,19,Woman,Right,
,,,,,,,,,,,,,,,,,539,19,Woman,Right,3,4,1,1,0,-,0,0.29683529999965685,['n'],1.0060475000000224,1.828,2272.7806145000004,,,,,539,19,Woman,Right,
,,,,,,,,,,,,,,,,,539,19,Woman,Right,3,79,0.15,2,180,0,180,0.4088982000002943,['n'],1.6705250000004526,1.9,2278.2137439,,,,,539,19,Woman,Right,
,,,,,,,,,,,,,,,,,539,19,Woman,Right,3,74,0.15,1,180,-,0,1.229074099999707,['y'],1.3184214000002612,1.306,2283.7634581,,,,,539,19,Woman,Right,
,,,,,,,,,,,,,,,,,539,19,Woman,Right,3,35,0.4,2,180,0,180,0.6385902000001806,['n'],1.222410299999865,1.6019999999999999,2291.6136116,,,,,539,19,Woman,Right,
,,,,,,,,,,,,,,,,,539,19,Woman,Right,3,30,0.4,1,180,-,0,1.9259789000007004,['n'],1.5907135999996171,1.202,2299.2472657999997,,,,,539,19,Woman,Right,
,,,,,,,,,,,,,,,,,539,19,Woman,Right,3,12,0.4,1,0,-,180,1.5949639999998908,['y'],1.9900339999994685,1.3319999999999999,2305.7480954000002,,,,,539,19,Woman,Right,
,,,,,,,,,,,,,,,,,539,19,Woman,Right,3,48,0.15,1,0,-,0,0.694749000000229,['y'],1.9663201000003028,1.238,2311.2816254,,,,,539,19,Woman,Right,
,,,,,,,,,,,,,,,,,539,19,Woman,Right,3,7,1,2,180,0,0,0.5004619999999704,['y'],1.0787214000001768,1.83,2316.2317929,,,,,539,19,Woman,Right,
,,,,,,,,,,,,,,,,,539,19,Woman,Right,3,10,0.4,1,180,-,180,0.6658270000007178,['n'],0.7905338000000484,1.752,2320.7809452,,,,,539,19,Woman,Right,
,,,,,,,,,,,,,,,,,539,19,Woman,Right,3,62,0.15,1,180,-,180,0.7723673999998937,['n'],1.910680500000126,1.366,2328.7312597,,,,,539,19,Woman,Right,
,,,,,,,,,,,,,,,,,539,19,Woman,Right,3,58,0.15,1,180,-,0,1.1384375999996337,['y'],1.286279499999182,1.3860000000000001,2336.4812967999997,,,,,539,19,Woman,Right,
,,,,,,,,,,,,,,,,,539,19,Woman,Right,3,1,1,2,0,180,0,0.7662952999999106,['y'],0.8676804000006086,1.304,2342.1813615,,,,,539,19,Woman,Right,
,,,,,,,,,,,,,,,,,539,19,Woman,Right,3,47,0.15,2,180,0,0,0.6152462000000014,['n'],0.9825813000006747,1.616,2349.2145447000003,,,,,539,19,Woman,Right,
,,,,,,,,,,,,,,,,,539,19,Woman,Right,3,20,0.4,1,0,-,0,0.6284406999993735,['n'],1.1991161000005377,1.6560000000000001,2354.2980256,,,,,539,19,Woman,Right,
,,,,,,,,,,,,,,,,,539,19,Woman,Right,3,69,0.15,2,0,180,0,1.3372945000000982,['n'],3.9270410999997694,1.706,2363.1144498000003,,,,,539,19,Woman,Right,
,,,,,,,,,,,,,,,,,539,19,Woman,Right,3,60,0.15,1,0,-,180,0.68990870000016,['n'],1.6788661999999022,1.6520000000000001,2368.3812578999996,,,,,539,19,Woman,Right,
,,,,,,,,,,,,,,,,,539,19,Woman,Right,3,31,0.4,2,180,0,0,0.48344429999997374,['n'],2.0952360999999655,1.254,2374.3304889,,,,,539,19,Woman,Right,
,,,,,,,,,,,,,,,,,539,19,Woman,Right,3,3,1,2,180,0,0,0.4090509000006932,['y'],1.799163700000463,1.834,2379.9812234,,,,,539,19,Woman,Right,
,,,,,,,,,,,,,,,,,539,19,Woman,Right,3,61,0.15,2,0,180,180,1.3423665999998775,['y'],2.46274159999939,1.218,2386.6140592,,,,,539,19,Woman,Right,
,,,,,,,,,,,,,,,,,539,19,Woman,Right,3,73,0.15,2,0,180,0,1.3404859000002034,['y'],1.0552523999995174,1.334,2391.6487765,,,,,539,19,Woman,Right,
,,,,,,,,,,,,,,,,,539,19,Woman,Right,3,46,0.15,1,180,-,0,1.066424100000404,['y'],1.182777900000474,1.276,2396.930897,,,,,539,19,Woman,Right,
,,,,,,,,,,,,,,,,,539,19,Woman,Right,3,38,0.4,1,180,-,0,2.249783600000228,['y'],1.2047200999995766,1.712,2403.4642436000004,,,,,539,19,Woman,Right,
,,,,,,,,,,,,,,,,,539,19,Woman,Right,3,29,0.4,2,0,180,0,0.7130071000001408,['y'],1.550675599999522,1.678,2409.1640785,,,,,539,19,Woman,Right,
,,,,,,,,,,,,,,,,,539,19,Woman,Right,3,26,0.4,1,180,-,0,1.4968360000002576,['y'],2.110803199999282,1.698,2415.9311673,,,,,539,19,Woman,Right,
,,,,,,,,,,,,,,,,,539,19,Woman,Right,3,72,0.15,1,0,-,0,2.1896194000000833,['y'],1.831108999999742,1.15,2422.8477339,,,,,539,19,Woman,Right,
,,,,,,,,,,,,,,,,,539,19,Woman,Right,3,2,1,1,180,-,180,0.5960146999996141,['n'],0.9347827999999936,1.85,2427.5645296000002,,,,,539,19,Woman,Right,
,,,,,,,,,,,,,,,,,539,19,Woman,Right,3,18,0.4,1,180,-,180,0.18263630000001285,['n'],0.9988918999997622,1.796,2431.9980030999996,,,,,539,19,Woman,Right,
,,,,,,,,,,,,,,,,,539,19,Woman,Right,3,17,0.4,2,0,180,0,0.09339710000040213,['n'],1.7351173000006384,1.792,2437.3311624999997,,,,,539,19,Woman,Right,
,,,,,,,,,,,,,,,,,539,19,Woman,Right,3,32,0.4,1,0,-,180,0.3334892000002583,['n'],1.6390985999996701,1.8479999999999999,2442.2974157999997,,,,,539,19,Woman,Right,
,,,,,,,,,,,,,,,,,539,19,Woman,Right,3,42,0.4,1,180,-,180,0.9708670999998503,['n'],0.7273614999994606,1.726,2447.2475566000003,,,,,539,19,Woman,Right,
,,,,,,,,,,,,,,,,,539,19,Woman,Right,3,9,0.4,2,0,180,180,0.4966359999998531,['n'],0.7756378000003679,1.774,2451.7813294999996,,,,,539,19,Woman,Right,
,,,,,,,,,,,,,,,,,539,19,Woman,Right,3,6,1,1,180,-,180,0.5023698000004515,['n'],1.0071884999997565,1.818,2456.6465700999997,,,,,539,19,Woman,Right,
,,,,,,,,,,,,,,,,,539,19,Woman,Right,3,64,0.15,1,0,-,180,0.6327105000000302,['n'],2.0507524000004196,1.638,2464.6806055999996,,,,,539,19,Woman,Right,
,,,,,,,,,,,,,,,,,539,19,Woman,Right,3,75,0.15,2,180,0,180,1.5361145999995642,['n'],2.527368000000024,1.182,2471.6808892999998,,,,,539,19,Woman,Right,
,,,,,,,,,,,,,,,,,539,19,Woman,Right,3,53,0.15,2,0,180,0,2.069825100000344,['y'],1.1431441999993694,1.38,2477.8986223,,,,,539,19,Woman,Right,
,,,,,,,,,,,,,,,,,539,19,Woman,Right,3,27,0.4,2,180,0,0,0.7578034999996817,['y'],1.375217199999497,1.6520000000000001,2482.797718,,,,,539,19,Woman,Right,
,,,,,,,,,,,,,,,,,539,19,Woman,Right,3,23,0.4,2,180,0,0,0.4781473000002734,['y'],0.8316122000005635,1.726,2487.0141000000003,,,,,539,19,Woman,Right,
,,,,,,,,,,,,,,,,,539,19,Woman,Right,3,76,0.15,1,0,-,0,0.5952738000005411,['y'],0.9671975000001112,1.68,2491.4823525,,,,,539,19,Woman,Right,
,,,,,,,,,,,,,,,,,539,19,Woman,Right,3,67,0.15,2,180,0,0,0.6538833000004161,['y'],1.1513926000006904,1.6,2496.2141393,,,,,539,19,Woman,Right,
,,,,,,,,,,,,,,,,,539,19,Woman,Right,3,57,0.15,2,0,180,0,0.6696813999997175,['n'],1.09538110000085,1.308,2505.8303968,,,,,539,19,Woman,Right,
,,,,,,,,,,,,,,,,,539,19,Woman,Right,3,43,0.4,2,180,0,180,1.3706763000000137,['n'],1.5274841000000379,1.612,2514.0971437999997,,,,,539,19,Woman,Right,
,,,,,,,,,,,,,,,,,539,19,Woman,Right,3,77,0.15,2,0,180,0,0.4666009999991729,['n'],1.743575200000123,1.692,2522.2638391,,,,,539,19,Woman,Right,
,,,,,,,,,,,,,,,,,539,19,Woman,Right,3,13,0.4,2,0,180,180,1.1518943999999465,['y'],1.895957200000339,1.638,2529.3144715,,,,,539,19,Woman,Right,
,,,,,,,,,,,,,,,,,539,19,Woman,Right,3,45,0.15,2,0,180,180,1.4227786999999807,['y'],0.9920013999999355,1.3820000000000001,2536.4635875000004,,,,,539,19,Woman,Right,
,,,,,,,,,,,,,,,,,539,19,Woman,Right,3,44,0.15,1,0,-,0,0.8745386000000508,['y'],2.8959961999998995,1.388,2544.2308369,,,,,539,19,Woman,Right,
,,,,,,,,,,,,,,,,,539,19,Woman,Right,3,40,0.4,1,0,-,0,0.4896493999995073,['n'],1.0638065000002825,1.694,2549.3972732,,,,,539,19,Woman,Right,
,,,,,,,,,,,,,,,,,539,19,Woman,Right,3,41,0.4,2,0,180,180,0.778417300000001,['n'],0.9439899999997579,1.71,2553.8642874999996,,,,,539,19,Woman,Right,
,,,,,,,,,,,,,,,,,539,19,Woman,Right,3,19,0.4,2,180,0,0,0.489758200000324,['n'],1.495725699999639,1.726,2559.0311014,,,,,539,19,Woman,Right,
,,,,,,,,,,,,,,,,,539,19,Woman,Right,3,54,0.15,1,180,-,180,0.2384922999999617,['n'],1.2722163999997065,1.682,2563.4802108000003,,,,,539,19,Woman,Right,
,,,,,,,,,,,,,,,,,539,19,Woman,Right,3,16,0.4,1,0,-,0,0.5964552000004915,['n'],1.0958745999996609,1.726,2569.0634873,,,,,539,19,Woman,Right,
,,,,,,,,,,,,,,,,,539,19,Woman,Right,3,36,0.4,1,0,-,0,0.5094509000000471,['n'],1.0401357000000644,1.744,2574.130644,,,,,539,19,Woman,Right,
,,,,,,,,,,,,,,,,,539,19,Woman,Right,3,71,0.15,2,180,0,180,0.6295065999993312,['n'],0.9921299999996336,1.8439999999999999,2580.0309190999997,,,,,539,19,Woman,Right,
,,,,,,,,,,,,,,,,,539,19,Woman,Right,3,49,0.15,2,0,180,180,0.2714773999996396,['n'],1.1441590999993423,1.8860000000000001,2585.1636528,,,,,539,19,Woman,Right,
,,,,,,,,,,,,,,,,,539,19,Woman,Right,3,15,0.4,2,180,0,0,0.6340618000003815,['y'],1.032297199999448,1.698,2589.7962995,,,,,539,19,Woman,Right,
,,,,,,,,,,,,,,,,,539,19,Woman,Right,3,11,0.4,2,180,0,0,0.37124859999948967,['y'],1.3038495000000694,1.752,2594.6637379000003,,,,,539,19,Woman,Right,
,,,,,,,,,,,,,,,,,539,19,Woman,Right,3,28,0.4,1,0,-,0,0.8673367999999755,['n'],1.0644066000004386,1.388,2599.230896,,,,,539,19,Woman,Right,
,,,,,,,,,,,,,,,,,539,19,Woman,Right,3,22,0.4,1,180,-,0,0.37242000000060216,['y'],2.0881536000006236,1.32,2605.3977427,,,,,539,19,Woman,Right,
,,,,,,,,,,,,,,,,,539,19,Woman,Right,3,56,0.15,1,0,-,0,1.1400094999999055,['y'],1.0001035000004777,1.208,2610.51372,,,,,539,19,Woman,Right,
,,,,,,,,,,,,,,,,,539,19,Woman,Right,3,55,0.15,2,180,0,0,0.3616213000004791,['y'],0.9763205999997808,1.6219999999999999,2614.713256,,,,,539,19,Woman,Right,
,,,,,,,,,,,,,,,,,539,19,Woman,Right,3,65,0.15,2,0,180,0,0.42194800000015675,['y'],2.120619700000134,1.6520000000000001,2620.9801363999995,,,,,539,19,Woman,Right,
,,,,,,,,,,,,,,,,,539,19,Woman,Right,3,21,0.4,2,0,180,0,0.4114335000003848,['y'],1.1997467999999571,1.682,2625.8308688999996,,,,,539,19,Woman,Right,
,,,,,,,,,,,,,,,,,539,19,Woman,Right,4,28,0.4,1,0,-,0,1.0997245999997176,['y'],1.9796244999997725,1.3519999999999999,2644.7817591000003,58.75,62.5,57.5,,539,19,Woman,Right,
,,,,,,,,,,,,,,,,,539,19,Woman,Right,4,18,0.4,1,180,-,0,0.3593743000001268,['y'],1.4001143000004959,1.752,2649.9973884,,,,,539,19,Woman,Right,
,,,,,,,,,,,,,,,,,539,19,Woman,Right,4,35,0.4,2,180,0,0,0.3522490999994261,['y'],1.1365324999997028,1.862,2655.7472016,,,,,539,19,Woman,Right,
,,,,,,,,,,,,,,,,,539,19,Woman,Right,4,69,0.15,2,0,180,180,1.3281656999997722,['y'],0.7762495999995735,1.822,2660.9138967999997,,,,,539,19,Woman,Right,
,,,,,,,,,,,,,,,,,539,19,Woman,Right,4,51,0.15,2,180,0,0,0.4978759000005084,['y'],1.8004068000000188,1.392,2666.2967742,,,,,539,19,Woman,Right,
,,,,,,,,,,,,,,,,,539,19,Woman,Right,4,9,0.4,2,0,180,180,0.5999701999999161,['y'],0.7280329000004713,1.6680000000000001,2671.1302435,,,,,539,19,Woman,Right,
,,,,,,,,,,,,,,,,,539,19,Woman,Right,4,68,0.15,1,0,-,0,0.4093450999998822,['y'],2.2563318000002255,1.312,2676.8798323,,,,,539,19,Woman,Right,
,,,,,,,,,,,,,,,,,539,19,Woman,Right,4,50,0.15,1,180,-,0,0.6326417999998739,['y'],3.792739900000015,1.3679999999999999,2684.230506,,,,,539,19,Woman,Right,
,,,,,,,,,,,,,,,,,539,19,Woman,Right,4,42,0.4,1,180,-,0,1.9807999999993626,['n'],3.224961500000063,1.244,2692.4802905999995,,,,,539,19,Woman,Right,
,,,,,,,,,,,,,,,,,539,19,Woman,Right,4,64,0.15,1,0,-,0,0.5454833000003418,['y'],2.1845541000002413,1.322,2698.4970695,,,,,539,19,Woman,Right,
,,,,,,,,,,,,,,,,,539,19,Woman,Right,4,76,0.15,1,0,-,0,1.1835369999998875,['n'],0.8250916000006328,1.22,2703.3136306999995,,,,,539,19,Woman,Right,
,,,,,,,,,,,,,,,,,539,19,Woman,Right,4,33,0.4,2,0,180,0,0.3427607000003263,['y'],1.144330699999955,1.708,2708.7469576000003,,,,,539,19,Woman,Right,
,,,,,,,,,,,,,,,,,539,19,Woman,Right,4,56,0.15,1,0,-,0,0.3598117000001366,['y'],1.6170141000002332,1.814,2713.8142608,,,,,539,19,Woman,Right,
,,,,,,,,,,,,,,,,,539,19,Woman,Right,4,16,0.4,1,0,-,0,0.5075596999995469,['n'],3.273343699999714,1.306,2720.5464591,,,,,539,19,Woman,Right,
,,,,,,,,,,,,,,,,,539,19,Woman,Right,4,40,0.4,1,0,-,180,1.2791254000003391,['n'],2.984511399999974,1.712,2728.1644907,,,,,539,19,Woman,Right,
,,,,,,,,,,,,,,,,,539,19,Woman,Right,4,13,0.4,2,0,180,0,0.7656137000003582,['y'],1.152936800000134,1.752,2733.2964777999996,,,,,539,19,Woman,Right,
,,,,,,,,,,,,,,,,,539,19,Woman,Right,4,17,0.4,2,0,180,180,2.391935200000262,['n'],0.4649723000002268,1.292,2739.3131814,,,,,539,19,Woman,Right,
,,,,,,,,,,,,,,,,,539,19,Woman,Right,4,8,0.4,1,0,-,0,0.37227510000047914,['n'],0.9124778999994305,1.724,2743.4970206,,,,,539,19,Woman,Right,
,,,,,,,,,,,,,,,,,539,19,Woman,Right,4,7,1,2,180,0,0,0.5061795000001439,['y'],1.1686446999992768,1.7,2748.3806947000003,,,,,539,19,Woman,Right,
,,,,,,,,,,,,,,,,,539,19,Woman,Right,4,27,0.4,2,180,0,180,0.5714772000001176,['y'],4.824777700000595,1.224,2757.0477177000002,,,,,539,19,Woman,Right,
,,,,,,,,,,,,,,,,,539,19,Woman,Right,4,5,1,2,0,180,180,0.6003468999997494,['y'],1.4806874000005337,1.75,2762.23066,,,,,539,19,Woman,Right,
,,,,,,,,,,,,,,,,,539,19,Woman,Right,4,41,0.4,2,0,180,0,0.5307560999999623,['n'],0.6808116000001974,1.78,2766.8306482999997,,,,,539,19,Woman,Right,
,,,,,,,,,,,,,,,,,539,19,Woman,Right,4,3,1,2,180,0,0,0.3574732999995831,['y'],1.4807575000004363,1.802,2772.2798824,,,,,539,19,Woman,Right,
,,,,,,,,,,,,,,,,,539,19,Woman,Right,4,29,0.4,2,0,180,0,0.5138136000005034,['n'],0.9205531000006886,1.742,2776.8298819,,,,,539,19,Woman,Right,
,,,,,,,,,,,,,,,,,539,19,Woman,Right,4,38,0.4,1,180,-,180,0.7002802999995765,['n'],1.0009857000004558,1.766,2781.3465472999997,,,,,539,19,Woman,Right,
,,,,,,,,,,,,,,,,,539,19,Woman,Right,4,75,0.15,2,180,0,180,0.6241999000003489,['n'],4.008899599999495,1.808,2788.779439,,,,,539,19,Woman,Right,
,,,,,,,,,,,,,,,,,539,19,Woman,Right,4,45,0.15,2,0,180,0,0.5992200999999113,['y'],0.9199908000000505,1.6320000000000001,2794.2636648999996,,,,,539,19,Woman,Right,
,,,,,,,,,,,,,,,,,539,19,Woman,Right,4,1,1,2,0,180,0,1.7679004000001441,['n'],1.377434500000163,1.226,2800.5803017,,,,,539,19,Woman,Right,
,,,,,,,,,,,,,,,,,539,19,Woman,Right,4,6,1,1,180,-,0,2.065893899999537,['y'],0.8172855000002528,1.3479999999999999,2806.2813421,,,,,539,19,Woman,Right,
,,,,,,,,,,,,,,,,,539,19,Woman,Right,4,30,0.4,1,180,-,0,0.9425593999994817,['y'],0.841304399999899,1.29,2811.2792069999996,,,,,539,19,Woman,Right,
,,,,,,,,,,,,,,,,,539,19,Woman,Right,4,67,0.15,2,180,0,0,0.8669002999995428,['y'],1.7528507999995782,1.6600000000000001,2816.847159,,,,,539,19,Woman,Right,
,,,,,,,,,,,,,,,,,539,19,Woman,Right,4,37,0.4,2,0,180,0,0.6815798999996332,['y'],1.1048964000001433,1.672,2821.4810378,,,,,539,19,Woman,Right,
,,,,,,,,,,,,,,,,,539,19,Woman,Right,4,53,0.15,2,0,180,180,0.6440604999997959,['n'],1.3132956999997987,1.3359999999999999,2826.6470455,,,,,539,19,Woman,Right,
,,,,,,,,,,,,,,,,,539,19,Woman,Right,4,60,0.15,1,0,-,0,1.1966358999998192,['y'],1.0734257000003709,1.3399999999999999,2831.7135172999997,,,,,539,19,Woman,Right,
,,,,,,,,,,,,,,,,,539,19,Woman,Right,4,78,0.15,1,180,-,0,3.1253741999998965,['n'],1.3852968999999575,1.1099999999999999,2840.0140500999996,,,,,539,19,Woman,Right,
,,,,,,,,,,,,,,,,,539,19,Woman,Right,4,24,0.4,1,0,-,0,0.6846746000001076,['n'],1.2254346999998234,1.684,2844.6132749999997,,,,,539,19,Woman,Right,
,,,,,,,,,,,,,,,,,539,19,Woman,Right,4,20,0.4,1,0,-,0,0.6430506999995487,['y'],1.0817886999993789,1.684,2850.0132925999997,,,,,539,19,Woman,Right,
,,,,,,,,,,,,,,,,,539,19,Woman,Right,4,61,0.15,2,0,180,0,1.9482721000003949,['y'],2.8974546999997983,1.4140000000000001,2858.8972422999996,,,,,539,19,Woman,Right,
,,,,,,,,,,,,,,,,,539,19,Woman,Right,4,46,0.15,1,180,-,180,1.1293383000001995,['y'],1.19365309999921,1.526,2865.947002,,,,,539,19,Woman,Right,
,,,,,,,,,,,,,,,,,539,19,Woman,Right,4,58,0.15,1,180,-,180,1.1900021999999808,['n'],1.3777768999998443,1.276,2871.1632522,,,,,539,19,Woman,Right,
,,,,,,,,,,,,,,,,,539,19,Woman,Right,4,52,0.15,1,0,-,180,0.8373516000001473,['n'],0.9778239999996003,1.6520000000000001,2877.8962951000003,,,,,539,19,Woman,Right,
,,,,,,,,,,,,,,,,,539,19,Woman,Right,4,0,1,1,0,-,0,0.3296136999997543,['n'],0.8895049000002473,1.82,2882.6132513000002,,,,,539,19,Woman,Right,
,,,,,,,,,,,,,,,,,539,19,Woman,Right,4,19,0.4,2,180,0,180,1.1581982999996399,['n'],1.0578099999993356,1.702,2889.2136895000003,,,,,539,19,Woman,Right,
,,,,,,,,,,,,,,,,,539,19,Woman,Right,4,63,0.15,2,180,0,180,0.8814218000006804,['n'],1.9057063999998718,1.722,2896.6471853000003,,,,,539,19,Woman,Right,
,,,,,,,,,,,,,,,,,539,19,Woman,Right,4,34,0.4,1,180,-,180,0.5356123000001389,['n'],1.0897032000002582,1.74,2902.0305957,,,,,539,19,Woman,Right,
,,,,,,,,,,,,,,,,,539,19,Woman,Right,4,74,0.15,1,180,-,0,0.6000463999998829,['n'],1.0738977000000887,1.78,2907.6468149,,,,,539,19,Woman,Right,
,,,,,,,,,,,,,,,,,539,19,Woman,Right,4,77,0.15,2,0,180,180,0.5332135000007838,['n'],0.9616118999992977,1.746,2911.9803458999995,,,,,539,19,Woman,Right,
,,,,,,,,,,,,,,,,,539,19,Woman,Right,4,79,0.15,2,180,0,0,0.31073429999923974,['n'],1.1541793000005782,1.736,2916.4465664,,,,,539,19,Woman,Right,
,,,,,,,,,,,,,,,,,539,19,Woman,Right,4,66,0.15,1,180,-,180,0.45006130000001576,['n'],0.9941742000000886,1.638,2921.0962259999997,,,,,539,19,Woman,Right,
,,,,,,,,,,,,,,,,,539,19,Woman,Right,4,65,0.15,2,0,180,0,0.6643349999994825,['n'],1.4177811999998085,1.718,2926.2796593000003,,,,,539,19,Woman,Right,
,,,,,,,,,,,,,,,,,539,19,Woman,Right,4,70,0.15,1,180,-,180,0.664011699999719,['n'],1.7621374999998807,1.748,2933.2464867,,,,,539,19,Woman,Right,
,,,,,,,,,,,,,,,,,539,19,Woman,Right,4,31,0.4,2,180,0,0,0.49177420000069105,['y'],1.338346100000308,1.642,2938.0132138999998,,,,,539,19,Woman,Right,
,,,,,,,,,,,,,,,,,539,19,Woman,Right,4,71,0.15,2,180,0,180,0.6125524999997651,['n'],3.025778399999581,1.764,2945.6140281,,,,,539,19,Woman,Right,
,,,,,,,,,,,,,,,,,539,19,Woman,Right,4,73,0.15,2,0,180,180,1.0119924000000537,['n'],1.0580541999997877,1.746,2950.7470622,,,,,539,19,Woman,Right,
,,,,,,,,,,,,,,,,,539,19,Woman,Right,4,21,0.4,2,0,180,180,0.8798158999998122,['n'],0.9538521000004039,1.6440000000000001,2955.4303939,,,,,539,19,Woman,Right,
,,,,,,,,,,,,,,,,,539,19,Woman,Right,4,49,0.15,2,0,180,0,0.8998678999996628,['y'],1.169822199999544,1.324,2960.512608,,,,,539,19,Woman,Right,
,,,,,,,,,,,,,,,,,539,19,Woman,Right,4,43,0.4,2,180,0,0,0.4398713000000498,['y'],0.9858478999994986,1.616,2964.8796323999995,,,,,539,19,Woman,Right,
,,,,,,,,,,,,,,,,,539,19,Woman,Right,4,36,0.4,1,0,-,180,0.8843099999994593,['n'],0.7781126999998378,1.588,2972.9463364000003,,,,,539,19,Woman,Right,
,,,,,,,,,,,,,,,,,539,19,Woman,Right,4,47,0.15,2,180,0,180,0.5153056999997716,['n'],0.7944078999998965,1.604,2978.1629338000002,,,,,539,19,Woman,Right,
,,,,,,,,,,,,,,,,,539,19,Woman,Right,4,12,0.4,1,0,-,180,0.6195373999998992,['n'],1.0096682000003057,1.208,2983.4637455,,,,,539,19,Woman,Right,
,,,,,,,,,,,,,,,,,539,19,Woman,Right,4,25,0.4,2,0,180,0,0.5160865999996531,['y'],1.2101384000006874,1.314,2987.9803505,,,,,539,19,Woman,Right,
,,,,,,,,,,,,,,,,,539,19,Woman,Right,4,57,0.15,2,0,180,180,0.768529099999796,['n'],2.306069600000228,1.256,2994.0967346999996,,,,,539,19,Woman,Right,
,,,,,,,,,,,,,,,,,539,19,Woman,Right,4,23,0.4,2,180,0,0,0.7474867000000813,['y'],1.114030400000047,1.7,2998.7293376999996,,,,,539,19,Woman,Right,
,,,,,,,,,,,,,,,,,539,19,Woman,Right,4,55,0.15,2,180,0,180,0.4255195999994612,['n'],1.002154700000574,1.6520000000000001,3002.9630448999997,,,,,539,19,Woman,Right,
,,,,,,,,,,,,,,,,,539,19,Woman,Right,4,39,0.4,2,180,0,0,0.3837733999998818,['n'],2.554272999999739,1.5939999999999999,3009.062637,,,,,539,19,Woman,Right,
,,,,,,,,,,,,,,,,,539,19,Woman,Right,4,14,0.4,1,180,-,180,0.4201279999997496,['n'],0.9459860000006302,1.6099999999999999,3013.4965155,,,,,539,19,Woman,Right,
,,,,,,,,,,,,,,,,,539,19,Woman,Right,4,44,0.15,1,0,-,0,0.7765134000001126,['n'],1.2742370999994819,1.15,3019.0797204,,,,,539,19,Woman,Right,
,,,,,,,,,,,,,,,,,539,19,Woman,Right,4,10,0.4,1,180,-,180,0.6823897000003853,['n'],0.8344085999997333,1.71,3024.3965670999996,,,,,539,19,Woman,Right,
,,,,,,,,,,,,,,,,,539,19,Woman,Right,4,4,1,1,0,-,0,0.2979368999995131,['n'],1.1142315999995844,1.678,3029.7792719999998,,,,,539,19,Woman,Right,
,,,,,,,,,,,,,,,,,539,19,Woman,Right,4,32,0.4,1,0,-,180,1.020853700000771,['n'],0.8658072999996875,1.698,3036.2470308,,,,,539,19,Woman,Right,
,,,,,,,,,,,,,,,,,539,19,Woman,Right,4,54,0.15,1,180,-,180,1.153434400000151,['n'],2.186108800000511,1.306,3042.3802667,,,,,539,19,Woman,Right,
,,,,,,,,,,,,,,,,,539,19,Woman,Right,4,15,0.4,2,180,0,0,2.532825799999955,['y'],0.9140933999997287,1.302,3048.7302530999996,,,,,539,19,Woman,Right,
,,,,,,,,,,,,,,,,,539,19,Woman,Right,4,22,0.4,1,180,-,0,0.4244869000003746,['n'],1.082488199999716,1.3479999999999999,3053.1136698,,,,,539,19,Woman,Right,
,,,,,,,,,,,,,,,,,539,19,Woman,Right,4,2,1,1,180,-,180,0.38528709999991406,['n'],1.0265597000006892,1.96,3060.5961798999997,,,,,539,19,Woman,Right,
,,,,,,,,,,,,,,,,,539,19,Woman,Right,4,72,0.15,1,0,-,180,0.6657721000001402,['n'],1.1411599000002752,1.828,3065.8803274,,,,,539,19,Woman,Right,
,,,,,,,,,,,,,,,,,539,19,Woman,Right,4,26,0.4,1,180,-,180,0.2567332999997234,['n'],0.78700630000003,1.8719999999999999,3070.3129488000004,,,,,539,19,Woman,Right,
,,,,,,,,,,,,,,,,,539,19,Woman,Right,4,11,0.4,2,180,0,0,0.5555498999992778,['y'],1.3707866000004287,1.6520000000000001,3075.9630851,,,,,539,19,Woman,Right,
,,,,,,,,,,,,,,,,,539,19,Woman,Right,4,48,0.15,1,0,-,0,1.4784982000001037,['y'],1.2026700000005803,1.57,3081.4631992000004,,,,,539,19,Woman,Right,
,,,,,,,,,,,,,,,,,539,19,Woman,Right,4,59,0.15,2,180,0,0,1.1234603000002608,['y'],1.0344009999998889,1.396,3086.9633633000003,,,,,539,19,Woman,Right,
,,,,,,,,,,,,,,,,,539,19,Woman,Right,4,62,0.15,1,180,-,180,0.8999468000001798,['n'],1.1106904999996914,1.092,3091.9299834000003,,,,,539,19,Woman,Right,
,,,,,,,,,,,,,,,,,539,19,Woman,Right,5,26,0.4,1,180,-,180,1.2587407999999414,['n'],1.7386728999999832,1.764,3113.7967951,60.0,70.0,55.0,,539,19,Woman,Right,
,,,,,,,,,,,,,,,,,539,19,Woman,Right,5,62,0.15,1,180,-,0,0.6536374999996042,['y'],1.1792331000006016,1.334,3118.5800133000002,,,,,539,19,Woman,Right,
,,,,,,,,,,,,,,,,,539,19,Woman,Right,5,67,0.15,2,180,0,180,0.631194499999765,['n'],3.1228910999998334,1.724,3125.0631241,,,,,539,19,Woman,Right,
,,,,,,,,,,,,,,,,,539,19,Woman,Right,5,63,0.15,2,180,0,0,0.8749774000007164,['y'],0.7392553999998199,1.292,3129.3134051999996,,,,,539,19,Woman,Right,
,,,,,,,,,,,,,,,,,539,19,Woman,Right,5,17,0.4,2,0,180,180,1.0172493000000031,['n'],1.2829984999998487,1.326,3134.3968263999996,,,,,539,19,Woman,Right,
,,,,,,,,,,,,,,,,,539,19,Woman,Right,5,18,0.4,1,180,-,0,0.5167395999997098,['y'],0.9387643999998545,1.666,3138.6622846,,,,,539,19,Woman,Right,
,,,,,,,,,,,,,,,,,539,19,Woman,Right,5,40,0.4,1,0,-,0,0.45744310000009136,['y'],0.9387716000001092,1.654,3142.7312473,,,,,539,19,Woman,Right,
,,,,,,,,,,,,,,,,,539,19,Woman,Right,5,30,0.4,1,180,-,180,2.440087300000414,['n'],0.41091809999943507,1.31,3149.0468222,,,,,539,19,Woman,Right,
,,,,,,,,,,,,,,,,,539,19,Woman,Right,5,29,0.4,2,0,180,180,0.6446912999999768,['y'],0.987148299999717,1.718,3153.6962075,,,,,539,19,Woman,Right,
,,,,,,,,,,,,,,,,,539,19,Woman,Right,5,34,0.4,1,180,-,0,0.6427204000001439,['y'],3.8030893000004653,1.042,3160.9124185,,,,,539,19,Woman,Right,
,,,,,,,,,,,,,,,,,539,19,Woman,Right,5,5,1,2,0,180,180,0.6328800000001138,['y'],0.8829168000002028,1.91,3165.4466079000003,,,,,539,19,Woman,Right,
,,,,,,,,,,,,,,,,,539,19,Woman,Right,5,75,0.15,2,180,0,0,2.771321899999748,['y'],0.939041200000247,1.298,3172.2466654,,,,,539,19,Woman,Right,
,,,,,,,,,,,,,,,,,539,19,Woman,Right,5,53,0.15,2,0,180,0,0.3751665999998295,['y'],3.0351696000006996,1.1440000000000001,3178.5461406000004,,,,,539,19,Woman,Right,
,,,,,,,,,,,,,,,,,539,19,Woman,Right,5,16,0.4,1,0,-,0,0.5456769000002168,['n'],0.8189984999999069,1.8519999999999999,3182.6301256999996,,,,,539,19,Woman,Right,
,,,,,,,,,,,,,,,,,539,19,Woman,Right,5,20,0.4,1,0,-,0,0.7957569000000149,['y'],0.971509199999673,1.736,3187.3467343,,,,,539,19,Woman,Right,
,,,,,,,,,,,,,,,,,539,19,Woman,Right,5,69,0.15,2,0,180,0,0.8605781999995088,['y'],0.9954906000002666,1.738,3192.4302522999997,,,,,539,19,Woman,Right,
,,,,,,,,,,,,,,,,,539,19,Woman,Right,5,38,0.4,1,180,-,0,0.9326537000006283,['y'],0.8991343999996388,1.698,3197.5628937,,,,,539,19,Woman,Right,
,,,,,,,,,,,,,,,,,539,19,Woman,Right,5,4,1,1,0,-,0,0.5967706000001272,['n'],0.7312443999999232,1.908,3202.1959899000003,,,,,539,19,Woman,Right,
,,,,,,,,,,,,,,,,,539,19,Woman,Right,5,41,0.4,2,0,180,180,1.2837276000000202,['y'],1.0750656999998682,1.666,3209.6129277,,,,,539,19,Woman,Right,
,,,,,,,,,,,,,,,,,539,19,Woman,Right,5,42,0.4,1,180,-,0,1.7400920000000042,['n'],0.9393578999997771,1.764,3215.2132666999996,,,,,539,19,Woman,Right,
,,,,,,,,,,,,,,,,,539,19,Woman,Right,5,24,0.4,1,0,-,0,0.37392240000008314,['n'],0.9949691000001621,1.818,3219.7960664,,,,,539,19,Woman,Right,
,,,,,,,,,,,,,,,,,539,19,Woman,Right,5,60,0.15,1,0,-,0,2.1723901000004844,['n'],1.4198385999998209,1.256,3226.5787798,,,,,539,19,Woman,Right,
,,,,,,,,,,,,,,,,,539,19,Woman,Right,5,61,0.15,2,0,180,0,0.6040517999999793,['n'],1.1553321999999753,1.302,3231.6131232,,,,,539,19,Woman,Right,
,,,,,,,,,,,,,,,,,539,19,Woman,Right,5,27,0.4,2,180,0,0,0.4661815999997998,['y'],1.0912914000000455,1.6640000000000001,3237.8298094,,,,,539,19,Woman,Right,
,,,,,,,,,,,,,,,,,539,19,Woman,Right,5,77,0.15,2,0,180,0,0.8727294000000256,['n'],1.3075281999999788,1.5979999999999999,3243.4132158,,,,,539,19,Woman,Right,
,,,,,,,,,,,,,,,,,539,19,Woman,Right,5,10,0.4,1,180,-,180,0.529461000000083,['n'],0.9233853000005183,1.6219999999999999,3247.9463334,,,,,539,19,Woman,Right,
,,,,,,,,,,,,,,,,,539,19,Woman,Right,5,2,1,1,180,-,180,0.24185130000023491,['n'],1.3397660000000542,1.8900000000000001,3253.3458721999996,,,,,539,19,Woman,Right,
,,,,,,,,,,,,,,,,,539,19,Woman,Right,5,49,0.15,2,0,180,180,0.736934100000326,['n'],1.083551599999737,1.854,3258.9462193,,,,,539,19,Woman,Right,
,,,,,,,,,,,,,,,,,539,19,Woman,Right,5,59,0.15,2,180,0,180,0.3134811999998419,['n'],1.4679728000000978,1.87,3263.6296197,,,,,539,19,Woman,Right,
,,,,,,,,,,,,,,,,,539,19,Woman,Right,5,68,0.15,1,0,-,180,1.090960399999858,['n'],0.996269399999619,1.666,3268.3126473,,,,,539,19,Woman,Right,
,,,,,,,,,,,,,,,,,539,19,Woman,Right,5,15,0.4,2,180,0,180,0.5832636999994065,['n'],0.7884379999995872,1.692,3272.4628681000004,,,,,539,19,Woman,Right,
,,,,,,,,,,,,,,,,,539,19,Woman,Right,5,66,0.15,1,180,-,180,1.9135509000007005,['n'],1.6916094999996858,1.346,3281.0964875,,,,,539,19,Woman,Right,
,,,,,,,,,,,,,,,,,539,19,Woman,Right,5,64,0.15,1,0,-,0,0.5222070999998323,['n'],0.987810100000388,1.3399999999999999,3285.0130808000004,,,,,539,19,Woman,Right,
,,,,,,,,,,,,,,,,,539,19,Woman,Right,5,21,0.4,2,0,180,0,1.8754546000000119,['y'],0.8278321999996479,1.338,3290.4632963000004,,,,,539,19,Woman,Right,
,,,,,,,,,,,,,,,,,539,19,Woman,Right,5,0,1,1,0,-,0,0.2497151000006852,['n'],0.8834998000002088,1.926,3295.8964782000003,,,,,539,19,Woman,Right,
,,,,,,,,,,,,,,,,,539,19,Woman,Right,5,31,0.4,2,180,0,180,1.074953600000299,['n'],1.9077692000000752,1.6019999999999999,3303.5963707,,,,,539,19,Woman,Right,
,,,,,,,,,,,,,,,,,539,19,Woman,Right,5,37,0.4,2,0,180,0,0.3756236999997782,['n'],1.3799437000006947,1.654,3308.2628182,,,,,539,19,Woman,Right,
,,,,,,,,,,,,,,,,,539,19,Woman,Right,5,57,0.15,2,0,180,0,0.5338215000001583,['n'],0.9643439000001308,1.744,3312.9963403,,,,,539,19,Woman,Right,
,,,,,,,,,,,,,,,,,539,19,Woman,Right,5,1,1,2,0,180,180,0.6538599999994403,['y'],0.9163678999993863,1.7,3317.4961972,,,,,539,19,Woman,Right,
,,,,,,,,,,,,,,,,,539,19,Woman,Right,5,11,0.4,2,180,0,0,0.5179225000001679,['y'],0.8840841000001092,1.698,3321.8624344,,,,,539,19,Woman,Right,
,,,,,,,,,,,,,,,,,539,19,Woman,Right,5,74,0.15,1,180,-,180,0.7172378000004755,['n'],0.8997449999997116,1.5979999999999999,3327.0123771,,,,,539,19,Woman,Right,
,,,,,,,,,,,,,,,,,539,19,Woman,Right,5,58,0.15,1,180,-,180,1.9500037999996493,['n'],1.113325199999963,1.1219999999999999,3332.8799219,,,,,539,19,Woman,Right,
,,,,,,,,,,,,,,,,,539,19,Woman,Right,5,71,0.15,2,180,0,0,0.41436030000022583,['n'],1.035837999999785,1.85,3338.1128637,,,,,539,19,Woman,Right,
,,,,,,,,,,,,,,,,,539,19,Woman,Right,5,33,0.4,2,0,180,180,2.159120299999813,['y'],1.1079829000000245,1.296,3344.3123730999996,,,,,539,19,Woman,Right,
,,,,,,,,,,,,,,,,,539,19,Woman,Right,5,35,0.4,2,180,0,0,0.7136491999999635,['n'],1.0760037000000011,1.6139999999999999,3348.6300680000004,,,,,539,19,Woman,Right,
,,,,,,,,,,,,,,,,,539,19,Woman,Right,5,44,0.15,1,0,-,0,0.8480729000002611,['n'],0.5325333999999202,1.698,3353.7463184,,,,,539,19,Woman,Right,
,,,,,,,,,,,,,,,,,539,19,Woman,Right,5,45,0.15,2,0,180,180,0.46975380000003497,['n'],1.1160133000003043,1.5899999999999999,3358.5797629999997,,,,,539,19,Woman,Right,
,,,,,,,,,,,,,,,,,539,19,Woman,Right,5,46,0.15,1,180,-,180,1.000344799999766,['n'],0.7722466000004715,1.704,3363.3786714,,,,,539,19,Woman,Right,
,,,,,,,,,,,,,,,,,539,19,Woman,Right,5,6,1,1,180,-,0,4.25908040000013,['n'],1.5800062999996953,1.684,3372.7291543,,,,,539,19,Woman,Right,
,,,,,,,,,,,,,,,,,539,19,Woman,Right,5,3,1,2,180,0,0,1.0146737000004578,['y'],0.7725589000001492,1.678,3378.6297631999996,,,,,539,19,Woman,Right,
,,,,,,,,,,,,,,,,,539,19,Woman,Right,5,48,0.15,1,0,-,0,1.0898676999995587,['y'],2.4846016000001327,1.146,3385.2296383000003,,,,,539,19,Woman,Right,
,,,,,,,,,,,,,,,,,539,19,Woman,Right,5,76,0.15,1,0,-,0,0.3650508999999147,['n'],1.0121796999992512,1.8820000000000001,3390.6292722999997,,,,,539,19,Woman,Right,
,,,,,,,,,,,,,,,,,539,19,Woman,Right,5,55,0.15,2,180,0,0,0.8035907000003135,['n'],1.148429899999428,1.354,3397.0798126,,,,,539,19,Woman,Right,
,,,,,,,,,,,,,,,,,539,19,Woman,Right,5,13,0.4,2,0,180,0,1.1161031999999977,['y'],1.1959170000000086,1.67,3402.2958066,,,,,539,19,Woman,Right,
,,,,,,,,,,,,,,,,,539,19,Woman,Right,5,72,0.15,1,0,-,0,1.3265283999999156,['n'],1.181177899999966,1.4060000000000001,3408.0963199999997,,,,,539,19,Woman,Right,
,,,,,,,,,,,,,,,,,539,19,Woman,Right,5,43,0.4,2,180,0,0,1.2873798999999053,['y'],0.9569266999997126,1.324,3415.4126060999997,,,,,539,19,Woman,Right,
,,,,,,,,,,,,,,,,,539,19,Woman,Right,5,22,0.4,1,180,-,180,0.2784338999999818,['n'],4.044564400000127,1.666,3422.7291981,,,,,539,19,Woman,Right,
,,,,,,,,,,,,,,,,,539,19,Woman,Right,5,51,0.15,2,180,0,0,0.16663189999962924,['n'],1.0847648999997546,1.778,3427.2466741,,,,,539,19,Woman,Right,
,,,,,,,,,,,,,,,,,539,19,Woman,Right,5,36,0.4,1,0,-,0,0.29264320000038424,['n'],1.132402799999909,1.608,3434.1623886999996,,,,,539,19,Woman,Right,
,,,,,,,,,,,,,,,,,539,19,Woman,Right,5,52,0.15,1,0,-,0,0.2080707999994047,['n'],0.9008622999999716,1.908,3438.9120316999997,,,,,539,19,Woman,Right,
,,,,,,,,,,,,,,,,,539,19,Woman,Right,5,79,0.15,2,180,0,180,0.5143829999997251,['n'],0.9406033999994179,1.736,3444.4297686,,,,,539,19,Woman,Right,
,,,,,,,,,,,,,,,,,539,19,Woman,Right,5,70,0.15,1,180,-,0,0.3452233999996679,['n'],1.4930265000002692,1.746,3449.4458561,,,,,539,19,Woman,Right,
,,,,,,,,,,,,,,,,,539,19,Woman,Right,5,28,0.4,1,0,-,0,0.2643846000000849,['n'],1.3725727999999435,1.71,3454.3954278,,,,,539,19,Woman,Right,
,,,,,,,,,,,,,,,,,539,19,Woman,Right,5,78,0.15,1,180,-,0,0.862068100000215,['n'],2.108953900000415,1.362,3461.0963401,,,,,539,19,Woman,Right,
,,,,,,,,,,,,,,,,,539,19,Woman,Right,5,39,0.4,2,180,0,0,0.6446722000000591,['y'],1.0368779999998878,1.5739999999999998,3466.3962444,,,,,539,19,Woman,Right,
,,,,,,,,,,,,,,,,,539,19,Woman,Right,5,19,0.4,2,180,0,0,0.6386614000002737,['y'],0.8692610999996759,1.65,3471.145722,,,,,539,19,Woman,Right,
,,,,,,,,,,,,,,,,,539,19,Woman,Right,5,23,0.4,2,180,0,0,0.4642493999999715,['y'],0.8370533000006617,1.626,3475.7623934000003,,,,,539,19,Woman,Right,
,,,,,,,,,,,,,,,,,539,19,Woman,Right,5,12,0.4,1,0,-,0,0.41656550000061543,['y'],0.7671768999998676,1.6280000000000001,3480.0949407999997,,,,,539,19,Woman,Right,
,,,,,,,,,,,,,,,,,539,19,Woman,Right,5,8,0.4,1,0,-,180,1.4825636000005034,['y'],0.7248576000001776,1.3559999999999999,3485.8962055,,,,,539,19,Woman,Right,
,,,,,,,,,,,,,,,,,539,19,Woman,Right,5,47,0.15,2,180,0,0,0.36604559999977937,['y'],1.0932002999998076,1.0,3491.2122538000003,,,,,539,19,Woman,Right,
,,,,,,,,,,,,,,,,,539,19,Woman,Right,5,50,0.15,1,180,-,0,0.6009803999995711,['n'],4.31715129999975,1.338,3499.4125648,,,,,539,19,Woman,Right,
,,,,,,,,,,,,,,,,,539,19,Woman,Right,5,32,0.4,1,0,-,180,1.1255587999994532,['y'],0.8051617999999507,1.3900000000000001,3504.329667,,,,,539,19,Woman,Right,
,,,,,,,,,,,,,,,,,539,19,Woman,Right,5,65,0.15,2,0,180,0,2.0807260999999926,['n'],0.8048386999998911,1.252,3510.6293972000003,,,,,539,19,Woman,Right,
,,,,,,,,,,,,,,,,,539,19,Woman,Right,5,54,0.15,1,180,-,180,3.201642500000162,['n'],2.077345499999865,1.066,3519.5800409000003,,,,,539,19,Woman,Right,
,,,,,,,,,,,,,,,,,539,19,Woman,Right,5,9,0.4,2,0,180,180,0.7226418999998714,['y'],0.9809909999994488,1.588,3524.8622305999997,,,,,539,19,Woman,Right,
,,,,,,,,,,,,,,,,,539,19,Woman,Right,5,25,0.4,2,0,180,0,0.6348728000002666,['y'],0.8366896999996243,1.744,3529.2963495000004,,,,,539,19,Woman,Right,
,,,,,,,,,,,,,,,,,539,19,Woman,Right,5,56,0.15,1,0,-,180,1.181280699999661,['n'],1.0536531999996441,1.492,3535.2455222999997,,,,,539,19,Woman,Right,
,,,,,,,,,,,,,,,,,539,19,Woman,Right,5,73,0.15,2,0,180,0,0.7900110999999015,['y'],0.781460899999729,1.6440000000000001,3542.079229,,,,,539,19,Woman,Right,
,,,,,,,,,,,,,,,,,539,19,Woman,Right,5,7,1,2,180,0,0,0.28320889999940846,['y'],0.8607179000000542,1.918,3546.7120809999997,,,,,539,19,Woman,Right,
,,,,,,,,,,,,,,,,,539,19,Woman,Right,5,14,0.4,1,180,-,0,0.6014782000002015,['y'],1.036787699999877,1.654,3551.4117721000002,,,,,539,19,Woman,Right,
,,,,,,,,,,,,,,,,,,,,,,,,,,,,,,,,,62.5,72.5,57.5,2946.7605030000004,,,,,
