p_block,p_section,p_coherence,p_direction1,p_direction2,p_direction_response,p_direction_RT,p_change_response,p_change_RT,p_confidence,p_full_correct,p_without5_correct,p_full_total,p_without5_total,p_full_avg,p_witout5_avg,p_total_time,sub,age,sex,handedness,loop,trial randomization,coherence,condition,direction1,direction2,direction_response,direction_RT,change_response,change_RT,change_confidence,change_confidence_RT,block_direction_avg,block_stable_avg,block_change_avg,total_time,sub,age,sex,handedness,
1,1,1.0,180,-,0,1.1693964999994932,-,-,-,,,,,,,,548,21,Woman,Right,,,,,,,,,,,,,,,,,548,21,Woman,Right,
1,1,1.0,0,-,0,0.5725812000000587,-,-,-,,,,,,,,548,21,Woman,Right,,,,,,,,,,,,,,,,,548,21,Woman,Right,
1,1,1.0,0,-,0,0.3673051999994641,-,-,-,,,,,,,,548,21,Woman,Right,,,,,,,,,,,,,,,,,548,21,Woman,Right,
1,1,1.0,180,-,180,0.03236370000013267,-,-,-,,,,,,,,548,21,Woman,Right,,,,,,,,,,,,,,,,,548,21,Woman,Right,
1,1,1.0,0,-,0,1.5320626000002449,-,-,-,,,,,,,,548,21,Woman,Right,,,,,,,,,,,,,,,,,548,21,Woman,Right,
1,1,1.0,180,-,0,0.48299649999989924,-,-,-,,,,,,,,548,21,Woman,Right,,,,,,,,,,,,,,,,,548,21,Woman,Right,
1,1,1.0,0,-,0,0.3440727999995943,-,-,-,,,,,,,,548,21,Woman,Right,,,,,,,,,,,,,,,,,548,21,Woman,Right,
1,1,1.0,180,-,0,0.35674070000004576,-,-,-,,,,,,,,548,21,Woman,Right,,,,,,,,,,,,,,,,,548,21,Woman,Right,
1,1,1.0,180,-,0,0.28878530000019964,-,-,-,,,,,,,,548,21,Woman,Right,,,,,,,,,,,,,,,,,548,21,Woman,Right,
1,1,1.0,180,-,0,0.5032623000006424,-,-,-,,,,,,,,548,21,Woman,Right,,,,,,,,,,,,,,,,,548,21,Woman,Right,
1,1,1.0,0,-,0,0.3252356000002692,-,-,-,,,,,,,,548,21,Woman,Right,,,,,,,,,,,,,,,,,548,21,Woman,Right,
1,1,1.0,180,-,180,0.21928890000071988,-,-,-,,,,,,,,548,21,Woman,Right,,,,,,,,,,,,,,,,,548,21,Woman,Right,
1,1,1.0,180,-,0,0.3167500999998083,-,-,-,,,,,,,,548,21,Woman,Right,,,,,,,,,,,,,,,,,548,21,Woman,Right,
1,1,1.0,180,-,0,0.6323889999994208,-,-,-,,,,,,,,548,21,Woman,Right,,,,,,,,,,,,,,,,,548,21,Woman,Right,
1,1,1.0,180,-,0,0.3222052999999505,-,-,-,,,,,,,,548,21,Woman,Right,,,,,,,,,,,,,,,,,548,21,Woman,Right,
1,1,1.0,180,-,0,1.127606499999274,-,-,-,,,,,,,,548,21,Woman,Right,,,,,,,,,,,,,,,,,548,21,Woman,Right,
1,1,1.0,0,-,0,0.34958760000063194,-,-,-,,,,,,,,548,21,Woman,Right,,,,,,,,,,,,,,,,,548,21,Woman,Right,
1,1,1.0,180,-,180,0.29753710000022693,-,-,-,,,,,,,,548,21,Woman,Right,,,,,,,,,,,,,,,,,548,21,Woman,Right,
1,1,1.0,0,-,0,0.20090319999962958,-,-,-,,,,,,,,548,21,Woman,Right,,,,,,,,,,,,,,,,,548,21,Woman,Right,
1,1,1.0,0,-,180,0.14698090000001685,-,-,-,,,,,,,,548,21,Woman,Right,,,,,,,,,,,,,,,,,548,21,Woman,Right,
1,1,1.0,180,-,0,0.2156819000001633,-,-,-,,,,,,,,548,21,Woman,Right,,,,,,,,,,,,,,,,,548,21,Woman,Right,
1,1,1.0,180,-,0,0.016975700000330107,-,-,-,,,,,,,,548,21,Woman,Right,,,,,,,,,,,,,,,,,548,21,Woman,Right,
1,1,1.0,180,-,0,0.4511349999993399,-,-,-,,,,,,,,548,21,Woman,Right,,,,,,,,,,,,,,,,,548,21,Woman,Right,
1,1,1.0,0,-,0,0.22865069999988918,-,-,-,,,,,,,,548,21,Woman,Right,,,,,,,,,,,,,,,,,548,21,Woman,Right,
1,1,1.0,0,-,0,0.34975889999986975,-,-,-,,,,,,,,548,21,Woman,Right,,,,,,,,,,,,,,,,,548,21,Woman,Right,
1,1,1.0,0,-,180,0.2977184999999736,-,-,-,,,,,,,,548,21,Woman,Right,,,,,,,,,,,,,,,,,548,21,Woman,Right,
1,1,1.0,180,-,180,0.04050860000006651,-,-,-,,,,,,,,548,21,Woman,Right,,,,,,,,,,,,,,,,,548,21,Woman,Right,
1,1,1.0,0,-,0,0.04904480000004696,-,-,-,,,,,,,,548,21,Woman,Right,,,,,,,,,,,,,,,,,548,21,Woman,Right,
1,1,1.0,180,-,180,0.3373935999998139,-,-,-,,,,,,,,548,21,Woman,Right,,,,,,,,,,,,,,,,,548,21,Woman,Right,
1,1,1.0,0,-,0,0.022470300000350107,-,-,-,,,,,,,,548,21,Woman,Right,,,,,,,,,,,,,,,,,548,21,Woman,Right,
1,1,1.0,180,-,0,0.2638655999999173,-,-,-,,,,,,,,548,21,Woman,Right,,,,,,,,,,,,,,,,,548,21,Woman,Right,
1,1,1.0,0,-,0,0.2716919999993479,-,-,-,,,,,,,,548,21,Woman,Right,,,,,,,,,,,,,,,,,548,21,Woman,Right,
1,1,1.0,180,-,180,0.1276796000001923,-,-,-,,,,,,,,548,21,Woman,Right,,,,,,,,,,,,,,,,,548,21,Woman,Right,
1,1,1.0,180,-,180,0.31664439999985916,-,-,-,,,,,,,,548,21,Woman,Right,,,,,,,,,,,,,,,,,548,21,Woman,Right,
1,1,1.0,180,-,180,0.05011019999983546,-,-,-,,,,,,,,548,21,Woman,Right,,,,,,,,,,,,,,,,,548,21,Woman,Right,
1,1,1.0,0,-,0,0.016725399999813817,-,-,-,,,,,,,,548,21,Woman,Right,,,,,,,,,,,,,,,,,548,21,Woman,Right,
1,1,1.0,0,-,0,0.14723940000021685,-,-,-,,,,,,,,548,21,Woman,Right,,,,,,,,,,,,,,,,,548,21,Woman,Right,
1,1,1.0,180,-,180,0.01677300000028481,-,-,-,,,,,,,,548,21,Woman,Right,,,,,,,,,,,,,,,,,548,21,Woman,Right,
1,1,1.0,180,-,180,0.24906949999967765,-,-,-,,,,,,,,548,21,Woman,Right,,,,,,,,,,,,,,,,,548,21,Woman,Right,
1,1,1.0,180,-,180,0.18572610000046552,-,-,-,9,9,10,10,0.9,0.9,,548,21,Woman,Right,,,,,,,,,,,,,,,,,548,21,Woman,Right,
2,1,0.4,0,-,0,0.2334486999998262,-,-,-,,,,,,,,548,21,Woman,Right,,,,,,,,,,,,,,,,,548,21,Woman,Right,
2,1,0.15,180,-,180,0.016810500000246975,-,-,-,,,,,,,,548,21,Woman,Right,,,,,,,,,,,,,,,,,548,21,Woman,Right,
2,1,0.4,180,-,180,0.25951940000049945,-,-,-,,,,,,,,548,21,Woman,Right,,,,,,,,,,,,,,,,,548,21,Woman,Right,
2,1,0.4,180,-,0,0.019458099999610567,-,-,-,,,,,,,,548,21,Woman,Right,,,,,,,,,,,,,,,,,548,21,Woman,Right,
2,1,0.15,180,-,0,0.22937530000035622,-,-,-,,,,,,,,548,21,Woman,Right,,,,,,,,,,,,,,,,,548,21,Woman,Right,
2,1,0.15,0,-,0,0.710127399999692,-,-,-,,,,,,,,548,21,Woman,Right,,,,,,,,,,,,,,,,,548,21,Woman,Right,
2,1,0.15,180,-,0,0.016572500000620494,-,-,-,,,,,,,,548,21,Woman,Right,,,,,,,,,,,,,,,,,548,21,Woman,Right,
2,1,0.4,0,-,0,0.5657369999998991,-,-,-,,,,,,,,548,21,Woman,Right,,,,,,,,,,,,,,,,,548,21,Woman,Right,
2,1,0.4,180,-,0,0.5286676000005173,-,-,-,,,,,,,,548,21,Woman,Right,,,,,,,,,,,,,,,,,548,21,Woman,Right,
2,1,0.4,180,-,0,0.22986279999986436,-,-,-,,,,,,,,548,21,Woman,Right,,,,,,,,,,,,,,,,,548,21,Woman,Right,
2,1,0.15,180,-,180,0.559601200000543,-,-,-,,,,,,,,548,21,Woman,Right,,,,,,,,,,,,,,,,,548,21,Woman,Right,
2,1,0.15,180,-,0,0.3246718000000328,-,-,-,,,,,,,,548,21,Woman,Right,,,,,,,,,,,,,,,,,548,21,Woman,Right,
2,1,0.15,180,-,0,0.2496000000001004,-,-,-,,,,,,,,548,21,Woman,Right,,,,,,,,,,,,,,,,,548,21,Woman,Right,
2,1,0.4,180,-,0,0.36903609999990294,-,-,-,,,,,,,,548,21,Woman,Right,,,,,,,,,,,,,,,,,548,21,Woman,Right,
2,1,0.15,180,-,0,0.4131281999998464,-,-,-,,,,,,,,548,21,Woman,Right,,,,,,,,,,,,,,,,,548,21,Woman,Right,
2,1,0.15,0,-,180,0.870282099999713,-,-,-,,,,,,,,548,21,Woman,Right,,,,,,,,,,,,,,,,,548,21,Woman,Right,
2,1,0.4,180,-,180,0.5815956000005826,-,-,-,,,,,,,,548,21,Woman,Right,,,,,,,,,,,,,,,,,548,21,Woman,Right,
2,1,0.4,0,-,0,0.08837440000024799,-,-,-,,,,,,,,548,21,Woman,Right,,,,,,,,,,,,,,,,,548,21,Woman,Right,
2,1,0.15,0,-,0,0.4954311000001326,-,-,-,,,,,,,,548,21,Woman,Right,,,,,,,,,,,,,,,,,548,21,Woman,Right,
2,1,0.15,0,-,180,0.4137555000006614,-,-,-,,,,,,,,548,21,Woman,Right,,,,,,,,,,,,,,,,,548,21,Woman,Right,
2,1,0.4,180,-,0,0.19977149999976973,-,-,-,,,,,,,,548,21,Woman,Right,,,,,,,,,,,,,,,,,548,21,Woman,Right,
2,1,0.4,0,-,0,0.1538079000001744,-,-,-,,,,,,,,548,21,Woman,Right,,,,,,,,,,,,,,,,,548,21,Woman,Right,
2,1,0.15,0,-,0,0.2944184000007226,-,-,-,,,,,,,,548,21,Woman,Right,,,,,,,,,,,,,,,,,548,21,Woman,Right,
2,1,0.15,0,-,180,0.3093562000003658,-,-,-,,,,,,,,548,21,Woman,Right,,,,,,,,,,,,,,,,,548,21,Woman,Right,
2,1,0.15,180,-,0,0.41919810000035795,-,-,-,,,,,,,,548,21,Woman,Right,,,,,,,,,,,,,,,,,548,21,Woman,Right,
2,1,0.15,180,-,0,0.5890923999995721,-,-,-,,,,,,,,548,21,Woman,Right,,,,,,,,,,,,,,,,,548,21,Woman,Right,
2,1,0.15,0,-,0,0.19173510000018723,-,-,-,,,,,,,,548,21,Woman,Right,,,,,,,,,,,,,,,,,548,21,Woman,Right,
2,1,0.15,0,-,180,0.4339315999995961,-,-,-,,,,,,,,548,21,Woman,Right,,,,,,,,,,,,,,,,,548,21,Woman,Right,
2,1,0.15,0,-,0,0.25890290000006644,-,-,-,,,,,,,,548,21,Woman,Right,,,,,,,,,,,,,,,,,548,21,Woman,Right,
2,1,0.15,180,-,180,0.3946336999997584,-,-,-,,,,,,,,548,21,Woman,Right,,,,,,,,,,,,,,,,,548,21,Woman,Right,
2,1,0.4,0,-,0,0.3333130999999412,-,-,-,,,,,,,,548,21,Woman,Right,,,,,,,,,,,,,,,,,548,21,Woman,Right,
2,1,0.4,180,-,180,0.3219974000003276,-,-,-,,,,,,,,548,21,Woman,Right,,,,,,,,,,,,,,,,,548,21,Woman,Right,
2,1,0.4,180,-,180,0.23148870000022725,-,-,-,,,,,,,,548,21,Woman,Right,,,,,,,,,,,,,,,,,548,21,Woman,Right,
2,1,0.4,0,-,0,0.18396559999928286,-,-,-,,,,,,,,548,21,Woman,Right,,,,,,,,,,,,,,,,,548,21,Woman,Right,
2,1,0.4,0,-,0,0.21178469999995286,-,-,-,,,,,,,,548,21,Woman,Right,,,,,,,,,,,,,,,,,548,21,Woman,Right,
2,1,0.15,180,-,180,0.3091884999994363,-,-,-,,,,,,,,548,21,Woman,Right,,,,,,,,,,,,,,,,,548,21,Woman,Right,
2,1,0.15,180,-,0,0.31546960000014224,-,-,-,,,,,,,,548,21,Woman,Right,,,,,,,,,,,,,,,,,548,21,Woman,Right,
2,1,0.4,180,-,0,0.585053799999514,-,-,-,,,,,,,,548,21,Woman,Right,,,,,,,,,,,,,,,,,548,21,Woman,Right,
2,1,0.4,0,-,0,0.4594100999993316,-,-,-,,,,,,,,548,21,Woman,Right,,,,,,,,,,,,,,,,,548,21,Woman,Right,
2,1,0.4,0,-,0,0.19917159999931755,-,-,-,8,7,10,8,0.8,0.875,,548,21,Woman,Right,,,,,,,,,,,,,,,,,548,21,Woman,Right,
3,2,1.0,180,0,0,1.8110188000000562,['y'],4.982339000000138,1.79,,,,,,,,548,21,Woman,Right,,,,,,,,,,,,,,,,,548,21,Woman,Right,
3,2,1.0,0,180,180,1.0176573999997345,['y'],0.5790647000003446,1.8780000000000001,,,,,,,,548,21,Woman,Right,,,,,,,,,,,,,,,,,548,21,Woman,Right,
3,2,1.0,0,180,180,1.149333100000149,['y'],0.5569766999997228,1.8599999999999999,,,,,,,,548,21,Woman,Right,,,,,,,,,,,,,,,,,548,21,Woman,Right,
3,2,1.0,180,0,0,0.708972299999914,['y'],0.32458390000010695,1.998,,,,,,,,548,21,Woman,Right,,,,,,,,,,,,,,,,,548,21,Woman,Right,
3,2,1.0,0,180,180,0.6647892999999385,['y'],0.625306200000523,1.952,,,,,,,,548,21,Woman,Right,,,,,,,,,,,,,,,,,548,21,Woman,Right,
3,2,1.0,180,0,0,0.9969956000004458,['y'],0.26565169999958016,1.976,,,,,,,,548,21,Woman,Right,,,,,,,,,,,,,,,,,548,21,Woman,Right,
3,2,1.0,180,0,0,0.944717600000331,['y'],0.28648900000007416,2.0,,,,,,,,548,21,Woman,Right,,,,,,,,,,,,,,,,,548,21,Woman,Right,
3,2,1.0,180,0,0,0.6663442999997642,['y'],0.39591850000033446,1.994,,,,,,,,548,21,Woman,Right,,,,,,,,,,,,,,,,,548,21,Woman,Right,
3,2,1.0,0,180,180,0.9519484000002194,['y'],0.26154310000038095,1.984,,,,,,,,548,21,Woman,Right,,,,,,,,,,,,,,,,,548,21,Woman,Right,
3,2,1.0,0,180,180,0.5433346999998321,['y'],0.23700060000010126,1.994,10,10,10,10,1.0,1.0,,548,21,Woman,Right,,,,,,,,,,,,,,,,,548,21,Woman,Right,
4,2,0.15,180,0,0,3.2000153999997565,['n'],1.8470132000002195,1.1400000000000001,,,,,,,,548,21,Woman,Right,,,,,,,,,,,,,,,,,548,21,Woman,Right,
4,2,0.15,0,180,0,0.7234612000002016,['y'],1.8495137999998406,1.0939999999999999,,,,,,,,548,21,Woman,Right,,,,,,,,,,,,,,,,,548,21,Woman,Right,
4,2,0.15,0,180,180,0.5175060000001395,['n'],0.9152532000007341,1.376,,,,,,,,548,21,Woman,Right,,,,,,,,,,,,,,,,,548,21,Woman,Right,
4,2,0.15,0,180,0,0.5629724999998871,['y'],0.6710893999998007,1.222,,,,,,,,548,21,Woman,Right,,,,,,,,,,,,,,,,,548,21,Woman,Right,
4,2,0.15,180,0,0,0.5804791999998997,['y'],0.3532655999997587,1.496,,,,,,,,548,21,Woman,Right,,,,,,,,,,,,,,,,,548,21,Woman,Right,
4,2,0.15,0,180,0,0.7168753999994806,['y'],1.307070300000305,1.1219999999999999,,,,,,,,548,21,Woman,Right,,,,,,,,,,,,,,,,,548,21,Woman,Right,
4,2,0.15,0,180,180,1.512622299999748,['y'],0.35850769999979093,1.766,,,,,,,,548,21,Woman,Right,,,,,,,,,,,,,,,,,548,21,Woman,Right,
4,2,0.15,180,0,0,1.163141899999573,['y'],0.27866440000070725,1.638,,,,,,,,548,21,Woman,Right,,,,,,,,,,,,,,,,,548,21,Woman,Right,
4,2,0.4,180,0,0,0.6921771000006629,['y'],0.25948239999979705,1.87,,,,,,,,548,21,Woman,Right,,,,,,,,,,,,,,,,,548,21,Woman,Right,
4,2,0.15,0,180,0,0.9691687000004094,['n'],0.46078250000027765,1.032,6,1,10,1,0.6,1.0,,548,21,Woman,Right,,,,,,,,,,,,,,,,,548,21,Woman,Right,
5,3,0.4,0,180,180,1.0321443000002546,['y'],0.8729321999999229,1.812,,,,,,,,548,21,Woman,Right,,,,,,,,,,,,,,,,,548,21,Woman,Right,
5,3,1.0,180,0,0,1.1189478999995117,['y'],0.2680558000001838,1.978,,,,,,,,548,21,Woman,Right,,,,,,,,,,,,,,,,,548,21,Woman,Right,
5,3,0.15,180,0,0,0.8748019000004206,['n'],1.0971645999998145,1.604,,,,,,,,548,21,Woman,Right,,,,,,,,,,,,,,,,,548,21,Woman,Right,
5,3,0.15,180,-,0,0.8056849000004149,['y'],0.8791792000001806,1.142,,,,,,,,548,21,Woman,Right,,,,,,,,,,,,,,,,,548,21,Woman,Right,
5,3,0.15,0,180,0,1.781031399999847,['n'],0.7592682999993485,1.256,,,,,,,,548,21,Woman,Right,,,,,,,,,,,,,,,,,548,21,Woman,Right,
5,3,0.4,0,180,180,0.8834022000000914,['y'],0.2739531999995961,1.816,,,,,,,,548,21,Woman,Right,,,,,,,,,,,,,,,,,548,21,Woman,Right,
5,3,1.0,180,-,180,1.218429699999433,['n'],0.5230884000002334,1.8639999999999999,,,,,,,,548,21,Woman,Right,,,,,,,,,,,,,,,,,548,21,Woman,Right,
5,3,0.15,0,-,0,0.9941639000007854,['n'],0.9727029999994556,1.8599999999999999,,,,,,,,548,21,Woman,Right,,,,,,,,,,,,,,,,,548,21,Woman,Right,
5,3,0.4,0,180,180,0.5767329000000245,['y'],1.4441310000001977,1.8860000000000001,,,,,,,,548,21,Woman,Right,,,,,,,,,,,,,,,,,548,21,Woman,Right,
5,3,0.4,180,-,0,2.049471899999844,['n'],0.366056099999696,1.282,7,5,10,6,0.7,0.8333333333333334,,548,21,Woman,Right,,,,,,,,,,,,,,,,,548,21,Woman,Right,
,,,,,,,,,,,,,,,,4.699999408330768e-06,548,21,Woman,Right,,,,,,,,,,,,,,,,,548,21,Woman,Right,
,,,,,,,,,,,,,,,,,548,21,Woman,Right,0,75,0.15,2,180,0,0,2.199809599999753,['y'],2.141586200000347,1.166,301.95225200000004,,,,,548,21,Woman,Right,
,,,,,,,,,,,,,,,,,548,21,Woman,Right,0,65,0.15,2,0,180,180,0.6784974999991391,['y'],0.7741187999999966,1.75,307.26870360000066,,,,,548,21,Woman,Right,
,,,,,,,,,,,,,,,,,548,21,Woman,Right,0,21,0.4,2,0,180,180,0.6380927000000156,['y'],0.8779334999999264,1.834,311.60197120000066,,,,,548,21,Woman,Right,
,,,,,,,,,,,,,,,,,548,21,Woman,Right,0,59,0.15,2,180,0,0,3.282908899999711,['y'],1.667722600000161,1.216,320.7356692000003,,,,,548,21,Woman,Right,
,,,,,,,,,,,,,,,,,548,21,Woman,Right,0,52,0.15,1,0,-,0,0.8960776000003534,['n'],0.9017499999999927,1.278,325.5018213000003,,,,,548,21,Woman,Right,
,,,,,,,,,,,,,,,,,548,21,Woman,Right,0,8,0.4,1,0,-,0,0.5710041000002093,['n'],1.277996599999824,1.6099999999999999,330.4525863000008,,,,,548,21,Woman,Right,
,,,,,,,,,,,,,,,,,548,21,Woman,Right,0,45,0.15,2,0,180,180,0.5547290000004068,['n'],1.0936722999995254,1.086,334.9858299000007,,,,,548,21,Woman,Right,
,,,,,,,,,,,,,,,,,548,21,Woman,Right,0,78,0.15,1,180,-,180,1.1356412000004639,['y'],0.7255844000001161,1.3900000000000001,340.0018447000002,,,,,548,21,Woman,Right,
,,,,,,,,,,,,,,,,,548,21,Woman,Right,0,63,0.15,2,180,0,0,0.8227721999992355,['y'],0.5496339000001171,1.1440000000000001,344.2189336000001,,,,,548,21,Woman,Right,
,,,,,,,,,,,,,,,,,548,21,Woman,Right,0,76,0.15,1,0,-,0,0.5111034999999902,['n'],0.7742059000001973,1.3780000000000001,348.6191007000007,,,,,548,21,Woman,Right,
,,,,,,,,,,,,,,,,,548,21,Woman,Right,0,36,0.4,1,0,-,180,0.47047380000003614,['y'],0.9173728999994637,1.478,355.08523480000076,,,,,548,21,Woman,Right,
,,,,,,,,,,,,,,,,,548,21,Woman,Right,0,19,0.4,2,180,0,0,0.9245874999996886,['n'],1.1339256999999634,1.4140000000000001,360.58544880000045,,,,,548,21,Woman,Right,
,,,,,,,,,,,,,,,,,548,21,Woman,Right,0,48,0.15,1,0,-,0,0.513452000000143,['n'],1.0056433999998262,1.418,365.46830370000043,,,,,548,21,Woman,Right,
,,,,,,,,,,,,,,,,,548,21,Woman,Right,0,37,0.4,2,0,180,180,0.5926816999999573,['y'],0.7180211999993844,1.75,373.10152130000006,,,,,548,21,Woman,Right,
,,,,,,,,,,,,,,,,,548,21,Woman,Right,0,24,0.4,1,0,-,180,1.4325208999998722,['y'],0.7585759999992661,1.746,377.9015465000002,,,,,548,21,Woman,Right,
,,,,,,,,,,,,,,,,,548,21,Woman,Right,0,28,0.4,1,0,-,0,1.0690223000001424,['y'],0.7565871999995579,1.682,382.75190510000084,,,,,548,21,Woman,Right,
,,,,,,,,,,,,,,,,,548,21,Woman,Right,0,1,1,2,0,180,180,0.6970059999994191,['y'],0.6298095000001922,1.938,387.16871000000083,,,,,548,21,Woman,Right,
,,,,,,,,,,,,,,,,,548,21,Woman,Right,0,29,0.4,2,0,180,180,0.5757626000004166,['y'],0.5731972000003225,1.932,391.15213660000063,,,,,548,21,Woman,Right,
,,,,,,,,,,,,,,,,,548,21,Woman,Right,0,64,0.15,1,0,-,0,1.141235900000538,['n'],0.7895076000004337,1.608,395.85253420000026,,,,,548,21,Woman,Right,
,,,,,,,,,,,,,,,,,548,21,Woman,Right,0,14,0.4,1,180,-,180,0.7682465000007141,['y'],1.6135857999997825,1.438,401.50245950000044,,,,,548,21,Woman,Right,
,,,,,,,,,,,,,,,,,548,21,Woman,Right,0,12,0.4,1,0,-,0,0.7490357999995467,['n'],2.0693277999998827,1.338,407.1687791000004,,,,,548,21,Woman,Right,
,,,,,,,,,,,,,,,,,548,21,Woman,Right,0,9,0.4,2,0,180,180,0.719466999999895,['y'],0.6768820999996024,1.94,411.5361137,,,,,548,21,Woman,Right,
,,,,,,,,,,,,,,,,,548,21,Woman,Right,0,43,0.4,2,180,0,0,1.1452202999998917,['y'],0.7811025000000882,1.866,416.1353218000004,,,,,548,21,Woman,Right,
,,,,,,,,,,,,,,,,,548,21,Woman,Right,0,10,0.4,1,180,-,0,0.47987859999921056,['y'],1.2211551999998846,1.3860000000000001,420.76884020000034,,,,,548,21,Woman,Right,
,,,,,,,,,,,,,,,,,548,21,Woman,Right,0,17,0.4,2,0,180,180,0.6354481999997006,['y'],0.6529029000002993,1.8719999999999999,424.5358702000003,,,,,548,21,Woman,Right,
,,,,,,,,,,,,,,,,,548,21,Woman,Right,0,2,1,1,180,-,0,0.5316062000001693,['y'],0.44533880000017234,1.912,428.40236060000007,,,,,548,21,Woman,Right,
,,,,,,,,,,,,,,,,,548,21,Woman,Right,0,16,0.4,1,0,-,0,1.2501565000002302,['n'],1.5256602999997995,1.3860000000000001,433.80246700000043,,,,,548,21,Woman,Right,
,,,,,,,,,,,,,,,,,548,21,Woman,Right,0,73,0.15,2,0,180,180,0.533309299999928,['y'],0.738398700000289,1.4100000000000001,437.83592340000087,,,,,548,21,Woman,Right,
,,,,,,,,,,,,,,,,,548,21,Woman,Right,0,34,0.4,1,180,-,0,0.5813800000005358,['y'],0.7414478000000599,1.6,443.1016361000002,,,,,548,21,Woman,Right,
,,,,,,,,,,,,,,,,,548,21,Woman,Right,0,74,0.15,1,180,-,0,1.1921597000000475,['n'],1.1485870999995313,1.588,450.7516940000005,,,,,548,21,Woman,Right,
,,,,,,,,,,,,,,,,,548,21,Woman,Right,0,71,0.15,2,180,0,0,0.4021092000002682,['n'],1.812814800000524,1.58,455.5856515000005,,,,,548,21,Woman,Right,
,,,,,,,,,,,,,,,,,548,21,Woman,Right,0,44,0.15,1,0,-,0,0.9308312999992268,['y'],1.1253585000004023,1.28,460.3195940000005,,,,,548,21,Woman,Right,
,,,,,,,,,,,,,,,,,548,21,Woman,Right,0,13,0.4,2,0,180,180,0.43628350000017235,['y'],1.0768287999999302,1.942,464.3370360000008,,,,,548,21,Woman,Right,
,,,,,,,,,,,,,,,,,548,21,Woman,Right,0,72,0.15,1,0,-,0,0.8284932999995362,['y'],1.340764799999306,1.254,468.9846808000002,,,,,548,21,Woman,Right,
,,,,,,,,,,,,,,,,,548,21,Woman,Right,0,55,0.15,2,180,0,0,1.0510441999995237,['n'],1.1089949000006527,1.424,474.1688049000004,,,,,548,21,Woman,Right,
,,,,,,,,,,,,,,,,,548,21,Woman,Right,0,67,0.15,2,180,0,180,0.6517091000005166,['y'],0.8366117000005033,1.1179999999999999,479.1518354000009,,,,,548,21,Woman,Right,
,,,,,,,,,,,,,,,,,548,21,Woman,Right,0,5,1,2,0,180,180,0.8096055000005435,['y'],0.8765346999998656,1.96,483.5363625,,,,,548,21,Woman,Right,
,,,,,,,,,,,,,,,,,548,21,Woman,Right,0,54,0.15,1,180,-,0,0.6855343999995966,['n'],1.604689600000711,1.342,488.1353295000008,,,,,548,21,Woman,Right,
,,,,,,,,,,,,,,,,,548,21,Woman,Right,0,3,1,2,180,0,0,0.7814706999997725,['y'],1.069447400000172,1.362,493.1857546000001,,,,,548,21,Woman,Right,
,,,,,,,,,,,,,,,,,548,21,Woman,Right,0,26,0.4,1,180,-,0,1.1123004999999466,['y'],1.012685099999544,1.268,498.2351898000006,,,,,548,21,Woman,Right,
,,,,,,,,,,,,,,,,,548,21,Woman,Right,0,38,0.4,1,180,-,180,1.6934561999996731,['y'],1.012501400000474,1.608,504.0184868000006,,,,,548,21,Woman,Right,
,,,,,,,,,,,,,,,,,548,21,Woman,Right,0,79,0.15,2,180,0,180,0.8864794000000984,['n'],1.0848565999995117,1.424,509.35239720000027,,,,,548,21,Woman,Right,
,,,,,,,,,,,,,,,,,548,21,Woman,Right,0,62,0.15,1,180,-,0,1.1428130000003875,['n'],1.452736499999446,1.592,514.3351374000003,,,,,548,21,Woman,Right,
,,,,,,,,,,,,,,,,,548,21,Woman,Right,0,27,0.4,2,180,0,0,0.5836528999998336,['y'],0.5721150999997917,1.998,518.5183769000005,,,,,548,21,Woman,Right,
,,,,,,,,,,,,,,,,,548,21,Woman,Right,0,15,0.4,2,180,0,0,0.5726946000004318,['y'],0.7566722000001391,2.0,522.8538458000003,,,,,548,21,Woman,Right,
,,,,,,,,,,,,,,,,,548,21,Woman,Right,0,30,0.4,1,180,-,180,0.7744801999997435,['n'],0.9564190999999482,1.714,527.2025961000008,,,,,548,21,Woman,Right,
,,,,,,,,,,,,,,,,,548,21,Woman,Right,0,11,0.4,2,180,0,0,0.8127644000005603,['y'],0.5563271000000896,1.996,531.3024805000005,,,,,548,21,Woman,Right,
,,,,,,,,,,,,,,,,,548,21,Woman,Right,0,56,0.15,1,0,-,180,0.4702917000004163,['n'],1.5164063000001988,1.392,536.2696147000006,,,,,548,21,Woman,Right,
,,,,,,,,,,,,,,,,,548,21,Woman,Right,0,50,0.15,1,180,-,0,0.9475257000003694,['n'],0.8757914999996501,1.3559999999999999,540.5519805000004,,,,,548,21,Woman,Right,
,,,,,,,,,,,,,,,,,548,21,Woman,Right,0,40,0.4,1,0,-,180,0.5989467999997942,['y'],0.9082841999997981,1.37,545.0854302000007,,,,,548,21,Woman,Right,
,,,,,,,,,,,,,,,,,548,21,Woman,Right,0,42,0.4,1,180,-,0,0.8348219999998037,['y'],0.8123978000003262,1.3319999999999999,549.6196315000007,,,,,548,21,Woman,Right,
,,,,,,,,,,,,,,,,,548,21,Woman,Right,0,25,0.4,2,0,180,180,0.6575754000004963,['y'],0.6046717999997782,1.712,554.5519675000005,,,,,548,21,Woman,Right,
,,,,,,,,,,,,,,,,,548,21,Woman,Right,0,61,0.15,2,0,180,180,1.4894319999993968,['y'],0.40383360000032553,1.6019999999999999,559.6026749000002,,,,,548,21,Woman,Right,
,,,,,,,,,,,,,,,,,548,21,Woman,Right,0,49,0.15,2,0,180,0,0.780808600000455,['n'],1.1559723999998823,1.696,564.2683629000003,,,,,548,21,Woman,Right,
,,,,,,,,,,,,,,,,,548,21,Woman,Right,0,23,0.4,2,180,0,0,0.9372731000003114,['y'],0.8200858999998673,1.88,568.7522079,,,,,548,21,Woman,Right,
,,,,,,,,,,,,,,,,,548,21,Woman,Right,0,57,0.15,2,0,180,180,0.4808990999999878,['y'],0.8437097000005451,1.762,572.6702203000004,,,,,548,21,Woman,Right,
,,,,,,,,,,,,,,,,,548,21,Woman,Right,0,39,0.4,2,180,0,0,3.78021549999994,['y'],0.5156047000000399,1.978,579.8202525000006,,,,,548,21,Woman,Right,
,,,,,,,,,,,,,,,,,548,21,Woman,Right,0,20,0.4,1,0,-,0,5.896299299999555,['n'],0.7955726000000141,1.18,589.7029393000003,,,,,548,21,Woman,Right,
,,,,,,,,,,,,,,,,,548,21,Woman,Right,0,69,0.15,2,0,180,0,0.6891222000003836,['n'],0.7634710000002087,1.49,595.3017801000005,,,,,548,21,Woman,Right,
,,,,,,,,,,,,,,,,,548,21,Woman,Right,0,53,0.15,2,0,180,0,2.7205370000001494,['y'],0.9241802000005919,1.49,601.6184095000008,,,,,548,21,Woman,Right,
,,,,,,,,,,,,,,,,,548,21,Woman,Right,0,31,0.4,2,180,0,0,1.495325099999718,['y'],0.6203138000000763,1.954,606.5030916000005,,,,,548,21,Woman,Right,
,,,,,,,,,,,,,,,,,548,21,Woman,Right,0,58,0.15,1,180,-,0,0.805677199999991,['n'],1.244232699999884,1.72,611.0031342000002,,,,,548,21,Woman,Right,
,,,,,,,,,,,,,,,,,548,21,Woman,Right,0,47,0.15,2,180,0,0,0.74687189999986,['y'],0.5723464000002423,1.6139999999999999,615.1029719000007,,,,,548,21,Woman,Right,
,,,,,,,,,,,,,,,,,548,21,Woman,Right,0,0,1,1,0,-,0,0.8831376999996792,['y'],0.564067299999806,1.584,620.4860238000001,,,,,548,21,Woman,Right,
,,,,,,,,,,,,,,,,,548,21,Woman,Right,0,33,0.4,2,0,180,180,0.8888623000002553,['y'],0.5241755000006378,1.952,624.6697263000005,,,,,548,21,Woman,Right,
,,,,,,,,,,,,,,,,,548,21,Woman,Right,0,7,1,2,180,0,0,1.1927997000002506,['y'],0.6276411000008011,1.964,629.1534046000006,,,,,548,21,Woman,Right,
,,,,,,,,,,,,,,,,,548,21,Woman,Right,0,70,0.15,1,180,-,180,0.5873775000000023,['n'],0.8839911000004577,1.692,633.9031367000007,,,,,548,21,Woman,Right,
,,,,,,,,,,,,,,,,,548,21,Woman,Right,0,22,0.4,1,180,-,0,1.1880405000001701,['y'],0.7317111000002114,1.592,638.5699355000006,,,,,548,21,Woman,Right,
,,,,,,,,,,,,,,,,,548,21,Woman,Right,0,46,0.15,1,180,-,180,2.043066700000054,['n'],1.17148780000025,1.494,644.9692824000003,,,,,548,21,Woman,Right,
,,,,,,,,,,,,,,,,,548,21,Woman,Right,0,32,0.4,1,0,-,0,0.6299074999997174,['n'],1.1713386000001265,1.888,649.6528641000004,,,,,548,21,Woman,Right,
,,,,,,,,,,,,,,,,,548,21,Woman,Right,0,68,0.15,1,0,-,0,1.5065767999994932,['n'],1.0998281000001953,1.498,655.0693590000001,,,,,548,21,Woman,Right,
,,,,,,,,,,,,,,,,,548,21,Woman,Right,0,41,0.4,2,0,180,180,1.230303599999388,['y'],0.7075518999999986,1.976,659.8354555000005,,,,,548,21,Woman,Right,
,,,,,,,,,,,,,,,,,548,21,Woman,Right,0,35,0.4,2,180,0,0,1.5253763000000617,['y'],0.5957096999991336,2.0,665.0694338000003,,,,,548,21,Woman,Right,
,,,,,,,,,,,,,,,,,548,21,Woman,Right,0,66,0.15,1,180,-,180,0.7257207000002381,['y'],0.419328900000437,1.38,669.4866335000006,,,,,548,21,Woman,Right,
,,,,,,,,,,,,,,,,,548,21,Woman,Right,0,51,0.15,2,180,0,180,1.1278387000002112,['n'],1.0672002999999677,1.432,674.4863631000007,,,,,548,21,Woman,Right,
,,,,,,,,,,,,,,,,,548,21,Woman,Right,0,60,0.15,1,0,-,0,0.92835070000001,['n'],0.4912390999998024,1.71,678.7855764000005,,,,,548,21,Woman,Right,
,,,,,,,,,,,,,,,,,548,21,Woman,Right,0,4,1,1,0,-,0,0.7481053000001339,['n'],0.6429385000001275,1.666,682.9696323000007,,,,,548,21,Woman,Right,
,,,,,,,,,,,,,,,,,548,21,Woman,Right,0,6,1,1,180,-,180,0.5480638999997609,['y'],2.7156914999995934,1.6680000000000001,688.7858500000002,,,,,548,21,Woman,Right,
,,,,,,,,,,,,,,,,,548,21,Woman,Right,0,18,0.4,1,180,-,0,0.41352850000021135,['n'],0.44278399999984686,1.696,692.6033383000004,,,,,548,21,Woman,Right,
,,,,,,,,,,,,,,,,,548,21,Woman,Right,0,77,0.15,2,0,180,0,3.5236408000000665,['n'],0.7793715999996493,1.754,699.7532656000003,,,,,548,21,Woman,Right,
,,,,,,,,,,,,,,,,,548,21,Woman,Right,1,51,0.15,2,180,0,0,2.199579299999641,['n'],1.3459499999999025,1.77,729.0354714000005,71.25,55.0,77.5,,548,21,Woman,Right,
,,,,,,,,,,,,,,,,,548,21,Woman,Right,1,48,0.15,1,0,-,0,0.8749533999998675,['n'],0.5395064000003913,1.77,733.2700534000005,,,,,548,21,Woman,Right,
,,,,,,,,,,,,,,,,,548,21,Woman,Right,1,9,0.4,2,0,180,0,4.216533599999821,['y'],1.4425537999995868,1.8439999999999999,741.6367889000003,,,,,548,21,Woman,Right,
,,,,,,,,,,,,,,,,,548,21,Woman,Right,1,23,0.4,2,180,0,0,1.2315495000002556,['y'],0.6193060000005062,1.8439999999999999,746.0528980000008,,,,,548,21,Woman,Right,
,,,,,,,,,,,,,,,,,548,21,Woman,Right,1,12,0.4,1,0,-,0,0.7789286000006541,['n'],0.7153520000001663,1.482,750.6034755000001,,,,,548,21,Woman,Right,
,,,,,,,,,,,,,,,,,548,21,Woman,Right,1,11,0.4,2,180,0,0,1.145043500000611,['y'],0.6112174999998388,1.858,755.7857076,,,,,548,21,Woman,Right,
,,,,,,,,,,,,,,,,,548,21,Woman,Right,1,49,0.15,2,0,180,180,0.8996573000003991,['n'],0.8906864999999016,1.562,760.9533918000006,,,,,548,21,Woman,Right,
,,,,,,,,,,,,,,,,,548,21,Woman,Right,1,33,0.4,2,0,180,0,2.317952599999444,['y'],2.0267931999997018,1.666,767.9700418000002,,,,,548,21,Woman,Right,
,,,,,,,,,,,,,,,,,548,21,Woman,Right,1,10,0.4,1,180,-,0,1.1129480999998123,['y'],1.2666259000006903,1.748,772.8538850000004,,,,,548,21,Woman,Right,
,,,,,,,,,,,,,,,,,548,21,Woman,Right,1,0,1,1,0,-,0,0.8862417000000278,['n'],0.8265163999994911,1.718,777.2046910000008,,,,,548,21,Woman,Right,
,,,,,,,,,,,,,,,,,548,21,Woman,Right,1,22,0.4,1,180,-,0,2.116459699999723,['n'],1.434451799999806,1.302,784.4529850000008,,,,,548,21,Woman,Right,
,,,,,,,,,,,,,,,,,548,21,Woman,Right,1,24,0.4,1,0,-,0,0.6599407000003339,['n'],0.6668761999999333,1.3319999999999999,788.353548,,,,,548,21,Woman,Right,
,,,,,,,,,,,,,,,,,548,21,Woman,Right,1,75,0.15,2,180,0,0,0.4945469000003868,['n'],1.107260399999177,1.3319999999999999,792.5201195000009,,,,,548,21,Woman,Right,
,,,,,,,,,,,,,,,,,548,21,Woman,Right,1,21,0.4,2,0,180,180,1.11603550000018,['y'],0.5656635999994251,1.718,796.6200880000006,,,,,548,21,Woman,Right,
,,,,,,,,,,,,,,,,,548,21,Woman,Right,1,78,0.15,1,180,-,0,1.0979803000000175,['n'],1.146161900000152,1.468,802.1526490000006,,,,,548,21,Woman,Right,
,,,,,,,,,,,,,,,,,548,21,Woman,Right,1,18,0.4,1,180,-,0,1.6804483000005348,['n'],2.538404200000514,1.566,809.4200772000004,,,,,548,21,Woman,Right,
,,,,,,,,,,,,,,,,,548,21,Woman,Right,1,66,0.15,1,180,-,0,0.666221299999961,['n'],1.5384715999998662,1.566,814.6697368000005,,,,,548,21,Woman,Right,
,,,,,,,,,,,,,,,,,548,21,Woman,Right,1,42,0.4,1,180,-,180,0.6634387000003699,['y'],1.0427442000000156,1.55,819.7530312000008,,,,,548,21,Woman,Right,
,,,,,,,,,,,,,,,,,548,21,Woman,Right,1,68,0.15,1,0,-,0,0.6367359999994733,['n'],0.890761399999974,1.418,823.8204064000001,,,,,548,21,Woman,Right,
,,,,,,,,,,,,,,,,,548,21,Woman,Right,1,5,1,2,0,180,0,2.005121700000018,['y'],1.4740553000001455,1.854,830.1364784000007,,,,,548,21,Woman,Right,
,,,,,,,,,,,,,,,,,548,21,Woman,Right,1,53,0.15,2,0,180,0,1.3520641000004616,['n'],0.7622763999997915,1.558,834.8530027000006,,,,,548,21,Woman,Right,
,,,,,,,,,,,,,,,,,548,21,Woman,Right,1,57,0.15,2,0,180,180,0.4999010999999882,['n'],0.6863466999993761,1.5859999999999999,838.6195917000005,,,,,548,21,Woman,Right,
,,,,,,,,,,,,,,,,,548,21,Woman,Right,1,27,0.4,2,180,0,0,1.2605959000002258,['y'],0.5300593000001754,1.832,842.9533034000006,,,,,548,21,Woman,Right,
,,,,,,,,,,,,,,,,,548,21,Woman,Right,1,4,1,1,0,-,0,0.5747701999998753,['n'],1.049863600000208,1.558,847.1864482000001,,,,,548,21,Woman,Right,
,,,,,,,,,,,,,,,,,548,21,Woman,Right,1,34,0.4,1,180,-,180,0.6844315999996979,['y'],0.9463968999998542,1.6520000000000001,851.2367487000001,,,,,548,21,Woman,Right,
,,,,,,,,,,,,,,,,,548,21,Woman,Right,1,20,0.4,1,0,-,180,0.9755580999999438,['y'],1.793825800000377,1.616,856.2692404000009,,,,,548,21,Woman,Right,
,,,,,,,,,,,,,,,,,548,21,Woman,Right,1,63,0.15,2,180,0,0,2.20946449999974,['n'],0.8666278999999122,1.616,861.6855313000005,,,,,548,21,Woman,Right,
,,,,,,,,,,,,,,,,,548,21,Woman,Right,1,70,0.15,1,180,-,0,0.6973424999996496,['n'],0.7221972000006645,1.616,865.9532477000002,,,,,548,21,Woman,Right,
,,,,,,,,,,,,,,,,,548,21,Woman,Right,1,37,0.4,2,0,180,180,1.9480224999997517,['y'],1.0263073000005534,1.91,871.7367800000002,,,,,548,21,Woman,Right,
,,,,,,,,,,,,,,,,,548,21,Woman,Right,1,41,0.4,2,0,180,180,1.2507909999994808,['y'],0.9699339000007967,1.912,876.4532745000006,,,,,548,21,Woman,Right,
,,,,,,,,,,,,,,,,,548,21,Woman,Right,1,44,0.15,1,0,-,0,1.0423187999995207,['n'],2.273881600000095,1.3359999999999999,883.5031405000009,,,,,548,21,Woman,Right,
,,,,,,,,,,,,,,,,,548,21,Woman,Right,1,26,0.4,1,180,-,0,1.050651900000048,['y'],0.9298118999995495,1.438,888.2038362000003,,,,,548,21,Woman,Right,
,,,,,,,,,,,,,,,,,548,21,Woman,Right,1,3,1,2,180,0,0,1.8084832000004099,['y'],0.6575560999999652,1.858,893.4698691000003,,,,,548,21,Woman,Right,
,,,,,,,,,,,,,,,,,548,21,Woman,Right,1,65,0.15,2,0,180,180,0.8047695999994176,['n'],0.937866600000234,1.612,898.0194426000007,,,,,548,21,Woman,Right,
,,,,,,,,,,,,,,,,,548,21,Woman,Right,1,52,0.15,1,0,-,0,0.8125731999998607,['n'],1.3460359999999127,1.612,902.5537010000007,,,,,548,21,Woman,Right,
,,,,,,,,,,,,,,,,,548,21,Woman,Right,1,59,0.15,2,180,0,0,0.6959309999992911,['n'],0.7380857999996806,1.58,906.5532831,,,,,548,21,Woman,Right,
,,,,,,,,,,,,,,,,,548,21,Woman,Right,1,77,0.15,2,0,180,0,1.0609380999994755,['y'],1.6897549000004801,1.326,912.4206445000009,,,,,548,21,Woman,Right,
,,,,,,,,,,,,,,,,,548,21,Woman,Right,1,43,0.4,2,180,0,0,1.3153929999998581,['y'],0.6411597000005713,1.776,916.8205026000005,,,,,548,21,Woman,Right,
,,,,,,,,,,,,,,,,,548,21,Woman,Right,1,79,0.15,2,180,0,0,0.7871098999994501,['y'],0.9695358999997552,1.808,921.0031710000003,,,,,548,21,Woman,Right,
,,,,,,,,,,,,,,,,,548,21,Woman,Right,1,56,0.15,1,0,-,0,0.420436399999744,['n'],1.0414844999995694,1.626,925.3204612000009,,,,,548,21,Woman,Right,
,,,,,,,,,,,,,,,,,548,21,Woman,Right,1,15,0.4,2,180,0,0,1.0290718000005654,['y'],0.5297165000001769,1.726,929.4523727000005,,,,,548,21,Woman,Right,
,,,,,,,,,,,,,,,,,548,21,Woman,Right,1,19,0.4,2,180,0,0,0.8282539000001634,['y'],0.529537899999923,1.8,933.3527258000004,,,,,548,21,Woman,Right,
,,,,,,,,,,,,,,,,,548,21,Woman,Right,1,39,0.4,2,180,0,0,1.2369963999999527,['y'],0.5295751000003293,1.788,937.5202702000006,,,,,548,21,Woman,Right,
,,,,,,,,,,,,,,,,,548,21,Woman,Right,1,54,0.15,1,180,-,180,1.2617933999999877,['n'],1.1695166999998037,1.366,942.6698579000004,,,,,548,21,Woman,Right,
,,,,,,,,,,,,,,,,,548,21,Woman,Right,1,76,0.15,1,0,-,0,0.9640116999999009,['n'],1.337710199999492,1.3679999999999999,947.8027499000009,,,,,548,21,Woman,Right,
,,,,,,,,,,,,,,,,,548,21,Woman,Right,1,29,0.4,2,0,180,180,1.12507050000022,['y'],0.7454806000005192,1.76,952.0698360000006,,,,,548,21,Woman,Right,
,,,,,,,,,,,,,,,,,548,21,Woman,Right,1,46,0.15,1,180,-,180,0.8440301000000545,['n'],1.0891744000000472,1.326,957.1527856000002,,,,,548,21,Woman,Right,
,,,,,,,,,,,,,,,,,548,21,Woman,Right,1,1,1,2,0,180,0,1.489354899999853,['y'],0.8969177999997555,1.93,962.0871825000004,,,,,548,21,Woman,Right,
,,,,,,,,,,,,,,,,,548,21,Woman,Right,1,38,0.4,1,180,-,180,0.7284741000003123,['n'],1.2331821999996464,1.642,967.5206035000001,,,,,548,21,Woman,Right,
,,,,,,,,,,,,,,,,,548,21,Woman,Right,1,61,0.15,2,0,180,0,1.3010851999997612,['n'],1.0412765000000945,1.396,972.8698793000003,,,,,548,21,Woman,Right,
,,,,,,,,,,,,,,,,,548,21,Woman,Right,1,62,0.15,1,180,-,0,0.9414995999995881,['y'],0.8330802000000403,1.744,977.2539075000004,,,,,548,21,Woman,Right,
,,,,,,,,,,,,,,,,,548,21,Woman,Right,1,64,0.15,1,0,-,180,0.6717658999996274,['y'],0.4655089999996562,1.316,981.0204226000005,,,,,548,21,Woman,Right,
,,,,,,,,,,,,,,,,,548,21,Woman,Right,1,45,0.15,2,0,180,0,0.6569611999993867,['n'],1.801254300000437,1.712,986.1702664000004,,,,,548,21,Woman,Right,
,,,,,,,,,,,,,,,,,548,21,Woman,Right,1,73,0.15,2,0,180,0,1.3418487999997524,['n'],0.8571628999998211,1.752,990.9535917000003,,,,,548,21,Woman,Right,
,,,,,,,,,,,,,,,,,548,21,Woman,Right,1,16,0.4,1,0,-,0,1.0445260000005874,['n'],1.4814299999998184,1.3820000000000001,998.1705350000002,,,,,548,21,Woman,Right,
,,,,,,,,,,,,,,,,,548,21,Woman,Right,1,67,0.15,2,180,0,180,1.5500080000001617,['n'],1.3450255999996443,1.572,1004.6540023000007,,,,,548,21,Woman,Right,
,,,,,,,,,,,,,,,,,548,21,Woman,Right,1,40,0.4,1,0,-,0,0.5878870000005918,['n'],0.9685600000002523,1.68,1009.6702573000002,,,,,548,21,Woman,Right,
,,,,,,,,,,,,,,,,,548,21,Woman,Right,1,2,1,1,180,-,180,0.5746972000006281,['n'],0.9445025000004534,1.696,1014.5706852000003,,,,,548,21,Woman,Right,
,,,,,,,,,,,,,,,,,548,21,Woman,Right,1,6,1,1,180,-,180,2.0493031999994855,['n'],0.9484413000000131,1.698,1019.9861931000005,,,,,548,21,Woman,Right,
,,,,,,,,,,,,,,,,,548,21,Woman,Right,1,72,0.15,1,0,-,0,1.036622399999942,['n'],0.9531154999995124,1.362,1025.0702428000004,,,,,548,21,Woman,Right,
,,,,,,,,,,,,,,,,,548,21,Woman,Right,1,35,0.4,2,180,0,0,1.3615540999999212,['y'],1.5849686000001384,1.924,1031.8548210000008,,,,,548,21,Woman,Right,
,,,,,,,,,,,,,,,,,548,21,Woman,Right,1,50,0.15,1,180,-,180,1.2665026999993643,['n'],8.453515499999412,1.73,1044.7033382000009,,,,,548,21,Woman,Right,
,,,,,,,,,,,,,,,,,548,21,Woman,Right,1,69,0.15,2,0,180,0,5.593144999999822,['n'],0.9123363999997309,1.308,1054.7540922000007,,,,,548,21,Woman,Right,
,,,,,,,,,,,,,,,,,548,21,Woman,Right,1,74,0.15,1,180,-,180,3.0943323999999848,['n'],1.0245843000002424,1.446,1062.2206709000002,,,,,548,21,Woman,Right,
,,,,,,,,,,,,,,,,,548,21,Woman,Right,1,28,0.4,1,0,-,0,0.7267014999997627,['n'],0.696868899999572,1.688,1066.4202425000003,,,,,548,21,Woman,Right,
,,,,,,,,,,,,,,,,,548,21,Woman,Right,1,25,0.4,2,0,180,0,1.1637534000001324,['y'],1.2724005000000034,1.762,1071.7536229000007,,,,,548,21,Woman,Right,
,,,,,,,,,,,,,,,,,548,21,Woman,Right,1,58,0.15,1,180,-,0,0.9535142000004271,['y'],0.6807641999994303,1.718,1076.1541393000007,,,,,548,21,Woman,Right,
,,,,,,,,,,,,,,,,,548,21,Woman,Right,1,71,0.15,2,180,0,0,1.216502200000832,['y'],0.5492451999998593,1.718,1080.5862315000004,,,,,548,21,Woman,Right,
,,,,,,,,,,,,,,,,,548,21,Woman,Right,1,17,0.4,2,0,180,0,2.2168948999997156,['y'],0.8566957000002731,1.904,1086.8205334000004,,,,,548,21,Woman,Right,
,,,,,,,,,,,,,,,,,548,21,Woman,Right,1,32,0.4,1,0,-,180,1.0073038999998971,['n'],0.8484119999993709,1.6360000000000001,1091.3037884000005,,,,,548,21,Woman,Right,
,,,,,,,,,,,,,,,,,548,21,Woman,Right,1,8,0.4,1,0,-,180,0.8025236999992558,['n'],1.3364560999998503,1.318,1096.1539472000004,,,,,548,21,Woman,Right,
,,,,,,,,,,,,,,,,,548,21,Woman,Right,1,36,0.4,1,0,-,0,2.2550294000002395,['y'],1.0799048999997467,1.752,1102.4199820000003,,,,,548,21,Woman,Right,
,,,,,,,,,,,,,,,,,548,21,Woman,Right,1,55,0.15,2,180,0,0,1.318017300000065,['n'],0.736422599999969,1.366,1108.0199752000008,,,,,548,21,Woman,Right,
,,,,,,,,,,,,,,,,,548,21,Woman,Right,1,31,0.4,2,180,0,0,0.9262005999999019,['y'],0.9442797000001519,1.67,1112.7709134000006,,,,,548,21,Woman,Right,
,,,,,,,,,,,,,,,,,548,21,Woman,Right,1,7,1,2,180,0,0,1.6740373000002364,['y'],1.9282163999996556,1.81,1119.2540687,,,,,548,21,Woman,Right,
,,,,,,,,,,,,,,,,,548,21,Woman,Right,1,13,0.4,2,0,180,0,1.489638300000479,['y'],0.6400613000005251,1.81,1124.0879802000009,,,,,548,21,Woman,Right,
,,,,,,,,,,,,,,,,,548,21,Woman,Right,1,60,0.15,1,0,-,180,1.3787898000000496,['n'],3.632084799999575,1.3479999999999999,1131.7541315000008,,,,,548,21,Woman,Right,
,,,,,,,,,,,,,,,,,548,21,Woman,Right,1,30,0.4,1,180,-,180,1.1028198000003613,['y'],0.8079565999996703,1.73,1136.3874477000008,,,,,548,21,Woman,Right,
,,,,,,,,,,,,,,,,,548,21,Woman,Right,1,47,0.15,2,180,0,0,0.8670554000000266,['n'],0.6766083999991679,1.722,1140.3699081000004,,,,,548,21,Woman,Right,
,,,,,,,,,,,,,,,,,548,21,Woman,Right,1,14,0.4,1,180,-,180,1.046954899999946,['n'],1.319794400000319,1.3980000000000001,1145.2864798,,,,,548,21,Woman,Right,
,,,,,,,,,,,,,,,,,548,21,Woman,Right,2,23,0.4,2,180,0,0,3.430862199999865,['y'],0.5039928999995027,1.932,1179.5372393000007,65.0,75.0,62.5,,548,21,Woman,Right,
,,,,,,,,,,,,,,,,,548,21,Woman,Right,2,53,0.15,2,0,180,180,1.7060816999992312,['n'],1.19940730000053,1.71,1186.1709713,,,,,548,21,Woman,Right,
,,,,,,,,,,,,,,,,,548,21,Woman,Right,2,57,0.15,2,0,180,0,0.6768393000002106,['n'],0.6239132000000609,1.706,1190.2533110000004,,,,,548,21,Woman,Right,
,,,,,,,,,,,,,,,,,548,21,Woman,Right,2,67,0.15,2,180,0,0,0.8711888000007093,['n'],0.5195171000004848,1.572,1194.5368856000005,,,,,548,21,Woman,Right,
,,,,,,,,,,,,,,,,,548,21,Woman,Right,2,11,0.4,2,180,0,0,0.8396002999998018,['y'],0.6717195999999603,1.572,1198.5862985000003,,,,,548,21,Woman,Right,
,,,,,,,,,,,,,,,,,548,21,Woman,Right,2,43,0.4,2,180,0,0,0.9481986000000688,['y'],0.5998592000005374,1.828,1202.6203659000003,,,,,548,21,Woman,Right,
,,,,,,,,,,,,,,,,,548,21,Woman,Right,2,27,0.4,2,180,0,0,0.9831985999999233,['y'],0.6954611000001023,1.834,1206.7540651000008,,,,,548,21,Woman,Right,
,,,,,,,,,,,,,,,,,548,21,Woman,Right,2,49,0.15,2,0,180,0,1.4718681000003926,['y'],0.639466700000412,1.75,1211.4040938000007,,,,,548,21,Woman,Right,
,,,,,,,,,,,,,,,,,548,21,Woman,Right,2,29,0.4,2,0,180,180,0.6883532000001651,['y'],0.5594866000001275,1.788,1215.7211765000002,,,,,548,21,Woman,Right,
,,,,,,,,,,,,,,,,,548,21,Woman,Right,2,26,0.4,1,180,-,180,1.9276742000001832,['n'],1.3672427000001335,1.266,1221.9539873000003,,,,,548,21,Woman,Right,
,,,,,,,,,,,,,,,,,548,21,Woman,Right,2,28,0.4,1,0,-,0,0.5367606999998316,['n'],1.3680476999998064,1.65,1226.4041562000002,,,,,548,21,Woman,Right,
,,,,,,,,,,,,,,,,,548,21,Woman,Right,2,20,0.4,1,0,-,0,0.9038215999999011,['n'],1.1198028999997405,1.6640000000000001,1231.2042182000005,,,,,548,21,Woman,Right,
,,,,,,,,,,,,,,,,,548,21,Woman,Right,2,44,0.15,1,0,-,0,0.8683953999998266,['y'],0.6152438999997685,1.696,1235.5709555000003,,,,,548,21,Woman,Right,
,,,,,,,,,,,,,,,,,548,21,Woman,Right,2,62,0.15,1,180,-,180,3.8773360000004686,['n'],1.5593244000001505,1.6320000000000001,1244.3704160000007,,,,,548,21,Woman,Right,
,,,,,,,,,,,,,,,,,548,21,Woman,Right,2,69,0.15,2,0,180,0,0.6978755000000092,['n'],1.2073997999996209,1.686,1248.8868622,,,,,548,21,Woman,Right,
,,,,,,,,,,,,,,,,,548,21,Woman,Right,2,72,0.15,1,0,-,180,0.46467959999972663,['y'],0.44712449999951787,1.6400000000000001,1252.4206342000007,,,,,548,21,Woman,Right,
,,,,,,,,,,,,,,,,,548,21,Woman,Right,2,70,0.15,1,180,-,0,1.7657845000003363,['n'],0.5749986999999237,1.3900000000000001,1257.7864356,,,,,548,21,Woman,Right,
,,,,,,,,,,,,,,,,,548,21,Woman,Right,2,47,0.15,2,180,0,0,0.5614613999996436,['n'],0.9431280999997398,1.638,1262.0046236000007,,,,,548,21,Woman,Right,
,,,,,,,,,,,,,,,,,548,21,Woman,Right,2,10,0.4,1,180,-,180,0.5204088000000411,['y'],1.2229894000001877,1.6280000000000001,1266.2211436000007,,,,,548,21,Woman,Right,
,,,,,,,,,,,,,,,,,548,21,Woman,Right,2,7,1,2,180,0,0,0.9771709999995437,['y'],1.0471847999997408,1.934,1271.3206814000005,,,,,548,21,Woman,Right,
,,,,,,,,,,,,,,,,,548,21,Woman,Right,2,76,0.15,1,0,-,180,0.7069039999996676,['y'],2.6146749999998065,1.7,1277.1872177000005,,,,,548,21,Woman,Right,
,,,,,,,,,,,,,,,,,548,21,Woman,Right,2,36,0.4,1,0,-,0,0.6044455000001108,['n'],0.7191536000000269,1.694,1281.0044494000003,,,,,548,21,Woman,Right,
,,,,,,,,,,,,,,,,,548,21,Woman,Right,2,2,1,1,180,-,180,0.6389411000000109,['n'],0.9989298000000417,1.638,1285.0539994,,,,,548,21,Woman,Right,
,,,,,,,,,,,,,,,,,548,21,Woman,Right,2,32,0.4,1,0,-,180,0.9413798000005045,['n'],0.687209100000473,1.678,1289.0705151000002,,,,,548,21,Woman,Right,
,,,,,,,,,,,,,,,,,548,21,Woman,Right,2,3,1,2,180,0,0,0.7973574999996345,['y'],1.0311202000002595,1.924,1293.4045604000003,,,,,548,21,Woman,Right,
,,,,,,,,,,,,,,,,,548,21,Woman,Right,2,31,0.4,2,180,0,0,0.6790442000001349,['y'],0.48684360000061133,1.8599999999999999,1296.9875012000002,,,,,548,21,Woman,Right,
,,,,,,,,,,,,,,,,,548,21,Woman,Right,2,58,0.15,1,180,-,180,1.6548183999993853,['n'],0.6067996000001585,1.3519999999999999,1301.8373365000007,,,,,548,21,Woman,Right,
,,,,,,,,,,,,,,,,,548,21,Woman,Right,2,39,0.4,2,180,0,0,0.5911753999998837,['y'],1.8468692999995255,1.792,1306.7041796000003,,,,,548,21,Woman,Right,
,,,,,,,,,,,,,,,,,548,21,Woman,Right,2,55,0.15,2,180,0,0,0.8921540000001187,['y'],1.4471625000005588,1.74,1311.4542226000003,,,,,548,21,Woman,Right,
,,,,,,,,,,,,,,,,,548,21,Woman,Right,2,18,0.4,1,180,-,0,0.5172654999996666,['n'],0.8231446999998298,1.686,1315.1212976000006,,,,,548,21,Woman,Right,
,,,,,,,,,,,,,,,,,548,21,Woman,Right,2,24,0.4,1,0,-,0,2.149541799999497,['n'],1.0904089000005115,1.342,1320.9545254000004,,,,,548,21,Woman,Right,
,,,,,,,,,,,,,,,,,548,21,Woman,Right,2,13,0.4,2,0,180,180,0.5694788000000699,['y'],0.7509617000005164,1.91,1324.9372932000006,,,,,548,21,Woman,Right,
,,,,,,,,,,,,,,,,,548,21,Woman,Right,2,59,0.15,2,180,0,0,0.7887398000002577,['n'],3.2952064999999493,1.626,1331.6044542000009,,,,,548,21,Woman,Right,
,,,,,,,,,,,,,,,,,548,21,Woman,Right,2,0,1,1,0,-,0,0.6825239999998303,['y'],2.2545504000008805,1.718,1337.1709136000009,,,,,548,21,Woman,Right,
,,,,,,,,,,,,,,,,,548,21,Woman,Right,2,74,0.15,1,180,-,0,1.456432400000267,['y'],1.0785732999993343,1.6360000000000001,1342.2871675000006,,,,,548,21,Woman,Right,
,,,,,,,,,,,,,,,,,548,21,Woman,Right,2,6,1,1,180,-,180,0.7648619000001418,['n'],0.6387408000000505,1.416,1346.8034872000007,,,,,548,21,Woman,Right,
,,,,,,,,,,,,,,,,,548,21,Woman,Right,2,79,0.15,2,180,0,0,0.6622574000002714,['n'],0.5988085000008141,1.77,1350.5213345000002,,,,,548,21,Woman,Right,
,,,,,,,,,,,,,,,,,548,21,Woman,Right,2,12,0.4,1,0,-,180,5.71252050000021,['n'],1.3417958999998518,1.4100000000000001,1360.4714040000008,,,,,548,21,Woman,Right,
,,,,,,,,,,,,,,,,,548,21,Woman,Right,2,25,0.4,2,0,180,180,0.8126157999995485,['y'],0.5344302000003154,1.764,1364.5370729000006,,,,,548,21,Woman,Right,
,,,,,,,,,,,,,,,,,548,21,Woman,Right,2,17,0.4,2,0,180,180,0.7372215000004871,['y'],0.590302999999949,1.706,1368.3210748000001,,,,,548,21,Woman,Right,
,,,,,,,,,,,,,,,,,548,21,Woman,Right,2,34,0.4,1,180,-,0,0.4542527000003247,['n'],0.8301728999995248,1.658,1372.3709926000001,,,,,548,21,Woman,Right,
,,,,,,,,,,,,,,,,,548,21,Woman,Right,2,22,0.4,1,180,-,180,0.7936176000002888,['n'],1.1663048000000344,1.616,1376.7541273000006,,,,,548,21,Woman,Right,
,,,,,,,,,,,,,,,,,548,21,Woman,Right,2,60,0.15,1,0,-,0,0.7778328999993391,['n'],1.9265604000001986,1.634,1381.8703889000008,,,,,548,21,Woman,Right,
,,,,,,,,,,,,,,,,,548,21,Woman,Right,2,68,0.15,1,0,-,0,0.48315459999957966,['n'],3.278684699999758,1.634,1388.5717397000008,,,,,548,21,Woman,Right,
,,,,,,,,,,,,,,,,,548,21,Woman,Right,2,30,0.4,1,180,-,0,2.729694399999971,['n'],3.398892100000012,1.634,1397.2874283,,,,,548,21,Woman,Right,
,,,,,,,,,,,,,,,,,548,21,Woman,Right,2,8,0.4,1,0,-,0,0.9374956000001475,['n'],1.2941283999998632,1.672,1402.1370334000003,,,,,548,21,Woman,Right,
,,,,,,,,,,,,,,,,,548,21,Woman,Right,2,14,0.4,1,180,-,180,2.135320800000045,['y'],2.0380485000005137,1.706,1410.8210353000013,,,,,548,21,Woman,Right,
,,,,,,,,,,,,,,,,,548,21,Woman,Right,2,75,0.15,2,180,0,0,0.9936959000006027,['y'],0.7019202999999834,1.708,1414.9721394000007,,,,,548,21,Woman,Right,
,,,,,,,,,,,,,,,,,548,21,Woman,Right,2,61,0.15,2,0,180,180,0.7652056000006269,['y'],0.5181708000000071,1.72,1419.0212809000004,,,,,548,21,Woman,Right,
,,,,,,,,,,,,,,,,,548,21,Woman,Right,2,66,0.15,1,180,-,180,1.200282400001015,['n'],1.0537796999997227,1.712,1424.204636800001,,,,,548,21,Woman,Right,
,,,,,,,,,,,,,,,,,548,21,Woman,Right,2,21,0.4,2,0,180,180,1.2156873999992968,['y'],2.5819977999999537,1.8559999999999999,1430.8881805,,,,,548,21,Woman,Right,
,,,,,,,,,,,,,,,,,548,21,Woman,Right,2,54,0.15,1,180,-,0,0.5079533000007359,['n'],1.2621632000009413,1.17,1436.0714992000012,,,,,548,21,Woman,Right,
,,,,,,,,,,,,,,,,,548,21,Woman,Right,2,19,0.4,2,180,0,0,1.515686500000811,['y'],0.8620025000000169,1.756,1441.1877170999996,,,,,548,21,Woman,Right,
,,,,,,,,,,,,,,,,,548,21,Woman,Right,2,51,0.15,2,180,0,0,5.7493845999997575,['n'],1.062112599998727,1.756,1450.871224800001,,,,,548,21,Woman,Right,
,,,,,,,,,,,,,,,,,548,21,Woman,Right,2,50,0.15,1,180,-,0,2.4335907000004227,['n'],0.6378829000004771,1.6400000000000001,1457.2715426000013,,,,,548,21,Woman,Right,
,,,,,,,,,,,,,,,,,548,21,Woman,Right,2,41,0.4,2,0,180,180,0.8111141999997926,['y'],1.0858119999993505,1.682,1462.2214557999996,,,,,548,21,Woman,Right,
,,,,,,,,,,,,,,,,,548,21,Woman,Right,2,64,0.15,1,0,-,0,0.9684401999984402,['n'],0.6612597999992431,1.362,1466.3887123000004,,,,,548,21,Woman,Right,
,,,,,,,,,,,,,,,,,548,21,Woman,Right,2,5,1,2,0,180,180,0.6094330000014452,['y'],0.6218334000004688,1.904,1470.554885900001,,,,,548,21,Woman,Right,
,,,,,,,,,,,,,,,,,548,21,Woman,Right,2,45,0.15,2,0,180,0,0.5690010999987862,['n'],0.9258614999998827,1.412,1475.0875475000012,,,,,548,21,Woman,Right,
,,,,,,,,,,,,,,,,,548,21,Woman,Right,2,77,0.15,2,0,180,0,1.0299623999999312,['n'],3.917585199998939,1.248,1483.0543221999997,,,,,548,21,Woman,Right,
,,,,,,,,,,,,,,,,,548,21,Woman,Right,2,37,0.4,2,0,180,180,1.9293022000001656,['y'],0.5494277000016154,1.712,1488.9209846000012,,,,,548,21,Woman,Right,
,,,,,,,,,,,,,,,,,548,21,Woman,Right,2,63,0.15,2,180,0,0,0.7744538999995711,['n'],2.021181100000831,1.5819999999999999,1494.5880783000011,,,,,548,21,Woman,Right,
,,,,,,,,,,,,,,,,,548,21,Woman,Right,2,71,0.15,2,180,0,180,2.8585563999986334,['n'],0.6772310999986075,1.6099999999999999,1500.9715624,,,,,548,21,Woman,Right,
,,,,,,,,,,,,,,,,,548,21,Woman,Right,2,48,0.15,1,0,-,180,2.4403637000013987,['n'],1.0054949999994278,1.642,1507.2559473000001,,,,,548,21,Woman,Right,
,,,,,,,,,,,,,,,,,548,21,Woman,Right,2,4,1,1,0,-,0,0.5702045000016369,['n'],0.6291325000001962,1.6360000000000001,1511.021671300001,,,,,548,21,Woman,Right,
,,,,,,,,,,,,,,,,,548,21,Woman,Right,2,40,0.4,1,0,-,0,1.0024623999997857,['n'],0.9250222999999096,1.74,1515.5716920000013,,,,,548,21,Woman,Right,
,,,,,,,,,,,,,,,,,548,21,Woman,Right,2,46,0.15,1,180,-,180,0.3062953999997262,['n'],0.40522020000025805,1.732,1518.8215154000009,,,,,548,21,Woman,Right,
,,,,,,,,,,,,,,,,,548,21,Woman,Right,2,73,0.15,2,0,180,0,0.4724310000001424,['y'],0.7415892000008171,1.732,1522.3369409000006,,,,,548,21,Woman,Right,
,,,,,,,,,,,,,,,,,548,21,Woman,Right,2,35,0.4,2,180,0,0,0.8599037999993016,['y'],1.085347800000818,1.732,1526.9717495000004,,,,,548,21,Woman,Right,
,,,,,,,,,,,,,,,,,548,21,Woman,Right,2,16,0.4,1,0,-,180,3.2630427999993117,['n'],2.300964500000191,1.38,1535.9210252000012,,,,,548,21,Woman,Right,
,,,,,,,,,,,,,,,,,548,21,Woman,Right,2,56,0.15,1,0,-,0,1.765980900001523,['n'],1.1094721000008576,1.3940000000000001,1541.5550442000003,,,,,548,21,Woman,Right,
,,,,,,,,,,,,,,,,,548,21,Woman,Right,2,65,0.15,2,0,180,180,0.5881508000002214,['n'],1.0051012999992963,1.224,1545.8380789000003,,,,,548,21,Woman,Right,
,,,,,,,,,,,,,,,,,548,21,Woman,Right,2,52,0.15,1,0,-,0,1.3965264999987994,['n'],0.9648492999986047,1.544,1551.004479000001,,,,,548,21,Woman,Right,
,,,,,,,,,,,,,,,,,548,21,Woman,Right,2,9,0.4,2,0,180,0,1.1595173000005161,['y'],0.6691227999999683,1.908,1555.4706442999995,,,,,548,21,Woman,Right,
,,,,,,,,,,,,,,,,,548,21,Woman,Right,2,33,0.4,2,0,180,0,1.254812999999558,['y'],0.6288732000011805,1.8559999999999999,1559.8047401000003,,,,,548,21,Woman,Right,
,,,,,,,,,,,,,,,,,548,21,Woman,Right,2,42,0.4,1,180,-,180,0.7123280000014347,['n'],1.2692252000015287,1.674,1564.6052144000005,,,,,548,21,Woman,Right,
,,,,,,,,,,,,,,,,,548,21,Woman,Right,2,1,1,2,0,180,180,1.2555370000009134,['y'],0.9804925999997067,1.672,1569.288433400001,,,,,548,21,Woman,Right,
,,,,,,,,,,,,,,,,,548,21,Woman,Right,2,78,0.15,1,180,-,0,0.8029543000011472,['y'],0.5170710000002146,1.74,1573.4717646999998,,,,,548,21,Woman,Right,
,,,,,,,,,,,,,,,,,548,21,Woman,Right,2,38,0.4,1,180,-,180,0.6446672000001854,['n'],0.7245815000005678,1.646,1577.4707931000012,,,,,548,21,Woman,Right,
,,,,,,,,,,,,,,,,,548,21,Woman,Right,2,15,0.4,2,180,0,0,0.55181470000025,['y'],0.5329982000002929,1.754,1581.2212636000004,,,,,548,21,Woman,Right,
,,,,,,,,,,,,,,,,,548,21,Woman,Right,3,52,0.15,1,0,-,0,2.066377900000589,['n'],1.452931499999977,1.728,1601.920842900001,71.25,80.0,67.5,,548,21,Woman,Right,
,,,,,,,,,,,,,,,,,548,21,Woman,Right,3,50,0.15,1,180,-,180,0.9781046000007336,['y'],0.9811361000010947,1.718,1606.4715011999997,,,,,548,21,Woman,Right,
,,,,,,,,,,,,,,,,,548,21,Woman,Right,3,55,0.15,2,180,0,180,1.3174062999987655,['n'],0.7011089999996329,1.718,1610.7711762,,,,,548,21,Woman,Right,
,,,,,,,,,,,,,,,,,548,21,Woman,Right,3,36,0.4,1,0,-,180,1.487016199998834,['y'],0.5489622000004601,1.718,1615.2379312000012,,,,,548,21,Woman,Right,
,,,,,,,,,,,,,,,,,548,21,Woman,Right,3,11,0.4,2,180,0,0,1.0075512000003073,['y'],0.5490389999995386,1.82,1619.2379121000013,,,,,548,21,Woman,Right,
,,,,,,,,,,,,,,,,,548,21,Woman,Right,3,72,0.15,1,0,-,180,1.4139235000002373,['n'],0.8758396000011999,1.5739999999999998,1624.2048732000003,,,,,548,21,Woman,Right,
,,,,,,,,,,,,,,,,,548,21,Woman,Right,3,75,0.15,2,180,0,180,0.8734796999997343,['n'],0.6526169999997364,1.278,1628.5043784000009,,,,,548,21,Woman,Right,
,,,,,,,,,,,,,,,,,548,21,Woman,Right,3,53,0.15,2,0,180,180,1.2820348999994167,['n'],2.62055970000074,1.426,1635.9717262000013,,,,,548,21,Woman,Right,
,,,,,,,,,,,,,,,,,548,21,Woman,Right,3,24,0.4,1,0,-,0,0.585119900000791,['n'],1.4045421999999235,1.576,1641.1212539999997,,,,,548,21,Woman,Right,
,,,,,,,,,,,,,,,,,548,21,Woman,Right,3,78,0.15,1,180,-,180,1.2501418000010744,['n'],1.0444416000009369,1.43,1646.5540832999995,,,,,548,21,Woman,Right,
,,,,,,,,,,,,,,,,,548,21,Woman,Right,3,31,0.4,2,180,0,0,0.6967710000008083,['y'],0.5004599000003509,1.746,1650.4385574000007,,,,,548,21,Woman,Right,
,,,,,,,,,,,,,,,,,548,21,Woman,Right,3,43,0.4,2,180,0,0,2.8873247999999876,['n'],2.980362199999945,1.72,1659.5040511000007,,,,,548,21,Woman,Right,
,,,,,,,,,,,,,,,,,548,21,Woman,Right,3,58,0.15,1,180,-,0,0.580449499999304,['n'],1.0360377000015433,1.712,1663.905127,,,,,548,21,Woman,Right,
,,,,,,,,,,,,,,,,,548,21,Woman,Right,3,57,0.15,2,0,180,0,1.4904263999997056,['n'],0.852739299998575,1.712,1668.9881802,,,,,548,21,Woman,Right,
,,,,,,,,,,,,,,,,,548,21,Woman,Right,3,1,1,2,0,180,180,1.263848100001269,['y'],0.6686180999986391,1.966,1673.9551198000008,,,,,548,21,Woman,Right,
,,,,,,,,,,,,,,,,,548,21,Woman,Right,3,28,0.4,1,0,-,0,1.571757300000172,['n'],1.7402514000004885,1.666,1679.8548114000005,,,,,548,21,Woman,Right,
,,,,,,,,,,,,,,,,,548,21,Woman,Right,3,79,0.15,2,180,0,0,1.0995726000001014,['y'],1.5521985000013956,1.792,1685.0718475000012,,,,,548,21,Woman,Right,
,,,,,,,,,,,,,,,,,548,21,Woman,Right,3,39,0.4,2,180,0,0,0.6077459000007366,['y'],0.8841682999991463,1.8599999999999999,1689.3721050000004,,,,,548,21,Woman,Right,
,,,,,,,,,,,,,,,,,548,21,Woman,Right,3,51,0.15,2,180,0,0,1.1060173999994731,['n'],2.0844432000012603,1.306,1696.6386823000012,,,,,548,21,Woman,Right,
,,,,,,,,,,,,,,,,,548,21,Woman,Right,3,74,0.15,1,180,-,0,3.7410686000002897,['n'],0.7638171999988117,1.3719999999999999,1704.305103300001,,,,,548,21,Woman,Right,
,,,,,,,,,,,,,,,,,548,21,Woman,Right,3,69,0.15,2,0,180,180,1.468933800000741,['n'],1.203485099998943,1.708,1709.4214196000012,,,,,548,21,Woman,Right,
,,,,,,,,,,,,,,,,,548,21,Woman,Right,3,41,0.4,2,0,180,180,1.1142917000015586,['y'],0.5236375000004045,1.706,1713.3721232999997,,,,,548,21,Woman,Right,
,,,,,,,,,,,,,,,,,548,21,Woman,Right,3,25,0.4,2,0,180,0,0.7300945999995747,['n'],1.0522768999999244,1.788,1717.6382735999996,,,,,548,21,Woman,Right,
,,,,,,,,,,,,,,,,,548,21,Woman,Right,3,23,0.4,2,180,0,0,0.8270914000004268,['y'],1.107974300000933,1.8439999999999999,1722.1381156999996,,,,,548,21,Woman,Right,
,,,,,,,,,,,,,,,,,548,21,Woman,Right,3,47,0.15,2,180,0,180,0.5997009000002436,['n'],0.9641687999992428,1.84,1726.138382000001,,,,,548,21,Woman,Right,
,,,,,,,,,,,,,,,,,548,21,Woman,Right,3,32,0.4,1,0,-,180,0.8841515999993135,['n'],3.347443300001032,1.626,1733.2383387999998,,,,,548,21,Woman,Right,
,,,,,,,,,,,,,,,,,548,21,Woman,Right,3,61,0.15,2,0,180,180,0.637559599999804,['n'],1.227851699999519,1.4020000000000001,1737.921566500001,,,,,548,21,Woman,Right,
,,,,,,,,,,,,,,,,,548,21,Woman,Right,3,56,0.15,1,0,-,0,1.6661114000016823,['y'],0.6176751000002696,1.3,1744.1710702,,,,,548,21,Woman,Right,
,,,,,,,,,,,,,,,,,548,21,Woman,Right,3,37,0.4,2,0,180,180,0.6443708999995579,['y'],0.6280442999996012,1.762,1748.0553170000003,,,,,548,21,Woman,Right,
,,,,,,,,,,,,,,,,,548,21,Woman,Right,3,6,1,1,180,-,180,0.8241318000000319,['n'],0.8518196999993961,1.672,1752.1375491,,,,,548,21,Woman,Right,
,,,,,,,,,,,,,,,,,548,21,Woman,Right,3,30,0.4,1,180,-,0,0.5330181999997876,['y'],0.4700974999996106,1.776,1756.5721756000003,,,,,548,21,Woman,Right,
,,,,,,,,,,,,,,,,,548,21,Woman,Right,3,10,0.4,1,180,-,180,0.43530029999965336,['y'],0.5878412000001845,1.778,1760.2391442000007,,,,,548,21,Woman,Right,
,,,,,,,,,,,,,,,,,548,21,Woman,Right,3,35,0.4,2,180,0,0,0.7120004999997036,['y'],0.5236039999999775,1.728,1764.8718112999995,,,,,548,21,Woman,Right,
,,,,,,,,,,,,,,,,,548,21,Woman,Right,3,77,0.15,2,0,180,180,2.9990490000000136,['n'],1.811299199998757,1.646,1775.1053854000002,,,,,548,21,Woman,Right,
,,,,,,,,,,,,,,,,,548,21,Woman,Right,3,64,0.15,1,0,-,180,0.41072949999943376,['y'],2.4674934999984544,1.646,1780.7883352000008,,,,,548,21,Woman,Right,
,,,,,,,,,,,,,,,,,548,21,Woman,Right,3,19,0.4,2,180,0,180,1.2940147999997862,['n'],3.379460600001039,1.676,1788.404451800001,,,,,548,21,Woman,Right,
,,,,,,,,,,,,,,,,,548,21,Woman,Right,3,33,0.4,2,0,180,180,0.6642076000007364,['y'],0.83550379999906,1.714,1792.6879925000012,,,,,548,21,Woman,Right,
,,,,,,,,,,,,,,,,,548,21,Woman,Right,3,15,0.4,2,180,0,0,0.3331937000002654,['n'],0.9475956999995105,1.752,1796.5047452,,,,,548,21,Woman,Right,
,,,,,,,,,,,,,,,,,548,21,Woman,Right,3,14,0.4,1,180,-,180,0.9252206000001024,['n'],0.6117487999999867,1.752,1800.404892300001,,,,,548,21,Woman,Right,
,,,,,,,,,,,,,,,,,548,21,Woman,Right,3,59,0.15,2,180,0,0,1.3332477000003564,['n'],2.030304799998703,1.248,1806.6385182000013,,,,,548,21,Woman,Right,
,,,,,,,,,,,,,,,,,548,21,Woman,Right,3,2,1,1,180,-,180,0.9094930000010208,['n'],4.179383400000006,1.6179999999999999,1814.6721804000008,,,,,548,21,Woman,Right,
,,,,,,,,,,,,,,,,,548,21,Woman,Right,3,0,1,1,0,-,0,0.30424200000015844,['n'],1.9468598000003112,1.626,1829.4045222000004,,,,,548,21,Woman,Right,
,,,,,,,,,,,,,,,,,548,21,Woman,Right,3,5,1,2,0,180,180,2.0440655999991577,['y'],1.7548373999998148,1.74,1839.7057227000005,,,,,548,21,Woman,Right,
,,,,,,,,,,,,,,,,,548,21,Woman,Right,3,20,0.4,1,0,-,180,1.3250928999987082,['n'],1.571206799999345,1.8599999999999999,1846.7724627999996,,,,,548,21,Woman,Right,
,,,,,,,,,,,,,,,,,548,21,Woman,Right,3,7,1,2,180,0,0,0.9474423999999999,['y'],1.0433818000001338,2.0,1852.7709701000003,,,,,548,21,Woman,Right,
,,,,,,,,,,,,,,,,,548,21,Woman,Right,3,60,0.15,1,0,-,180,1.1741407999998046,['n'],1.4752283000016178,1.73,1859.9050891999996,,,,,548,21,Woman,Right,
,,,,,,,,,,,,,,,,,548,21,Woman,Right,3,54,0.15,1,180,-,0,0.5992513000001054,['n'],2.2361727000006795,1.928,1866.3546430000006,,,,,548,21,Woman,Right,
,,,,,,,,,,,,,,,,,548,21,Woman,Right,3,29,0.4,2,0,180,180,0.7756632000000536,['y'],1.3630974999996397,1.928,1872.1050971000004,,,,,548,21,Woman,Right,
,,,,,,,,,,,,,,,,,548,21,Woman,Right,3,34,0.4,1,180,-,0,1.315724100000807,['n'],1.3203610999989905,1.928,1878.9724361999997,,,,,548,21,Woman,Right,
,,,,,,,,,,,,,,,,,548,21,Woman,Right,3,49,0.15,2,0,180,0,0.48857519999910437,['n'],0.7626990000007936,1.938,1883.0051566000002,,,,,548,21,Woman,Right,
,,,,,,,,,,,,,,,,,548,21,Woman,Right,3,67,0.15,2,180,0,180,0.7963658999997278,['y'],1.7150543999996444,1.288,1889.7049198000004,,,,,548,21,Woman,Right,
,,,,,,,,,,,,,,,,,548,21,Woman,Right,3,62,0.15,1,180,-,180,1.1531484999995882,['n'],1.530999200000224,1.572,1895.204890500001,,,,,548,21,Woman,Right,
,,,,,,,,,,,,,,,,,548,21,Woman,Right,3,44,0.15,1,0,-,180,0.3708861999984947,['n'],1.6504091000006156,1.546,1900.2384278999998,,,,,548,21,Woman,Right,
,,,,,,,,,,,,,,,,,548,21,Woman,Right,3,73,0.15,2,0,180,180,1.1221382999992784,['n'],0.67450430000099,1.616,1905.1559046000002,,,,,548,21,Woman,Right,
,,,,,,,,,,,,,,,,,548,21,Woman,Right,3,65,0.15,2,0,180,180,0.9537688000000344,['n'],0.682865299999321,1.4100000000000001,1909.6558163000009,,,,,548,21,Woman,Right,
,,,,,,,,,,,,,,,,,548,21,Woman,Right,3,68,0.15,1,0,-,0,0.577984400000787,['n'],1.5945209999990766,1.334,1915.3220198,,,,,548,21,Woman,Right,
,,,,,,,,,,,,,,,,,548,21,Woman,Right,3,18,0.4,1,180,-,180,0.9363659000009648,['y'],0.7543235000011919,1.294,1920.4391195000007,,,,,548,21,Woman,Right,
,,,,,,,,,,,,,,,,,548,21,Woman,Right,3,27,0.4,2,180,0,0,0.33960730000035255,['y'],1.4824846999999863,1.928,1924.6556414999995,,,,,548,21,Woman,Right,
,,,,,,,,,,,,,,,,,548,21,Woman,Right,3,12,0.4,1,0,-,180,0.8333387999991828,['n'],1.6502067999990686,1.672,1929.8388200000009,,,,,548,21,Woman,Right,
,,,,,,,,,,,,,,,,,548,21,Woman,Right,3,46,0.15,1,180,-,0,0.7776334000009228,['n'],0.8502633000007336,1.6600000000000001,1934.2559284,,,,,548,21,Woman,Right,
,,,,,,,,,,,,,,,,,548,21,Woman,Right,3,42,0.4,1,180,-,0,0.9988675999993575,['y'],0.5061304999999265,1.8,1938.7049457000012,,,,,548,21,Woman,Right,
,,,,,,,,,,,,,,,,,548,21,Woman,Right,3,63,0.15,2,180,0,0,0.868292900000597,['n'],0.682458700001007,1.698,1943.0053535999996,,,,,548,21,Woman,Right,
,,,,,,,,,,,,,,,,,548,21,Woman,Right,3,8,0.4,1,0,-,180,1.3002625000008265,['y'],0.6336538000014116,1.938,1947.4728218,,,,,548,21,Woman,Right,
,,,,,,,,,,,,,,,,,548,21,Woman,Right,3,9,0.4,2,0,180,180,0.693093100000624,['y'],0.5219550999991043,1.9020000000000001,1951.2558574000013,,,,,548,21,Woman,Right,
,,,,,,,,,,,,,,,,,548,21,Woman,Right,3,3,1,2,180,0,0,2.441580699998667,['y'],0.5462964999987889,1.91,1956.6555884000009,,,,,548,21,Woman,Right,
,,,,,,,,,,,,,,,,,548,21,Woman,Right,3,16,0.4,1,0,-,0,0.8573322000011103,['y'],0.4579804000004515,1.8599999999999999,1960.754805300001,,,,,548,21,Woman,Right,
,,,,,,,,,,,,,,,,,548,21,Woman,Right,3,76,0.15,1,0,-,0,0.923956000000544,['n'],0.8505817000004754,1.8599999999999999,1965.0389431000003,,,,,548,21,Woman,Right,
,,,,,,,,,,,,,,,,,548,21,Woman,Right,3,40,0.4,1,0,-,0,0.9914214000000356,['n'],0.5464130000000296,1.8599999999999999,1968.8719992000006,,,,,548,21,Woman,Right,
,,,,,,,,,,,,,,,,,548,21,Woman,Right,3,17,0.4,2,0,180,180,0.6146719000007579,['y'],0.3384654000001319,1.8599999999999999,1972.2722009999998,,,,,548,21,Woman,Right,
,,,,,,,,,,,,,,,,,548,21,Woman,Right,3,38,0.4,1,180,-,0,1.2150430000001506,['n'],0.40244110000094224,1.908,1976.3885429000002,,,,,548,21,Woman,Right,
,,,,,,,,,,,,,,,,,548,21,Woman,Right,3,48,0.15,1,0,-,180,1.0098625999999058,['n'],1.1858993000005285,1.298,1981.2222435000003,,,,,548,21,Woman,Right,
,,,,,,,,,,,,,,,,,548,21,Woman,Right,3,45,0.15,2,0,180,0,0.664166299999124,['n'],0.8504370999999082,1.746,1985.2212039000005,,,,,548,21,Woman,Right,
,,,,,,,,,,,,,,,,,548,21,Woman,Right,3,71,0.15,2,180,0,0,0.8100097000005917,['n'],2.2503220999988116,1.5939999999999999,1991.2389113000008,,,,,548,21,Woman,Right,
,,,,,,,,,,,,,,,,,548,21,Woman,Right,3,4,1,1,0,-,0,0.6878214000007574,['y'],1.0902654000001348,1.776,1995.5549173,,,,,548,21,Woman,Right,
,,,,,,,,,,,,,,,,,548,21,Woman,Right,3,21,0.4,2,0,180,180,0.4707397000001947,['y'],1.2901901999994152,1.776,1999.8220734999995,,,,,548,21,Woman,Right,
,,,,,,,,,,,,,,,,,548,21,Woman,Right,3,13,0.4,2,0,180,180,1.0736388000004808,['y'],0.5463111999997636,1.948,2003.8725472000006,,,,,548,21,Woman,Right,
,,,,,,,,,,,,,,,,,548,21,Woman,Right,3,22,0.4,1,180,-,180,1.2733600999999908,['n'],1.1698192000003473,1.674,2008.9560053000005,,,,,548,21,Woman,Right,
,,,,,,,,,,,,,,,,,548,21,Woman,Right,3,26,0.4,1,180,-,0,0.6444859000002907,['y'],0.45823920000111684,1.962,2012.5222248999999,,,,,548,21,Woman,Right,
,,,,,,,,,,,,,,,,,548,21,Woman,Right,3,66,0.15,1,180,-,180,0.4232685000006313,['n'],0.5218779999995604,1.914,2016.1719955000008,,,,,548,21,Woman,Right,
,,,,,,,,,,,,,,,,,548,21,Woman,Right,3,70,0.15,1,180,-,0,1.5825908000006166,['n'],4.449771100000362,1.278,2025.922216500001,,,,,548,21,Woman,Right,
,,,,,,,,,,,,,,,,,548,21,Woman,Right,4,65,0.15,2,0,180,0,3.382413600000291,['n'],2.0333141000010073,1.248,2049.4552686000006,63.75,70.0,50.0,,548,21,Woman,Right,
,,,,,,,,,,,,,,,,,548,21,Woman,Right,4,7,1,2,180,0,0,2.239811199999167,['y'],0.36981070000001637,2.0,2054.938409800001,,,,,548,21,Woman,Right,
,,,,,,,,,,,,,,,,,548,21,Woman,Right,4,30,0.4,1,180,-,180,0.3842368000005081,['n'],0.8016198000004806,1.6400000000000001,2058.9722139000005,,,,,548,21,Woman,Right,
,,,,,,,,,,,,,,,,,548,21,Woman,Right,4,13,0.4,2,0,180,180,0.7257059999992634,['y'],0.537279000000126,1.8519999999999999,2062.5569094,,,,,548,21,Woman,Right,
,,,,,,,,,,,,,,,,,548,21,Woman,Right,4,73,0.15,2,0,180,180,0.44498159999966447,['n'],0.5694253000001481,1.854,2065.9056231000013,,,,,548,21,Woman,Right,
,,,,,,,,,,,,,,,,,548,21,Woman,Right,4,63,0.15,2,180,0,0,0.8961976999999024,['n'],0.7295514999987063,1.6280000000000001,2069.788639300001,,,,,548,21,Woman,Right,
,,,,,,,,,,,,,,,,,548,21,Woman,Right,4,18,0.4,1,180,-,180,0.5003517000004649,['n'],0.9774015000002692,1.306,2073.772457700001,,,,,548,21,Woman,Right,
,,,,,,,,,,,,,,,,,548,21,Woman,Right,4,36,0.4,1,0,-,0,2.3791151999994327,['y'],0.9049894999989192,1.6219999999999999,2079.4723405000004,,,,,548,21,Woman,Right,
,,,,,,,,,,,,,,,,,548,21,Woman,Right,4,23,0.4,2,180,0,0,0.6232215999989421,['y'],0.4497754999993049,2.0,2083.2895088000005,,,,,548,21,Woman,Right,
,,,,,,,,,,,,,,,,,548,21,Woman,Right,4,17,0.4,2,0,180,0,1.9135408000001917,['y'],0.5770490000013524,1.732,2088.3230344000003,,,,,548,21,Woman,Right,
,,,,,,,,,,,,,,,,,548,21,Woman,Right,4,26,0.4,1,180,-,0,0.7033205999996426,['n'],0.4255857999996806,1.732,2091.8226238000007,,,,,548,21,Woman,Right,
,,,,,,,,,,,,,,,,,548,21,Woman,Right,4,64,0.15,1,0,-,180,0.4888111000000208,['y'],0.4095292999991216,1.732,2095.0729462,,,,,548,21,Woman,Right,
,,,,,,,,,,,,,,,,,548,21,Woman,Right,4,10,0.4,1,180,-,180,1.2420967999987624,['n'],1.5216297000006307,1.3639999999999999,2100.489262700001,,,,,548,21,Woman,Right,
,,,,,,,,,,,,,,,,,548,21,Woman,Right,4,28,0.4,1,0,-,0,1.010327399999369,['n'],0.9530395999991015,1.752,2104.789130000001,,,,,548,21,Woman,Right,
,,,,,,,,,,,,,,,,,548,21,Woman,Right,4,35,0.4,2,180,0,0,1.0887911999998323,['y'],0.26524890000109735,1.91,2108.8053084000003,,,,,548,21,Woman,Right,
,,,,,,,,,,,,,,,,,548,21,Woman,Right,4,21,0.4,2,0,180,0,1.0201061999996455,['y'],0.8015099000003829,1.84,2113.039497400001,,,,,548,21,Woman,Right,
,,,,,,,,,,,,,,,,,548,21,Woman,Right,4,42,0.4,1,180,-,180,0.5991004000006797,['n'],1.7198257000000012,1.834,2117.7893552000005,,,,,548,21,Woman,Right,
,,,,,,,,,,,,,,,,,548,21,Woman,Right,4,33,0.4,2,0,180,180,0.5981561999997211,['y'],0.4247144999990269,1.824,2121.072641500001,,,,,548,21,Woman,Right,
,,,,,,,,,,,,,,,,,548,21,Woman,Right,4,58,0.15,1,180,-,0,2.409954099999595,['n'],0.5053836000006413,1.256,2127.5890342000002,,,,,548,21,Woman,Right,
,,,,,,,,,,,,,,,,,548,21,Woman,Right,4,68,0.15,1,0,-,0,0.9920696999997745,['n'],0.7047825000008743,1.278,2132.0390704,,,,,548,21,Woman,Right,
,,,,,,,,,,,,,,,,,548,21,Woman,Right,4,74,0.15,1,180,-,180,0.5540027000006376,['n'],0.8169092999996792,1.3319999999999999,2135.905278100001,,,,,548,21,Woman,Right,
,,,,,,,,,,,,,,,,,548,21,Woman,Right,4,77,0.15,2,0,180,180,0.6082188000000315,['n'],1.440639700000247,1.428,2140.522966100001,,,,,548,21,Woman,Right,
,,,,,,,,,,,,,,,,,548,21,Woman,Right,4,1,1,2,0,180,0,4.1130633000011585,['n'],2.4011616999996477,1.0,2151.2396695999996,,,,,548,21,Woman,Right,
,,,,,,,,,,,,,,,,,548,21,Woman,Right,4,47,0.15,2,180,0,0,0.744956499998807,['y'],1.0165954000003694,1.688,2155.8554547000003,,,,,548,21,Woman,Right,
,,,,,,,,,,,,,,,,,548,21,Woman,Right,4,59,0.15,2,180,0,180,0.6050212000009196,['y'],0.5451099000001705,1.688,2159.4892509,,,,,548,21,Woman,Right,
,,,,,,,,,,,,,,,,,548,21,Woman,Right,4,11,0.4,2,180,0,0,0.7863500999992539,['y'],0.6891128999995999,1.858,2163.2554278999996,,,,,548,21,Woman,Right,
,,,,,,,,,,,,,,,,,548,21,Woman,Right,4,15,0.4,2,180,0,0,1.355464000000211,['y'],0.4886858999998367,1.9060000000000001,2167.422407100001,,,,,548,21,Woman,Right,
,,,,,,,,,,,,,,,,,548,21,Woman,Right,4,49,0.15,2,0,180,180,0.44646880000072997,['n'],1.1601277999998274,1.738,2171.3723305000003,,,,,548,21,Woman,Right,
,,,,,,,,,,,,,,,,,548,21,Woman,Right,4,8,0.4,1,0,-,180,0.7930249000000913,['n'],1.1042776000012964,1.71,2175.473591600001,,,,,548,21,Woman,Right,
,,,,,,,,,,,,,,,,,548,21,Woman,Right,4,25,0.4,2,0,180,180,4.370590399999855,['y'],3.4408734000007826,1.8,2185.8217461000004,,,,,548,21,Woman,Right,
,,,,,,,,,,,,,,,,,548,21,Woman,Right,4,31,0.4,2,180,0,0,0.7882129999998142,['y'],0.5844944999989821,1.838,2189.7555047000005,,,,,548,21,Woman,Right,
,,,,,,,,,,,,,,,,,548,21,Woman,Right,4,34,0.4,1,180,-,180,0.5330217000009725,['n'],0.6246019000009255,1.334,2193.489359700001,,,,,548,21,Woman,Right,
,,,,,,,,,,,,,,,,,548,21,Woman,Right,4,70,0.15,1,180,-,180,0.6707726999993611,['n'],0.6006720000004862,1.302,2197.3220543999996,,,,,548,21,Woman,Right,
,,,,,,,,,,,,,,,,,548,21,Woman,Right,4,22,0.4,1,180,-,0,1.2989292000002024,['y'],1.0884459000008064,1.748,2202.189716500001,,,,,548,21,Woman,Right,
,,,,,,,,,,,,,,,,,548,21,Woman,Right,4,78,0.15,1,180,-,180,0.5903281999999308,['n'],0.7922767000000022,1.312,2205.9225728,,,,,548,21,Woman,Right,
,,,,,,,,,,,,,,,,,548,21,Woman,Right,4,66,0.15,1,180,-,0,0.501195099999677,['n'],0.5841215000000375,1.528,2210.1894013,,,,,548,21,Woman,Right,
,,,,,,,,,,,,,,,,,548,21,Woman,Right,4,57,0.15,2,0,180,0,1.390396700000565,['n'],1.0243456000007427,1.322,2215.389662400001,,,,,548,21,Woman,Right,
,,,,,,,,,,,,,,,,,548,21,Woman,Right,4,27,0.4,2,180,0,0,0.8785047999990638,['y'],0.3841831000008824,1.76,2219.2570472000007,,,,,548,21,Woman,Right,
,,,,,,,,,,,,,,,,,548,21,Woman,Right,4,19,0.4,2,180,0,0,8.499448500000653,['y'],4.80799240000124,1.792,2235.8232375000007,,,,,548,21,Woman,Right,
,,,,,,,,,,,,,,,,,548,21,Woman,Right,4,67,0.15,2,180,0,180,0.5450050999988889,['n'],1.000274600000921,1.432,2244.3228275,,,,,548,21,Woman,Right,
,,,,,,,,,,,,,,,,,548,21,Woman,Right,4,56,0.15,1,0,-,0,0.640948499998558,['n'],0.5283493999995699,1.65,2248.0894991000005,,,,,548,21,Woman,Right,
,,,,,,,,,,,,,,,,,548,21,Woman,Right,4,52,0.15,1,0,-,0,1.9217300999989675,['n'],0.37626210000053106,1.584,2252.939813500001,,,,,548,21,Woman,Right,
,,,,,,,,,,,,,,,,,548,21,Woman,Right,4,62,0.15,1,180,-,180,0.8134180000015476,['y'],0.43971500000043306,1.5859999999999999,2256.6399379000013,,,,,548,21,Woman,Right,
,,,,,,,,,,,,,,,,,548,21,Woman,Right,4,38,0.4,1,180,-,0,0.9602132999989408,['y'],0.4244301999988238,1.724,2261.7553393,,,,,548,21,Woman,Right,
,,,,,,,,,,,,,,,,,548,21,Woman,Right,4,24,0.4,1,0,-,0,0.829108100000667,['n'],0.8080334999995102,1.616,2265.8385758000004,,,,,548,21,Woman,Right,
,,,,,,,,,,,,,,,,,548,21,Woman,Right,4,79,0.15,2,180,0,0,0.7389023000014276,['y'],0.8240306999996392,1.3359999999999999,2269.739696300001,,,,,548,21,Woman,Right,
,,,,,,,,,,,,,,,,,548,21,Woman,Right,4,4,1,1,0,-,0,0.8467118999997183,['n'],1.0403110000006563,1.322,2273.9724217000003,,,,,548,21,Woman,Right,
,,,,,,,,,,,,,,,,,548,21,Woman,Right,4,32,0.4,1,0,-,0,0.8473790999996709,['y'],0.5837402999986807,1.6,2277.7056433,,,,,548,21,Woman,Right,
,,,,,,,,,,,,,,,,,548,21,Woman,Right,4,3,1,2,180,0,0,1.0355808999993315,['y'],0.7042204000008496,1.838,2282.3054921000003,,,,,548,21,Woman,Right,
,,,,,,,,,,,,,,,,,548,21,Woman,Right,4,12,0.4,1,0,-,180,0.809600099999443,['y'],0.39160500000070897,1.274,2286.2400832000003,,,,,548,21,Woman,Right,
,,,,,,,,,,,,,,,,,548,21,Woman,Right,4,5,1,2,0,180,180,0.7563769000007596,['y'],0.6394775999997364,1.8599999999999999,2290.2243967000013,,,,,548,21,Woman,Right,
,,,,,,,,,,,,,,,,,548,21,Woman,Right,4,0,1,1,0,-,0,1.016976799999611,['n'],0.6480217999996967,1.6520000000000001,2294.3725699000006,,,,,548,21,Woman,Right,
,,,,,,,,,,,,,,,,,548,21,Woman,Right,4,6,1,1,180,-,180,0.6478174000003492,['n'],0.9120656000013696,1.692,2299.722948800001,,,,,548,21,Woman,Right,
,,,,,,,,,,,,,,,,,548,21,Woman,Right,4,53,0.15,2,0,180,0,1.5465139000007184,['n'],1.3520412999987457,1.388,2305.5724794,,,,,548,21,Woman,Right,
,,,,,,,,,,,,,,,,,548,21,Woman,Right,4,43,0.4,2,180,0,0,0.6623446000012336,['y'],0.7514835999991192,1.744,2309.539963000001,,,,,548,21,Woman,Right,
,,,,,,,,,,,,,,,,,548,21,Woman,Right,4,29,0.4,2,0,180,180,0.8291347999984282,['y'],0.520039099999849,1.84,2313.2899818000005,,,,,548,21,Woman,Right,
,,,,,,,,,,,,,,,,,548,21,Woman,Right,4,37,0.4,2,0,180,180,0.9457211999997526,['y'],0.3275068000002648,1.846,2316.8722770000004,,,,,548,21,Woman,Right,
,,,,,,,,,,,,,,,,,548,21,Woman,Right,4,46,0.15,1,180,-,180,0.6812112000006891,['n'],0.743786099999852,1.346,2320.6558127000008,,,,,548,21,Woman,Right,
,,,,,,,,,,,,,,,,,548,21,Woman,Right,4,54,0.15,1,180,-,0,0.7358284000001731,['y'],0.5599232999993546,1.686,2324.4074118999997,,,,,548,21,Woman,Right,
,,,,,,,,,,,,,,,,,548,21,Woman,Right,4,50,0.15,1,180,-,180,0.4919281000002229,['n'],0.9912452999997186,1.3780000000000001,2328.239605500001,,,,,548,21,Woman,Right,
,,,,,,,,,,,,,,,,,548,21,Woman,Right,4,40,0.4,1,0,-,0,0.42489949999981036,['n'],0.6235150000011345,1.576,2331.6558384,,,,,548,21,Woman,Right,
,,,,,,,,,,,,,,,,,548,21,Woman,Right,4,45,0.15,2,0,180,180,0.3694818000003579,['y'],0.8955631999997422,1.422,2335.4227329000005,,,,,548,21,Woman,Right,
,,,,,,,,,,,,,,,,,548,21,Woman,Right,4,71,0.15,2,180,0,180,0.42939250000017637,['n'],0.41592689999924914,1.444,2338.723334100001,,,,,548,21,Woman,Right,
,,,,,,,,,,,,,,,,,548,21,Woman,Right,4,44,0.15,1,0,-,0,0.8409957999992912,['y'],0.8717135999995662,1.718,2342.6731360000013,,,,,548,21,Woman,Right,
,,,,,,,,,,,,,,,,,548,21,Woman,Right,4,39,0.4,2,180,0,0,0.7001031999989209,['y'],1.9957603999991989,1.67,2348.6396483999997,,,,,548,21,Woman,Right,
,,,,,,,,,,,,,,,,,548,21,Woman,Right,4,20,0.4,1,0,-,0,0.5693434000004345,['n'],0.742959699999119,1.666,2352.4394458000006,,,,,548,21,Woman,Right,
,,,,,,,,,,,,,,,,,548,21,Woman,Right,4,14,0.4,1,180,-,180,0.5657963999983622,['y'],0.3926262000004499,1.6680000000000001,2355.923277600001,,,,,548,21,Woman,Right,
,,,,,,,,,,,,,,,,,548,21,Woman,Right,4,9,0.4,2,0,180,180,0.8045172000001912,['y'],0.42325869999876886,1.296,2360.7229279000003,,,,,548,21,Woman,Right,
,,,,,,,,,,,,,,,,,548,21,Woman,Right,4,60,0.15,1,0,-,180,0.3763534999998228,['n'],0.7913072999999713,1.384,2364.4733296000013,,,,,548,21,Woman,Right,
,,,,,,,,,,,,,,,,,548,21,Woman,Right,4,2,1,1,180,-,0,0.5328286000003573,['n'],1.3403985000004468,1.534,2369.3557026,,,,,548,21,Woman,Right,
,,,,,,,,,,,,,,,,,548,21,Woman,Right,4,69,0.15,2,0,180,0,0.9477566999994451,['n'],1.0795837999994546,1.342,2373.7564359999997,,,,,548,21,Woman,Right,
,,,,,,,,,,,,,,,,,548,21,Woman,Right,4,51,0.15,2,180,0,0,0.660648900000524,['n'],1.271110799998496,1.396,2378.305661300001,,,,,548,21,Woman,Right,
,,,,,,,,,,,,,,,,,548,21,Woman,Right,4,72,0.15,1,0,-,180,1.0237746999991941,['n'],0.8394340999984706,1.318,2382.506667400001,,,,,548,21,Woman,Right,
,,,,,,,,,,,,,,,,,548,21,Woman,Right,4,61,0.15,2,0,180,0,0.526959299999362,['n'],1.2393603999989864,1.326,2387.040219100001,,,,,548,21,Woman,Right,
,,,,,,,,,,,,,,,,,548,21,Woman,Right,4,16,0.4,1,0,-,0,2.097923499999524,['n'],1.0630108999994263,1.6059999999999999,2393.4235262,,,,,548,21,Woman,Right,
,,,,,,,,,,,,,,,,,548,21,Woman,Right,4,48,0.15,1,0,-,0,4.671107199999824,['n'],1.414532099999633,1.334,2402.3401794,,,,,548,21,Woman,Right,
,,,,,,,,,,,,,,,,,548,21,Woman,Right,4,76,0.15,1,0,-,0,0.6755902000004426,['n'],0.8794911999993928,1.686,2407.273055900001,,,,,548,21,Woman,Right,
,,,,,,,,,,,,,,,,,548,21,Woman,Right,4,75,0.15,2,180,0,0,0.9465491000009933,['n'],0.4548490999986825,1.692,2411.0899722000013,,,,,548,21,Woman,Right,
,,,,,,,,,,,,,,,,,548,21,Woman,Right,4,41,0.4,2,0,180,180,1.0316268999995373,['y'],0.47122010000020964,1.692,2414.9396245999997,,,,,548,21,Woman,Right,
,,,,,,,,,,,,,,,,,548,21,Woman,Right,4,55,0.15,2,180,0,0,0.51948640000046,['n'],0.7112890999997035,1.692,2418.4896304000013,,,,,548,21,Woman,Right,
,,,,,,,,,,,,,,,,,548,21,Woman,Right,5,2,1,1,180,-,180,0.43552959999942686,['n'],0.4780305000003864,1.67,2426.3558813,71.25,75.0,62.5,,548,21,Woman,Right,
,,,,,,,,,,,,,,,,,548,21,Woman,Right,5,12,0.4,1,0,-,0,1.7388199000015447,['n'],0.4065580999995291,1.758,2431.0061745000003,,,,,548,21,Woman,Right,
,,,,,,,,,,,,,,,,,548,21,Woman,Right,5,74,0.15,1,180,-,0,0.5945935000017926,['n'],0.5189304999985325,1.752,2434.4899435000007,,,,,548,21,Woman,Right,
,,,,,,,,,,,,,,,,,548,21,Woman,Right,5,46,0.15,1,180,-,180,0.45630379999965953,['n'],0.2950641999996151,1.752,2437.722587800001,,,,,548,21,Woman,Right,
,,,,,,,,,,,,,,,,,548,21,Woman,Right,5,57,0.15,2,0,180,0,2.090438900000663,['y'],0.6952480999989348,1.35,2443.2562959000006,,,,,548,21,Woman,Right,
,,,,,,,,,,,,,,,,,548,21,Woman,Right,5,14,0.4,1,180,-,180,0.5790484999997716,['n'],0.7984890999996423,1.29,2446.9558865,,,,,548,21,Woman,Right,
,,,,,,,,,,,,,,,,,548,21,Woman,Right,5,9,0.4,2,0,180,180,0.8156607000000804,['y'],0.6785949999994045,1.784,2450.8559446,,,,,548,21,Woman,Right,
,,,,,,,,,,,,,,,,,548,21,Woman,Right,5,5,1,2,0,180,180,0.7535404999998718,['y'],0.6145618999998987,1.794,2454.6063348000007,,,,,548,21,Woman,Right,
,,,,,,,,,,,,,,,,,548,21,Woman,Right,5,11,0.4,2,180,0,0,0.5075425000013638,['y'],0.7105714000008447,1.806,2458.5231669000004,,,,,548,21,Woman,Right,
,,,,,,,,,,,,,,,,,548,21,Woman,Right,5,23,0.4,2,180,0,0,0.9336647000000085,['y'],0.44663710000168066,1.888,2462.57308,,,,,548,21,Woman,Right,
,,,,,,,,,,,,,,,,,548,21,Woman,Right,5,10,0.4,1,180,-,180,0.4154794000005495,['n'],0.9345474000001559,1.692,2466.689657000001,,,,,548,21,Woman,Right,
,,,,,,,,,,,,,,,,,548,21,Woman,Right,5,52,0.15,1,0,-,0,1.240517299998828,['n'],0.8704803000000538,1.736,2471.1565549000006,,,,,548,21,Woman,Right,
,,,,,,,,,,,,,,,,,548,21,Woman,Right,5,25,0.4,2,0,180,180,0.5441436000000976,['y'],0.6305253999998968,1.794,2474.6559491000007,,,,,548,21,Woman,Right,
,,,,,,,,,,,,,,,,,548,21,Woman,Right,5,37,0.4,2,0,180,180,0.5894747000002099,['y'],0.31850760000088485,1.8599999999999999,2477.9225693999997,,,,,548,21,Woman,Right,
,,,,,,,,,,,,,,,,,548,21,Woman,Right,5,13,0.4,2,0,180,180,1.3061218000002555,['y'],0.6218245000000024,1.81,2482.156173900001,,,,,548,21,Woman,Right,
,,,,,,,,,,,,,,,,,548,21,Woman,Right,5,73,0.15,2,0,180,0,0.4707984000015131,['n'],0.9026966000001266,1.326,2486.139946700001,,,,,548,21,Woman,Right,
,,,,,,,,,,,,,,,,,548,21,Woman,Right,5,29,0.4,2,0,180,180,0.9784351000016613,['y'],0.6298923000013019,1.834,2490.139514300001,,,,,548,21,Woman,Right,
,,,,,,,,,,,,,,,,,548,21,Woman,Right,5,50,0.15,1,180,-,0,1.2767992000008235,['n'],0.6625982000005024,1.634,2494.422964700001,,,,,548,21,Woman,Right,
,,,,,,,,,,,,,,,,,548,21,Woman,Right,5,53,0.15,2,0,180,0,0.9088224000006448,['n'],0.6625406999992265,1.714,2498.4229109000007,,,,,548,21,Woman,Right,
,,,,,,,,,,,,,,,,,548,21,Woman,Right,5,69,0.15,2,0,180,180,0.6531300999995437,['y'],0.3662978000011208,1.694,2501.8060444000002,,,,,548,21,Woman,Right,
,,,,,,,,,,,,,,,,,548,21,Woman,Right,5,41,0.4,2,0,180,180,0.4790774999983114,['y'],0.5424315999989631,1.8780000000000001,2505.3073296000002,,,,,548,21,Woman,Right,
,,,,,,,,,,,,,,,,,548,21,Woman,Right,5,47,0.15,2,180,0,180,0.8258397999998124,['n'],0.558264400000553,1.63,2508.9730593000004,,,,,548,21,Woman,Right,
,,,,,,,,,,,,,,,,,548,21,Woman,Right,5,18,0.4,1,180,-,180,1.4317613000002893,['n'],0.7744026000000304,1.318,2513.3900704999996,,,,,548,21,Woman,Right,
,,,,,,,,,,,,,,,,,548,21,Woman,Right,5,7,1,2,180,0,0,0.8777836000008392,['y'],0.4298758999993879,1.942,2517.489876900001,,,,,548,21,Woman,Right,
,,,,,,,,,,,,,,,,,548,21,Woman,Right,5,79,0.15,2,180,0,180,0.3432047000005696,['n'],0.9982006000009278,1.422,2521.3232957,,,,,548,21,Woman,Right,
,,,,,,,,,,,,,,,,,548,21,Woman,Right,5,72,0.15,1,0,-,180,0.5446410999993532,['n'],0.7824919000013324,1.342,2525.0235711000005,,,,,548,21,Woman,Right,
,,,,,,,,,,,,,,,,,548,21,Woman,Right,5,30,0.4,1,180,-,0,0.5442430999992212,['n'],0.7664127000007284,1.692,2528.8560605000002,,,,,548,21,Woman,Right,
,,,,,,,,,,,,,,,,,548,21,Woman,Right,5,28,0.4,1,0,-,180,0.554571799999394,['n'],0.4862706000003527,1.5979999999999999,2532.3243624000006,,,,,548,21,Woman,Right,
,,,,,,,,,,,,,,,,,548,21,Woman,Right,5,40,0.4,1,0,-,0,1.4319349999987026,['y'],0.43008349999945494,1.6179999999999999,2537.0404526,,,,,548,21,Woman,Right,
,,,,,,,,,,,,,,,,,548,21,Woman,Right,5,32,0.4,1,0,-,0,0.7240026999988913,['n'],0.8380704000010155,1.716,2541.2402807,,,,,548,21,Woman,Right,
,,,,,,,,,,,,,,,,,548,21,Woman,Right,5,55,0.15,2,180,0,180,1.54676660000041,['y'],0.5419743999991624,1.774,2545.806383000001,,,,,548,21,Woman,Right,
,,,,,,,,,,,,,,,,,548,21,Woman,Right,5,39,0.4,2,180,0,0,0.46965759999875445,['y'],1.0458003000003373,1.936,2549.806079600001,,,,,548,21,Woman,Right,
,,,,,,,,,,,,,,,,,548,21,Woman,Right,5,48,0.15,1,0,-,0,0.515468100000362,['n'],0.4059111999995366,1.718,2553.157056600001,,,,,548,21,Woman,Right,
,,,,,,,,,,,,,,,,,548,21,Woman,Right,5,49,0.15,2,0,180,180,0.6178411000000779,['n'],0.5820463000000018,1.65,2556.873913200001,,,,,548,21,Woman,Right,
,,,,,,,,,,,,,,,,,548,21,Woman,Right,5,19,0.4,2,180,0,0,0.5301426999994874,['n'],0.702042300001267,1.786,2561.357208700001,,,,,548,21,Woman,Right,
,,,,,,,,,,,,,,,,,548,21,Woman,Right,5,34,0.4,1,180,-,180,0.7092850999997609,['n'],0.5820715999998356,1.6360000000000001,2565.3403897999997,,,,,548,21,Woman,Right,
,,,,,,,,,,,,,,,,,548,21,Woman,Right,5,6,1,1,180,-,180,0.5054789000005258,['y'],0.8456876999989618,1.728,2569.0561689000006,,,,,548,21,Woman,Right,
,,,,,,,,,,,,,,,,,548,21,Woman,Right,5,56,0.15,1,0,-,180,0.5868718999990961,['y'],0.4136736000000383,1.736,2572.423066000001,,,,,548,21,Woman,Right,
,,,,,,,,,,,,,,,,,548,21,Woman,Right,5,62,0.15,1,180,-,0,0.6019787000004726,['y'],0.38177970000106143,1.686,2575.740760800001,,,,,548,21,Woman,Right,
,,,,,,,,,,,,,,,,,548,21,Woman,Right,5,59,0.15,2,180,0,180,0.5243282000010367,['n'],0.39757099999951606,1.816,2579.1226122000007,,,,,548,21,Woman,Right,
,,,,,,,,,,,,,,,,,548,21,Woman,Right,5,77,0.15,2,0,180,0,1.3295795000012731,['n'],1.1819208999986586,1.748,2584.423825600001,,,,,548,21,Woman,Right,
,,,,,,,,,,,,,,,,,548,21,Woman,Right,5,64,0.15,1,0,-,0,0.5828692999984924,['n'],1.0121582000010676,1.412,2588.6562489000007,,,,,548,21,Woman,Right,
,,,,,,,,,,,,,,,,,548,21,Woman,Right,5,70,0.15,1,180,-,180,1.4975823999993736,['n'],0.4056717999992543,1.292,2592.9891766,,,,,548,21,Woman,Right,
,,,,,,,,,,,,,,,,,548,21,Woman,Right,5,31,0.4,2,180,0,0,0.8226541000003635,['y'],0.8696550000004208,1.954,2597.2067008000013,,,,,548,21,Woman,Right,
,,,,,,,,,,,,,,,,,548,21,Woman,Right,5,65,0.15,2,0,180,180,1.47082330000012,['y'],0.709718600000997,1.684,2601.839606400001,,,,,548,21,Woman,Right,
,,,,,,,,,,,,,,,,,548,21,Woman,Right,5,35,0.4,2,180,0,0,0.678398300000481,['y'],0.34880819999852974,1.68,2605.2231869999996,,,,,548,21,Woman,Right,
,,,,,,,,,,,,,,,,,548,21,Woman,Right,5,38,0.4,1,180,-,180,0.5785164999997505,['n'],1.0216395000006742,1.694,2610.006717100001,,,,,548,21,Woman,Right,
,,,,,,,,,,,,,,,,,548,21,Woman,Right,5,16,0.4,1,0,-,0,0.460115500000029,['y'],0.8531177999993815,1.826,2613.858408600001,,,,,548,21,Woman,Right,
,,,,,,,,,,,,,,,,,548,21,Woman,Right,5,67,0.15,2,180,0,0,0.7017947000003915,['y'],0.4215088000000833,1.77,2617.2570801,,,,,548,21,Woman,Right,
,,,,,,,,,,,,,,,,,548,21,Woman,Right,5,4,1,1,0,-,0,0.6132285000003321,['n'],0.541127399999823,1.84,2620.723350600001,,,,,548,21,Woman,Right,
,,,,,,,,,,,,,,,,,548,21,Woman,Right,5,66,0.15,1,180,-,0,1.2632697000008193,['y'],0.7978401000000304,1.8519999999999999,2625.4567153999997,,,,,548,21,Woman,Right,
,,,,,,,,,,,,,,,,,548,21,Woman,Right,5,15,0.4,2,180,0,0,0.6400790999996389,['y'],0.7898253999992448,1.8519999999999999,2629.423128300001,,,,,548,21,Woman,Right,
,,,,,,,,,,,,,,,,,548,21,Woman,Right,5,44,0.15,1,0,-,0,0.5293394999989687,['n'],0.541751499999009,1.8519999999999999,2633.006822700001,,,,,548,21,Woman,Right,
,,,,,,,,,,,,,,,,,548,21,Woman,Right,5,20,0.4,1,0,-,180,0.5280831000000035,['y'],0.4616927000006399,1.8519999999999999,2636.3899550000006,,,,,548,21,Woman,Right,
,,,,,,,,,,,,,,,,,548,21,Woman,Right,5,8,0.4,1,0,-,180,0.5176621999999043,['y'],0.5177630999987741,1.8519999999999999,2640.1404798000003,,,,,548,21,Woman,Right,
,,,,,,,,,,,,,,,,,548,21,Woman,Right,5,78,0.15,1,180,-,0,0.3341373000002932,['n'],0.7097092999993038,1.8519999999999999,2643.5729677,,,,,548,21,Woman,Right,
,,,,,,,,,,,,,,,,,548,21,Woman,Right,5,42,0.4,1,180,-,180,2.5665007999996305,['n'],0.7435019999993528,1.3519999999999999,2649.4060682,,,,,548,21,Woman,Right,
,,,,,,,,,,,,,,,,,548,21,Woman,Right,5,17,0.4,2,0,180,180,1.0804368999997678,['y'],0.6615232000003743,1.83,2653.5740427,,,,,548,21,Woman,Right,
,,,,,,,,,,,,,,,,,548,21,Woman,Right,5,24,0.4,1,0,-,180,0.9419459999990067,['n'],1.3812437000015052,1.318,2658.4397996000007,,,,,548,21,Woman,Right,
,,,,,,,,,,,,,,,,,548,21,Woman,Right,5,45,0.15,2,0,180,0,0.6045782000001054,['n'],0.7251620000006369,1.624,2662.407686300001,,,,,548,21,Woman,Right,
,,,,,,,,,,,,,,,,,548,21,Woman,Right,5,51,0.15,2,180,0,180,0.40397750000011,['n'],0.8532670000004146,1.192,2666.5233363999996,,,,,548,21,Woman,Right,
,,,,,,,,,,,,,,,,,548,21,Woman,Right,5,60,0.15,1,0,-,180,0.6741803000004438,['y'],0.9967895999998291,1.73,2670.573509400001,,,,,548,21,Woman,Right,
,,,,,,,,,,,,,,,,,548,21,Woman,Right,5,61,0.15,2,0,180,180,0.66993790000015,['y'],0.5252192999996623,1.596,2674.557115400001,,,,,548,21,Woman,Right,
,,,,,,,,,,,,,,,,,548,21,Woman,Right,5,33,0.4,2,0,180,180,0.6866946999998618,['y'],1.0609856999999465,1.784,2678.9736114000007,,,,,548,21,Woman,Right,
,,,,,,,,,,,,,,,,,548,21,Woman,Right,5,76,0.15,1,0,-,0,1.73354130000007,['n'],1.037118999998711,1.806,2684.439870800001,,,,,548,21,Woman,Right,
,,,,,,,,,,,,,,,,,548,21,Woman,Right,5,68,0.15,1,0,-,180,1.0439744000013889,['n'],0.6930867999999464,1.76,2688.5908353000013,,,,,548,21,Woman,Right,
,,,,,,,,,,,,,,,,,548,21,Woman,Right,5,0,1,1,0,-,0,0.5691069000004063,['n'],0.8126018000002659,1.794,2692.3907880999996,,,,,548,21,Woman,Right,
,,,,,,,,,,,,,,,,,548,21,Woman,Right,5,26,0.4,1,180,-,180,0.6221681000006356,['y'],0.9487711999991006,1.77,2696.3908389999997,,,,,548,21,Woman,Right,
,,,,,,,,,,,,,,,,,548,21,Woman,Right,5,71,0.15,2,180,0,0,1.9333411999996315,['n'],0.5568308999991132,1.702,2701.3568347,,,,,548,21,Woman,Right,
,,,,,,,,,,,,,,,,,548,21,Woman,Right,5,75,0.15,2,180,0,0,1.6419351999993523,['n'],0.3805123999991338,1.994,2705.723775100001,,,,,548,21,Woman,Right,
,,,,,,,,,,,,,,,,,548,21,Woman,Right,5,21,0.4,2,0,180,180,0.6954550999998901,['y'],0.4768922000002931,1.978,2709.356922500001,,,,,548,21,Woman,Right,
,,,,,,,,,,,,,,,,,548,21,Woman,Right,5,22,0.4,1,180,-,180,0.43802169999980833,['y'],0.4770137999985309,1.826,2712.7407432,,,,,548,21,Woman,Right,
,,,,,,,,,,,,,,,,,548,21,Woman,Right,5,27,0.4,2,180,0,0,0.7308729000014864,['y'],0.7001529000008304,1.754,2716.5567158000013,,,,,548,21,Woman,Right,
,,,,,,,,,,,,,,,,,548,21,Woman,Right,5,36,0.4,1,0,-,0,1.8680600000006962,['n'],0.6048574000014924,1.266,2721.540601500001,,,,,548,21,Woman,Right,
,,,,,,,,,,,,,,,,,548,21,Woman,Right,5,3,1,2,180,0,0,0.5616835999990144,['y'],0.4208801000004314,1.858,2724.9572374,,,,,548,21,Woman,Right,
,,,,,,,,,,,,,,,,,548,21,Woman,Right,5,58,0.15,1,180,-,180,1.5193970000000263,['n'],0.9320564999998169,1.334,2729.890376000001,,,,,548,21,Woman,Right,
,,,,,,,,,,,,,,,,,548,21,Woman,Right,5,54,0.15,1,180,-,0,0.9314030000005005,['n'],0.7887513000005129,1.72,2733.8737382,,,,,548,21,Woman,Right,
,,,,,,,,,,,,,,,,,548,21,Woman,Right,5,1,1,2,0,180,180,0.6709776000006968,['y'],0.44467400000030466,1.824,2737.4240068,,,,,548,21,Woman,Right,
,,,,,,,,,,,,,,,,,548,21,Woman,Right,5,43,0.4,2,180,0,0,1.0116104000007908,['y'],0.612575499999366,1.952,2741.3742218999996,,,,,548,21,Woman,Right,
,,,,,,,,,,,,,,,,,548,21,Woman,Right,5,63,0.15,2,180,0,0,1.0039894000001368,['n'],0.468762999998944,1.428,2745.457012500001,,,,,548,21,Woman,Right,
,,,,,,,,,,,,,,,,,,,,,,,,,,,,,,,,,68.75,72.5,67.5,2455.6564690000005,,,,,
