p_block,p_section,p_coherence,p_direction1,p_direction2,p_direction_response,p_direction_RT,p_change_response,p_change_RT,p_confidence,p_full_correct,p_without5_correct,p_full_total,p_without5_total,p_full_avg,p_witout5_avg,p_total_time,sub,age,sex,handedness,loop,trial randomization,coherence,condition,direction1,direction2,direction_response,direction_RT,change_response,change_RT,change_confidence,change_confidence_RT,block_direction_avg,block_stable_avg,block_change_avg,total_time,sub,age,sex,handedness,
1,1,1.0,0,-,0,0.031339299999899595,-,-,-,,,,,,,,555,18,Woman,Right,,,,,,,,,,,,,,,,,555,18,Woman,Right,
1,1,1.0,0,-,0,3.464350700000068,-,-,-,,,,,,,,555,18,Woman,Right,,,,,,,,,,,,,,,,,555,18,Woman,Right,
1,1,1.0,180,-,180,0.288662899999963,-,-,-,,,,,,,,555,18,Woman,Right,,,,,,,,,,,,,,,,,555,18,Woman,Right,
1,1,1.0,180,-,180,0.5270974000000024,-,-,-,,,,,,,,555,18,Woman,Right,,,,,,,,,,,,,,,,,555,18,Woman,Right,
1,1,1.0,180,-,180,0.7804085000000214,-,-,-,,,,,,,,555,18,Woman,Right,,,,,,,,,,,,,,,,,555,18,Woman,Right,
1,1,1.0,0,-,0,0.2886392000000342,-,-,-,,,,,,,,555,18,Woman,Right,,,,,,,,,,,,,,,,,555,18,Woman,Right,
1,1,1.0,0,-,0,0.07039050000003044,-,-,-,,,,,,,,555,18,Woman,Right,,,,,,,,,,,,,,,,,555,18,Woman,Right,
1,1,1.0,180,-,180,0.6777784999999312,-,-,-,,,,,,,,555,18,Woman,Right,,,,,,,,,,,,,,,,,555,18,Woman,Right,
1,1,1.0,0,-,0,0.01663660000008349,-,-,-,,,,,,,,555,18,Woman,Right,,,,,,,,,,,,,,,,,555,18,Woman,Right,
1,1,1.0,180,-,180,0.2544880000000376,-,-,-,10,10,10,10,1.0,1.0,,555,18,Woman,Right,,,,,,,,,,,,,,,,,555,18,Woman,Right,
2,1,0.15,180,-,0,0.45336169999995946,-,-,-,,,,,,,,555,18,Woman,Right,,,,,,,,,,,,,,,,,555,18,Woman,Right,
2,1,0.4,180,-,180,0.01685829999996713,-,-,-,,,,,,,,555,18,Woman,Right,,,,,,,,,,,,,,,,,555,18,Woman,Right,
2,1,0.15,180,-,0,0.7506324999999379,-,-,-,,,,,,,,555,18,Woman,Right,,,,,,,,,,,,,,,,,555,18,Woman,Right,
2,1,0.4,0,-,0,0.27465649999999187,-,-,-,,,,,,,,555,18,Woman,Right,,,,,,,,,,,,,,,,,555,18,Woman,Right,
2,1,0.4,180,-,180,0.3539860000000772,-,-,-,,,,,,,,555,18,Woman,Right,,,,,,,,,,,,,,,,,555,18,Woman,Right,
2,1,0.15,180,-,180,0.01673679999998967,-,-,-,,,,,,,,555,18,Woman,Right,,,,,,,,,,,,,,,,,555,18,Woman,Right,
2,1,0.15,180,-,180,0.016789600000038263,-,-,-,,,,,,,,555,18,Woman,Right,,,,,,,,,,,,,,,,,555,18,Woman,Right,
2,1,0.4,180,-,180,0.4567812000000231,-,-,-,,,,,,,,555,18,Woman,Right,,,,,,,,,,,,,,,,,555,18,Woman,Right,
2,1,0.4,180,-,180,0.36871510000014496,-,-,-,,,,,,,,555,18,Woman,Right,,,,,,,,,,,,,,,,,555,18,Woman,Right,
2,1,0.15,0,-,0,0.016639100000020335,-,-,-,8,5,10,5,0.8,1.0,,555,18,Woman,Right,,,,,,,,,,,,,,,,,555,18,Woman,Right,
3,2,1.0,0,180,0,3.740083200000072,['y'],5.559354299999995,1.704,,,,,,,,555,18,Woman,Right,,,,,,,,,,,,,,,,,555,18,Woman,Right,
3,2,1.0,180,0,0,3.57617990000017,['y'],4.819137400000045,2.0,,,,,,,,555,18,Woman,Right,,,,,,,,,,,,,,,,,555,18,Woman,Right,
3,2,1.0,180,0,0,1.1291314999998576,['y'],1.3817441999999573,2.0,,,,,,,,555,18,Woman,Right,,,,,,,,,,,,,,,,,555,18,Woman,Right,
3,2,1.0,0,180,180,0.888658100000157,['y'],2.612540600000102,2.0,,,,,,,,555,18,Woman,Right,,,,,,,,,,,,,,,,,555,18,Woman,Right,
3,2,1.0,180,0,0,0.5590808999997989,['y'],0.7216378000000532,2.0,,,,,,,,555,18,Woman,Right,,,,,,,,,,,,,,,,,555,18,Woman,Right,
3,2,1.0,180,0,0,0.706811499999958,['y'],0.6795157999999901,2.0,,,,,,,,555,18,Woman,Right,,,,,,,,,,,,,,,,,555,18,Woman,Right,
3,2,1.0,180,0,0,0.48288929999989705,['y'],0.2634348999999929,2.0,,,,,,,,555,18,Woman,Right,,,,,,,,,,,,,,,,,555,18,Woman,Right,
3,2,1.0,180,0,0,0.3789073999998891,['y'],0.4862124999999651,2.0,,,,,,,,555,18,Woman,Right,,,,,,,,,,,,,,,,,555,18,Woman,Right,
3,2,1.0,180,0,0,0.8004233999999997,['y'],0.3528224000001501,2.0,,,,,,,,555,18,Woman,Right,,,,,,,,,,,,,,,,,555,18,Woman,Right,
3,2,1.0,0,180,180,0.5454381000001831,['y'],0.7100683000001027,2.0,9,9,10,10,0.9,0.9,,555,18,Woman,Right,,,,,,,,,,,,,,,,,555,18,Woman,Right,
4,2,0.4,180,0,0,0.7249402999998438,['y'],1.1129699000000528,2.0,,,,,,,,555,18,Woman,Right,,,,,,,,,,,,,,,,,555,18,Woman,Right,
4,2,0.15,0,180,0,2.2832610999998906,['y'],2.9532635000000482,2.0,,,,,,,,555,18,Woman,Right,,,,,,,,,,,,,,,,,555,18,Woman,Right,
4,2,0.15,180,0,180,2.112331999999924,['y'],3.126138899999887,1.246,,,,,,,,555,18,Woman,Right,,,,,,,,,,,,,,,,,555,18,Woman,Right,
4,2,0.15,180,0,0,0.6870096000000103,['n'],0.9814581000000544,1.424,,,,,,,,555,18,Woman,Right,,,,,,,,,,,,,,,,,555,18,Woman,Right,
4,2,0.15,0,180,0,0.8346397000000252,['n'],2.050879899999927,1.72,,,,,,,,555,18,Woman,Right,,,,,,,,,,,,,,,,,555,18,Woman,Right,
4,2,0.15,180,0,0,0.5072200000001885,['n'],1.5124298999999155,1.72,,,,,,,,555,18,Woman,Right,,,,,,,,,,,,,,,,,555,18,Woman,Right,
4,2,0.15,0,180,0,0.6252922000001035,['y'],2.2822076999998444,1.93,,,,,,,,555,18,Woman,Right,,,,,,,,,,,,,,,,,555,18,Woman,Right,
4,2,0.15,180,0,180,0.5314398999998957,['y'],1.6403090999999677,1.8980000000000001,,,,,,,,555,18,Woman,Right,,,,,,,,,,,,,,,,,555,18,Woman,Right,
4,2,0.4,180,0,0,0.460323100000096,['y'],1.5710002000000713,1.788,,,,,,,,555,18,Woman,Right,,,,,,,,,,,,,,,,,555,18,Woman,Right,
4,2,0.15,0,180,180,0.5447988999999325,['y'],0.9323441000001367,1.676,,,,,,,,555,18,Woman,Right,,,,,,,,,,,,,,,,,555,18,Woman,Right,
4,2,0.15,0,180,180,0.9141217000001234,['y'],0.6393564999998489,1.682,,,,,,,,555,18,Woman,Right,,,,,,,,,,,,,,,,,555,18,Woman,Right,
4,2,0.4,0,180,180,1.0853222999999161,['y'],0.6592287000000852,1.768,,,,,,,,555,18,Woman,Right,,,,,,,,,,,,,,,,,555,18,Woman,Right,
4,2,0.15,0,180,0,0.7062445999999909,['y'],1.7355835999999272,1.5779999999999998,,,,,,,,555,18,Woman,Right,,,,,,,,,,,,,,,,,555,18,Woman,Right,
4,2,0.4,180,0,0,0.469156699999985,['y'],2.195446800000127,1.6019999999999999,,,,,,,,555,18,Woman,Right,,,,,,,,,,,,,,,,,555,18,Woman,Right,
4,2,0.15,180,0,0,1.090537300000051,['y'],0.9519183999998404,1.6179999999999999,,,,,,,,555,18,Woman,Right,,,,,,,,,,,,,,,,,555,18,Woman,Right,
4,2,0.4,180,0,0,0.31093250000003536,['y'],2.091034699999909,1.712,,,,,,,,555,18,Woman,Right,,,,,,,,,,,,,,,,,555,18,Woman,Right,
4,2,0.15,0,180,180,0.7923490000002857,['n'],2.337762500000281,1.234,,,,,,,,555,18,Woman,Right,,,,,,,,,,,,,,,,,555,18,Woman,Right,
4,2,0.15,180,0,0,1.369170700000268,['y'],1.2682291999999507,1.83,,,,,,,,555,18,Woman,Right,,,,,,,,,,,,,,,,,555,18,Woman,Right,
4,2,0.4,180,0,0,0.32652409999991505,['y'],1.2034577999997964,1.75,,,,,,,,555,18,Woman,Right,,,,,,,,,,,,,,,,,555,18,Woman,Right,
4,2,0.4,0,180,180,0.36250829999971756,['y'],2.8130756000000474,1.736,9,5,10,5,0.9,1.0,,555,18,Woman,Right,,,,,,,,,,,,,,,,,555,18,Woman,Right,
5,3,1.0,180,0,0,0.7235341999999036,['y'],0.6801405999999588,1.726,,,,,,,,555,18,Woman,Right,,,,,,,,,,,,,,,,,555,18,Woman,Right,
5,3,0.15,180,0,180,0.3698651999998219,['y'],0.7576294000000416,1.3399999999999999,,,,,,,,555,18,Woman,Right,,,,,,,,,,,,,,,,,555,18,Woman,Right,
5,3,1.0,0,180,180,1.0796257000001788,['y'],2.141833300000144,1.8519999999999999,,,,,,,,555,18,Woman,Right,,,,,,,,,,,,,,,,,555,18,Woman,Right,
5,3,0.4,0,180,180,0.1833465999998225,['y'],0.9306676999999581,1.77,,,,,,,,555,18,Woman,Right,,,,,,,,,,,,,,,,,555,18,Woman,Right,
5,3,0.4,180,-,0,0.22976599999992686,['y'],1.149702900000193,1.768,,,,,,,,555,18,Woman,Right,,,,,,,,,,,,,,,,,555,18,Woman,Right,
5,3,0.15,180,0,0,2.4076896999999917,['y'],0.6490071999996871,1.912,,,,,,,,555,18,Woman,Right,,,,,,,,,,,,,,,,,555,18,Woman,Right,
5,3,0.15,180,0,0,2.0265614999998434,['y'],1.299383300000045,1.302,,,,,,,,555,18,Woman,Right,,,,,,,,,,,,,,,,,555,18,Woman,Right,
5,3,0.15,0,-,0,1.9032764000003226,['n'],0.9795553999997537,1.37,,,,,,,,555,18,Woman,Right,,,,,,,,,,,,,,,,,555,18,Woman,Right,
5,3,0.15,180,-,0,0.4215908000001036,['y'],0.72653820000005,1.238,,,,,,,,555,18,Woman,Right,,,,,,,,,,,,,,,,,555,18,Woman,Right,
5,3,1.0,0,-,0,0.5167531000001873,['n'],1.1861355999999432,1.996,7,4,10,5,0.7,0.8,,555,18,Woman,Right,,,,,,,,,,,,,,,,,555,18,Woman,Right,
,,,,,,,,,,,,,,,,5.500000042957254e-06,555,18,Woman,Right,,,,,,,,,,,,,,,,,555,18,Woman,Right,
,,,,,,,,,,,,,,,,,555,18,Woman,Right,0,12,0.4,1,0,-,0,0.9751412999999047,['n'],4.510532900000271,1.354,391.53089290000025,,,,,555,18,Woman,Right,
,,,,,,,,,,,,,,,,,555,18,Woman,Right,0,50,0.15,1,180,-,180,1.045046000000184,['n'],1.998924700000316,1.718,397.7474959000001,,,,,555,18,Woman,Right,
,,,,,,,,,,,,,,,,,555,18,Woman,Right,0,78,0.15,1,180,-,180,1.4554112000000714,['y'],1.7267695000000458,1.6,403.5641663000001,,,,,555,18,Woman,Right,
,,,,,,,,,,,,,,,,,555,18,Woman,Right,0,7,1,2,180,0,0,0.8555914999997185,['y'],2.2228823999998895,2.0,409.3141064000001,,,,,555,18,Woman,Right,
,,,,,,,,,,,,,,,,,555,18,Woman,Right,0,62,0.15,1,180,-,180,0.9446726999999555,['y'],1.4630858000000444,1.738,414.81400699999995,,,,,555,18,Woman,Right,
,,,,,,,,,,,,,,,,,555,18,Woman,Right,0,68,0.15,1,0,-,180,2.071650899999895,['y'],1.3027114999999867,1.57,421.08072600000014,,,,,555,18,Woman,Right,
,,,,,,,,,,,,,,,,,555,18,Woman,Right,0,3,1,2,180,0,0,0.25419879999981276,['y'],0.9513483000000633,2.0,425.1139972000001,,,,,555,18,Woman,Right,
,,,,,,,,,,,,,,,,,555,18,Woman,Right,0,16,0.4,1,0,-,0,0.4168640000002597,['y'],0.975231100000201,1.954,429.0805927000001,,,,,555,18,Woman,Right,
,,,,,,,,,,,,,,,,,555,18,Woman,Right,0,2,1,1,180,-,180,0.4335393000001204,['n'],0.9615966999999728,1.984,433.04719209999985,,,,,555,18,Woman,Right,
,,,,,,,,,,,,,,,,,555,18,Woman,Right,0,43,0.4,2,180,0,0,0.24564609999970344,['y'],0.6306592999999339,1.93,436.34725660000004,,,,,555,18,Woman,Right,
,,,,,,,,,,,,,,,,,555,18,Woman,Right,0,75,0.15,2,180,0,180,0.46661079999967114,['y'],1.0465081999996073,1.796,440.86390489999985,,,,,555,18,Woman,Right,
,,,,,,,,,,,,,,,,,555,18,Woman,Right,0,42,0.4,1,180,-,180,0.7992810000000645,['y'],0.9265399000000798,1.742,445.1138688000001,,,,,555,18,Woman,Right,
,,,,,,,,,,,,,,,,,555,18,Woman,Right,0,76,0.15,1,0,-,0,0.6748257999997804,['y'],1.583073499999955,1.71,450.54717789999995,,,,,555,18,Woman,Right,
,,,,,,,,,,,,,,,,,555,18,Woman,Right,0,30,0.4,1,180,-,180,0.4819347000002381,['y'],1.2145088000002033,1.3820000000000001,455.78158669999993,,,,,555,18,Woman,Right,
,,,,,,,,,,,,,,,,,555,18,Woman,Right,0,72,0.15,1,0,-,0,0.1528905999998642,['y'],1.1512619999998606,1.638,459.8639535000002,,,,,555,18,Woman,Right,
,,,,,,,,,,,,,,,,,555,18,Woman,Right,0,57,0.15,2,0,180,180,0.501468300000397,['y'],0.7906080999996448,1.974,464.33036730000003,,,,,555,18,Woman,Right,
,,,,,,,,,,,,,,,,,555,18,Woman,Right,0,64,0.15,1,0,-,180,0.5713746000001265,['y'],1.0625168999999914,1.638,468.5803682999999,,,,,555,18,Woman,Right,
,,,,,,,,,,,,,,,,,555,18,Woman,Right,0,1,1,2,0,180,180,1.814118100000087,['y'],1.0626475999997638,1.938,474.3136663999999,,,,,555,18,Woman,Right,
,,,,,,,,,,,,,,,,,555,18,Woman,Right,0,27,0.4,2,180,0,0,1.1058502000000772,['y'],0.4067819000001691,2.0,478.5636625000002,,,,,555,18,Woman,Right,
,,,,,,,,,,,,,,,,,555,18,Woman,Right,0,31,0.4,2,180,0,180,0.4081258000001071,['y'],0.822628700000223,1.986,482.76462549999997,,,,,555,18,Woman,Right,
,,,,,,,,,,,,,,,,,555,18,Woman,Right,0,47,0.15,2,180,0,0,1.887119999999868,['y'],1.374869800000397,1.836,488.6302418999999,,,,,555,18,Woman,Right,
,,,,,,,,,,,,,,,,,555,18,Woman,Right,0,44,0.15,1,0,-,0,1.0698158000000149,['n'],2.374851199999739,1.268,495.9468458000001,,,,,555,18,Woman,Right,
,,,,,,,,,,,,,,,,,555,18,Woman,Right,0,67,0.15,2,180,0,0,0.4502439000002596,['n'],1.8858642000000145,1.314,502.1636546,,,,,555,18,Woman,Right,
,,,,,,,,,,,,,,,,,555,18,Woman,Right,0,19,0.4,2,180,0,0,0.49729560000014317,['y'],0.4867810999999165,2.0,506.0804284000001,,,,,555,18,Woman,Right,
,,,,,,,,,,,,,,,,,555,18,Woman,Right,0,29,0.4,2,0,180,180,0.4267337999999654,['y'],1.5748849999999948,1.986,510.6633694000002,,,,,555,18,Woman,Right,
,,,,,,,,,,,,,,,,,555,18,Woman,Right,0,5,1,2,0,180,0,0.4752696999998989,['y'],0.6472168999998757,1.986,514.1966935,,,,,555,18,Woman,Right,
,,,,,,,,,,,,,,,,,555,18,Woman,Right,0,56,0.15,1,0,-,180,1.1192871000002924,['y'],1.990841299999829,1.8599999999999999,520.5466461999999,,,,,555,18,Woman,Right,
,,,,,,,,,,,,,,,,,555,18,Woman,Right,0,22,0.4,1,180,-,180,0.6247864000001755,['n'],0.9270062999999027,1.422,526.9635647,,,,,555,18,Woman,Right,
,,,,,,,,,,,,,,,,,555,18,Woman,Right,0,6,1,1,180,-,180,0.3773992999999791,['n'],1.582985699999881,1.916,531.5466511,,,,,555,18,Woman,Right,
,,,,,,,,,,,,,,,,,555,18,Woman,Right,0,66,0.15,1,180,-,0,0.32699060000004465,['y'],0.5591039000000819,1.914,536.1798809000002,,,,,555,18,Woman,Right,
,,,,,,,,,,,,,,,,,555,18,Woman,Right,0,20,0.4,1,0,-,0,0.29806589999998323,['n'],1.7597476000000825,1.338,541.2132356000002,,,,,555,18,Woman,Right,
,,,,,,,,,,,,,,,,,555,18,Woman,Right,0,41,0.4,2,0,180,180,0.4107088999999178,['y'],0.4704349000003276,2.0,544.8300557000002,,,,,555,18,Woman,Right,
,,,,,,,,,,,,,,,,,555,18,Woman,Right,0,59,0.15,2,180,0,0,0.7648930999998811,['y'],3.366976700000123,1.262,551.3798571000002,,,,,555,18,Woman,Right,
,,,,,,,,,,,,,,,,,555,18,Woman,Right,0,61,0.15,2,0,180,0,0.25007529999993494,['n'],1.511734300000171,1.3900000000000001,555.6633270000002,,,,,555,18,Woman,Right,
,,,,,,,,,,,,,,,,,555,18,Woman,Right,0,0,1,1,0,-,0,0.3610486000002311,['n'],2.887054000000262,1.6059999999999999,562.0964330000002,,,,,555,18,Woman,Right,
,,,,,,,,,,,,,,,,,555,18,Woman,Right,0,69,0.15,2,0,180,0,0.7344476000002942,['y'],2.2549817999997686,1.38,567.9297176999999,,,,,555,18,Woman,Right,
,,,,,,,,,,,,,,,,,555,18,Woman,Right,0,23,0.4,2,180,0,0,0.44928010000012364,['y'],1.8467462999997224,1.934,573.0638825000001,,,,,555,18,Woman,Right,
,,,,,,,,,,,,,,,,,555,18,Woman,Right,0,21,0.4,2,0,180,180,0.33417169999984253,['y'],0.6629725999996481,1.8559999999999999,577.6973914,,,,,555,18,Woman,Right,
,,,,,,,,,,,,,,,,,555,18,Woman,Right,0,10,0.4,1,180,-,180,0.3331087999999909,['y'],0.5748452000002544,1.6640000000000001,582.8129320000003,,,,,555,18,Woman,Right,
,,,,,,,,,,,,,,,,,555,18,Woman,Right,0,37,0.4,2,0,180,0,0.8413470000000416,['y'],0.5506319999999505,1.62,587.3631022,,,,,555,18,Woman,Right,
,,,,,,,,,,,,,,,,,555,18,Woman,Right,0,74,0.15,1,180,-,0,1.0870460999999523,['y'],2.4790745000000243,1.3479999999999999,593.8296151,,,,,555,18,Woman,Right,
,,,,,,,,,,,,,,,,,555,18,Woman,Right,0,45,0.15,2,0,180,0,0.2677604999998948,['y'],0.6230380000001787,2.0,597.1461903,,,,,555,18,Woman,Right,
,,,,,,,,,,,,,,,,,555,18,Woman,Right,0,34,0.4,1,180,-,0,0.8935677999998006,['y'],1.2227864999999838,1.5979999999999999,601.8628280000003,,,,,555,18,Woman,Right,
,,,,,,,,,,,,,,,,,555,18,Woman,Right,0,35,0.4,2,180,0,180,0.9046435000000201,['y'],0.7830270999997992,1.812,606.5961044000001,,,,,555,18,Woman,Right,
,,,,,,,,,,,,,,,,,555,18,Woman,Right,0,77,0.15,2,0,180,0,0.2347113000000718,['y'],0.5668694999999389,1.804,609.6961101000002,,,,,555,18,Woman,Right,
,,,,,,,,,,,,,,,,,555,18,Woman,Right,0,36,0.4,1,0,-,0,0.27857059999996636,['y'],0.6229653000000326,1.804,613.0461395000002,,,,,555,18,Woman,Right,
,,,,,,,,,,,,,,,,,555,18,Woman,Right,0,15,0.4,2,180,0,180,0.2872007000000849,['y'],0.8150998999999501,1.422,617.6628063000003,,,,,555,18,Woman,Right,
,,,,,,,,,,,,,,,,,555,18,Woman,Right,0,53,0.15,2,0,180,0,0.5128727999999683,['y'],3.8145018000000164,1.316,625.4459718000003,,,,,555,18,Woman,Right,
,,,,,,,,,,,,,,,,,555,18,Woman,Right,0,60,0.15,1,0,-,0,1.0328048000001218,['n'],2.071215200000097,1.326,630.9128447000003,,,,,555,18,Woman,Right,
,,,,,,,,,,,,,,,,,555,18,Woman,Right,0,33,0.4,2,0,180,180,0.9373141000000942,['y'],1.262958400000116,1.98,635.8458747,,,,,555,18,Woman,Right,
,,,,,,,,,,,,,,,,,555,18,Woman,Right,0,24,0.4,1,0,-,0,1.43690370000013,['n'],1.0865481999999247,1.4,641.0792821,,,,,555,18,Woman,Right,
,,,,,,,,,,,,,,,,,555,18,Woman,Right,0,18,0.4,1,180,-,180,0.10550389999980325,['y'],2.0392062000000806,1.842,646.7459355000001,,,,,555,18,Woman,Right,
,,,,,,,,,,,,,,,,,555,18,Woman,Right,0,54,0.15,1,180,-,180,1.3314040999998724,['n'],1.1749644000001354,1.316,651.6626374000002,,,,,555,18,Woman,Right,
,,,,,,,,,,,,,,,,,555,18,Woman,Right,0,73,0.15,2,0,180,0,0.24931029999970633,['y'],2.5107772000001205,1.3900000000000001,656.9291103999999,,,,,555,18,Woman,Right,
,,,,,,,,,,,,,,,,,555,18,Woman,Right,0,25,0.4,2,0,180,180,0.5910448999998152,['y'],0.5266537000002245,2.0,660.8291201000002,,,,,555,18,Woman,Right,
,,,,,,,,,,,,,,,,,555,18,Woman,Right,0,46,0.15,1,180,-,0,1.2718215999998392,['n'],1.4065674000003128,1.294,666.6790765000001,,,,,555,18,Woman,Right,
,,,,,,,,,,,,,,,,,555,18,Woman,Right,0,58,0.15,1,180,-,180,2.322696200000337,['n'],3.271107099999881,1.3599999999999999,675.5623045000002,,,,,555,18,Woman,Right,
,,,,,,,,,,,,,,,,,555,18,Woman,Right,0,79,0.15,2,180,0,0,2.116950000000088,['n'],1.209097699999802,1.558,682.3458534000001,,,,,555,18,Woman,Right,
,,,,,,,,,,,,,,,,,555,18,Woman,Right,0,17,0.4,2,0,180,180,0.57762589999993,['y'],2.1589305999996213,2.0,688.2789406000002,,,,,555,18,Woman,Right,
,,,,,,,,,,,,,,,,,555,18,Woman,Right,0,49,0.15,2,0,180,180,0.58765510000012,['y'],0.5588092000002689,1.988,692.2798519000003,,,,,555,18,Woman,Right,
,,,,,,,,,,,,,,,,,555,18,Woman,Right,0,11,0.4,2,180,0,0,0.6296526999999514,['y'],0.6870199999998476,1.988,696.3290834,,,,,555,18,Woman,Right,
,,,,,,,,,,,,,,,,,555,18,Woman,Right,0,13,0.4,2,0,180,180,0.44260269999995216,['y'],0.33484550000002855,1.988,699.5122627000001,,,,,555,18,Woman,Right,
,,,,,,,,,,,,,,,,,555,18,Woman,Right,0,32,0.4,1,0,-,0,1.8129826999997931,['n'],5.975076000000172,1.988,709.9955104999999,,,,,555,18,Woman,Right,
,,,,,,,,,,,,,,,,,555,18,Woman,Right,0,39,0.4,2,180,0,180,0.6690008000000489,['y'],0.4790061000003334,1.988,713.6787549999999,,,,,555,18,Woman,Right,
,,,,,,,,,,,,,,,,,555,18,Woman,Right,0,26,0.4,1,180,-,180,0.6263952000003883,['n'],1.8072763000000123,1.328,719.2286892000002,,,,,555,18,Woman,Right,
,,,,,,,,,,,,,,,,,555,18,Woman,Right,0,4,1,1,0,-,0,2.247683000000052,['n'],1.1909286999998585,2.0,726.3619653999999,,,,,555,18,Woman,Right,
,,,,,,,,,,,,,,,,,555,18,Woman,Right,0,71,0.15,2,180,0,180,0.6083376000001408,['n'],1.6469099000000824,1.362,732.2619563000003,,,,,555,18,Woman,Right,
,,,,,,,,,,,,,,,,,555,18,Woman,Right,0,8,0.4,1,0,-,0,0.3350307000000612,['y'],2.0229166999997688,1.206,738.3619103999999,,,,,555,18,Woman,Right,
,,,,,,,,,,,,,,,,,555,18,Woman,Right,0,55,0.15,2,180,0,180,1.188643399999819,['n'],1.4068303999997624,1.008,744.0952849,,,,,555,18,Woman,Right,
,,,,,,,,,,,,,,,,,555,18,Woman,Right,0,9,0.4,2,0,180,180,1.3204084999997576,['y'],4.230637399999978,2.0,753.8452557,,,,,555,18,Woman,Right,
,,,,,,,,,,,,,,,,,555,18,Woman,Right,0,28,0.4,1,0,-,0,0.6960917999999765,['n'],2.8869228000003204,1.408,760.3618552000003,,,,,555,18,Woman,Right,
,,,,,,,,,,,,,,,,,555,18,Woman,Right,0,70,0.15,1,180,-,180,0.29141859999981534,['n'],1.206799300000057,1.324,764.5784600000002,,,,,555,18,Woman,Right,
,,,,,,,,,,,,,,,,,555,18,Woman,Right,0,40,0.4,1,0,-,0,0.6528819999998632,['n'],3.9349119000003157,1.226,771.7450960000001,,,,,555,18,Woman,Right,
,,,,,,,,,,,,,,,,,555,18,Woman,Right,0,14,0.4,1,180,-,180,0.32433609999998225,['n'],1.1586400999999569,1.3639999999999999,775.7617022,,,,,555,18,Woman,Right,
,,,,,,,,,,,,,,,,,555,18,Woman,Right,0,51,0.15,2,180,0,0,0.6000037000003431,['n'],2.831234499999937,1.314,781.9449677000002,,,,,555,18,Woman,Right,
,,,,,,,,,,,,,,,,,555,18,Woman,Right,0,52,0.15,1,0,-,180,1.1538003999999091,['y'],2.478527799999938,1.35,788.6949463999999,,,,,555,18,Woman,Right,
,,,,,,,,,,,,,,,,,555,18,Woman,Right,0,48,0.15,1,0,-,0,1.1443556999997782,['n'],1.4468337000002975,1.226,794.4116183000001,,,,,555,18,Woman,Right,
,,,,,,,,,,,,,,,,,555,18,Woman,Right,0,65,0.15,2,0,180,180,1.0651173000001108,['y'],0.8069473000000471,2.0,799.5448532999999,,,,,555,18,Woman,Right,
,,,,,,,,,,,,,,,,,555,18,Woman,Right,0,38,0.4,1,180,-,180,0.7962563000000955,['n'],2.415184599999975,1.3479999999999999,805.3783068000002,,,,,555,18,Woman,Right,
,,,,,,,,,,,,,,,,,555,18,Woman,Right,0,63,0.15,2,180,0,0,0.43235079999976733,['y'],1.2391328999997313,1.984,809.8615258,,,,,555,18,Woman,Right,
,,,,,,,,,,,,,,,,,555,18,Woman,Right,1,10,0.4,1,180,-,180,0.31408739999960744,['n'],4.806691000000228,2.0,830.3948964000001,71.25,55.0,85.0,,555,18,Woman,Right,
,,,,,,,,,,,,,,,,,555,18,Woman,Right,1,5,1,2,0,180,180,1.0433314999995673,['y'],1.7350179000000026,2.0,836.0613348000002,,,,,555,18,Woman,Right,
,,,,,,,,,,,,,,,,,555,18,Woman,Right,1,65,0.15,2,0,180,180,0.4222834000001967,['y'],0.6947171000001617,2.0,839.9115802000001,,,,,555,18,Woman,Right,
,,,,,,,,,,,,,,,,,555,18,Woman,Right,1,62,0.15,1,180,-,180,1.7288063000000875,['y'],1.1907952000001387,2.0,845.2612692000002,,,,,555,18,Woman,Right,
,,,,,,,,,,,,,,,,,555,18,Woman,Right,1,60,0.15,1,0,-,0,0.8024697000000742,['y'],0.9428947000001244,2.0,849.411188,,,,,555,18,Woman,Right,
,,,,,,,,,,,,,,,,,555,18,Woman,Right,1,70,0.15,1,180,-,180,1.4348433999998633,['y'],0.5265312999999878,2.0,853.7944723999999,,,,,555,18,Woman,Right,
,,,,,,,,,,,,,,,,,555,18,Woman,Right,1,24,0.4,1,0,-,0,0.7000676000002386,['n'],3.76684350000005,1.3439999999999999,860.8113318000001,,,,,555,18,Woman,Right,
,,,,,,,,,,,,,,,,,555,18,Woman,Right,1,32,0.4,1,0,-,0,0.5139874999999847,['n'],0.8228116999998747,1.866,865.6281336000002,,,,,555,18,Woman,Right,
,,,,,,,,,,,,,,,,,555,18,Woman,Right,1,53,0.15,2,0,180,180,0.44714499999963664,['y'],0.430603599999813,2.0,869.3444039999999,,,,,555,18,Woman,Right,
,,,,,,,,,,,,,,,,,555,18,Woman,Right,1,20,0.4,1,0,-,0,0.4523294000000533,['y'],0.5746541000003162,1.3900000000000001,873.9109791999999,,,,,555,18,Woman,Right,
,,,,,,,,,,,,,,,,,555,18,Woman,Right,1,27,0.4,2,180,0,0,0.6328030999998191,['y'],0.7586535000000367,2.0,878.2278998000002,,,,,555,18,Woman,Right,
,,,,,,,,,,,,,,,,,555,18,Woman,Right,1,58,0.15,1,180,-,180,1.9871283000002222,['n'],1.1107717999998385,1.3,883.7442897999999,,,,,555,18,Woman,Right,
,,,,,,,,,,,,,,,,,555,18,Woman,Right,1,63,0.15,2,180,0,180,3.580757299999732,['y'],2.678894300000138,1.546,893.2275841999999,,,,,555,18,Woman,Right,
,,,,,,,,,,,,,,,,,555,18,Woman,Right,1,48,0.15,1,0,-,0,0.30260150000003705,['n'],0.910824699999921,1.334,897.0455333,,,,,555,18,Woman,Right,
,,,,,,,,,,,,,,,,,555,18,Woman,Right,1,16,0.4,1,0,-,0,0.440554499999962,['n'],0.8629206999999042,2.0,900.9109287000001,,,,,555,18,Woman,Right,
,,,,,,,,,,,,,,,,,555,18,Woman,Right,1,57,0.15,2,0,180,180,1.823165699999663,['y'],1.3025830000001406,2.0,906.5445471000003,,,,,555,18,Woman,Right,
,,,,,,,,,,,,,,,,,555,18,Woman,Right,1,55,0.15,2,180,0,0,1.4465222999997422,['y'],0.4706163999999262,2.0,911.0108368000001,,,,,555,18,Woman,Right,
,,,,,,,,,,,,,,,,,555,18,Woman,Right,1,51,0.15,2,180,0,0,1.7431251000002703,['y'],0.36670219999996334,2.0,915.5107335000002,,,,,555,18,Woman,Right,
,,,,,,,,,,,,,,,,,555,18,Woman,Right,1,11,0.4,2,180,0,0,2.266401599999881,['y'],0.49515169999995123,2.0,920.5607465000003,,,,,555,18,Woman,Right,
,,,,,,,,,,,,,,,,,555,18,Woman,Right,1,64,0.15,1,0,-,0,0.49907020000000557,['n'],2.503296500000033,1.98,926.8606835,,,,,555,18,Woman,Right,
,,,,,,,,,,,,,,,,,555,18,Woman,Right,1,4,1,1,0,-,0,1.2170638000002327,['n'],1.0469951000000037,1.98,931.3773108999999,,,,,555,18,Woman,Right,
,,,,,,,,,,,,,,,,,555,18,Woman,Right,1,42,0.4,1,180,-,180,1.1302394000003915,['n'],5.143097599999692,1.334,940.5439396000002,,,,,555,18,Woman,Right,
,,,,,,,,,,,,,,,,,555,18,Woman,Right,1,44,0.15,1,0,-,180,0.9426393000003372,['n'],3.0870381999998244,1.416,948.5938438000003,,,,,555,18,Woman,Right,
,,,,,,,,,,,,,,,,,555,18,Woman,Right,1,21,0.4,2,0,180,0,0.7082303000001957,['y'],1.0787795000001097,2.0,953.0607386000001,,,,,555,18,Woman,Right,
,,,,,,,,,,,,,,,,,555,18,Woman,Right,1,19,0.4,2,180,0,0,0.46258769999985816,['y'],1.6788602999999966,2.0,957.7770862000002,,,,,555,18,Woman,Right,
,,,,,,,,,,,,,,,,,555,18,Woman,Right,1,14,0.4,1,180,-,180,0.7898124000003008,['n'],0.998990899999626,1.626,962.1604252000002,,,,,555,18,Woman,Right,
,,,,,,,,,,,,,,,,,555,18,Woman,Right,1,76,0.15,1,0,-,0,0.7891947000002801,['y'],2.3908707000000504,1.766,967.8779714000002,,,,,555,18,Woman,Right,
,,,,,,,,,,,,,,,,,555,18,Woman,Right,1,17,0.4,2,0,180,180,0.480070699999942,['y'],1.4230321000000004,2.0,972.9770499000001,,,,,555,18,Woman,Right,
,,,,,,,,,,,,,,,,,555,18,Woman,Right,1,47,0.15,2,180,0,0,0.45640300000013667,['n'],1.1425764000000527,1.276,978.9936536,,,,,555,18,Woman,Right,
,,,,,,,,,,,,,,,,,555,18,Woman,Right,1,68,0.15,1,0,-,0,1.0028231000001142,['n'],1.262796900000012,1.3519999999999999,984.6102949000001,,,,,555,18,Woman,Right,
,,,,,,,,,,,,,,,,,555,18,Woman,Right,1,0,1,1,0,-,0,0.3247478999996929,['n'],0.68675630000007,2.0,988.026903,,,,,555,18,Woman,Right,
,,,,,,,,,,,,,,,,,555,18,Woman,Right,1,78,0.15,1,180,-,180,1.1287302000000636,['y'],1.4469324000001507,1.818,993.0602288999999,,,,,555,18,Woman,Right,
,,,,,,,,,,,,,,,,,555,18,Woman,Right,1,66,0.15,1,180,-,180,1.71264790000032,['y'],2.6551360000003115,1.98,1000.4935653000002,,,,,555,18,Woman,Right,
,,,,,,,,,,,,,,,,,555,18,Woman,Right,1,46,0.15,1,180,-,0,1.1433787999999367,['y'],0.7989212000002226,1.98,1004.6268448999999,,,,,555,18,Woman,Right,
,,,,,,,,,,,,,,,,,555,18,Woman,Right,1,9,0.4,2,0,180,180,1.2374581999997645,['y'],0.6309167999997953,1.982,1008.6101168999999,,,,,555,18,Woman,Right,
,,,,,,,,,,,,,,,,,555,18,Woman,Right,1,13,0.4,2,0,180,180,1.3235469999999623,['y'],0.5829329000002872,1.986,1012.8267596000001,,,,,555,18,Woman,Right,
,,,,,,,,,,,,,,,,,555,18,Woman,Right,1,73,0.15,2,0,180,180,1.7941619999996874,['y'],0.33526879999999437,1.986,1017.1603610000002,,,,,555,18,Woman,Right,
,,,,,,,,,,,,,,,,,555,18,Woman,Right,1,43,0.4,2,180,0,0,0.4693181999996341,['y'],0.574605899999824,1.986,1020.4102817000003,,,,,555,18,Woman,Right,
,,,,,,,,,,,,,,,,,555,18,Woman,Right,1,6,1,1,180,-,180,0.7867168999996466,['n'],0.6629207000000861,1.986,1024.2766629000002,,,,,555,18,Woman,Right,
,,,,,,,,,,,,,,,,,555,18,Woman,Right,1,67,0.15,2,180,0,0,1.6309142000000065,['y'],0.3752073999999084,1.986,1028.5100926,,,,,555,18,Woman,Right,
,,,,,,,,,,,,,,,,,555,18,Woman,Right,1,28,0.4,1,0,-,0,0.9832757999997739,['n'],1.3525268000003052,1.85,1033.8933492,,,,,555,18,Woman,Right,
,,,,,,,,,,,,,,,,,555,18,Woman,Right,1,56,0.15,1,0,-,180,1.2039162999999462,['y'],0.5667896999998447,1.98,1038.1600231000002,,,,,555,18,Woman,Right,
,,,,,,,,,,,,,,,,,555,18,Woman,Right,1,79,0.15,2,180,0,0,0.7168314000000464,['y'],0.5041516000001138,1.98,1041.5764897,,,,,555,18,Woman,Right,
,,,,,,,,,,,,,,,,,555,18,Woman,Right,1,50,0.15,1,180,-,0,3.313563400000021,['n'],0.9349665999998251,1.376,1049.2598731000003,,,,,555,18,Woman,Right,
,,,,,,,,,,,,,,,,,555,18,Woman,Right,1,36,0.4,1,0,-,0,0.3234557999999197,['n'],0.7187777000003734,1.8679999999999999,1053.2600272,,,,,555,18,Woman,Right,
,,,,,,,,,,,,,,,,,555,18,Woman,Right,1,40,0.4,1,0,-,0,0.4080890999998701,['y'],0.7905688000000737,1.8860000000000001,1058.9933566,,,,,555,18,Woman,Right,
,,,,,,,,,,,,,,,,,555,18,Woman,Right,1,61,0.15,2,0,180,0,1.5893992999999682,['n'],1.2465272999997978,1.748,1064.9597259000002,,,,,555,18,Woman,Right,
,,,,,,,,,,,,,,,,,555,18,Woman,Right,1,45,0.15,2,0,180,0,0.7604867999998532,['n'],2.199062299999696,1.306,1071.0263221,,,,,555,18,Woman,Right,
,,,,,,,,,,,,,,,,,555,18,Woman,Right,1,37,0.4,2,0,180,180,0.6001105999998799,['y'],1.0946144999998069,2.0,1075.6763346000002,,,,,555,18,Woman,Right,
,,,,,,,,,,,,,,,,,555,18,Woman,Right,1,7,1,2,180,0,0,0.43679140000040206,['y'],0.6548415000002024,2.0,1079.2931755,,,,,555,18,Woman,Right,
,,,,,,,,,,,,,,,,,555,18,Woman,Right,1,26,0.4,1,180,-,0,0.4073225000001912,['y'],0.35065169999961654,2.0,1082.4929602000002,,,,,555,18,Woman,Right,
,,,,,,,,,,,,,,,,,555,18,Woman,Right,1,54,0.15,1,180,-,180,0.510638199999903,['y'],0.39082490000009784,2.0,1085.659607,,,,,555,18,Woman,Right,
,,,,,,,,,,,,,,,,,555,18,Woman,Right,1,31,0.4,2,180,0,0,1.0259777999999642,['y'],0.2869482999999491,2.0,1089.1605310999998,,,,,555,18,Woman,Right,
,,,,,,,,,,,,,,,,,555,18,Woman,Right,1,38,0.4,1,180,-,0,0.6538762999998653,['y'],0.25501459999986764,2.0,1092.3095318,,,,,555,18,Woman,Right,
,,,,,,,,,,,,,,,,,555,18,Woman,Right,1,2,1,1,180,-,180,1.0500113999996756,['n'],1.1002281999999468,2.0,1097.0095575,,,,,555,18,Woman,Right,
,,,,,,,,,,,,,,,,,555,18,Woman,Right,1,39,0.4,2,180,0,0,0.816524699999718,['y'],0.3416910999999345,2.0,1100.6428378,,,,,555,18,Woman,Right,
,,,,,,,,,,,,,,,,,555,18,Woman,Right,1,22,0.4,1,180,-,180,0.4807436000000962,['y'],0.36689650000016627,2.0,1103.7603358000001,,,,,555,18,Woman,Right,
,,,,,,,,,,,,,,,,,555,18,Woman,Right,1,75,0.15,2,180,0,0,0.6613393999996333,['n'],1.9592408999997133,2.0,1108.8096458,,,,,555,18,Woman,Right,
,,,,,,,,,,,,,,,,,555,18,Woman,Right,1,59,0.15,2,180,0,0,1.5000068999997893,['y'],0.7349031999997351,2.0,1113.3760241,,,,,555,18,Woman,Right,
,,,,,,,,,,,,,,,,,555,18,Woman,Right,1,35,0.4,2,180,0,0,0.8309959000002891,['y'],0.25474789999998393,2.0,1116.6096993,,,,,555,18,Woman,Right,
,,,,,,,,,,,,,,,,,555,18,Woman,Right,1,33,0.4,2,0,180,180,0.7024131999996825,['y'],0.26287279999996827,2.0,1119.6760674000002,,,,,555,18,Woman,Right,
,,,,,,,,,,,,,,,,,555,18,Woman,Right,1,12,0.4,1,0,-,0,2.2583558000001176,['n'],0.8547416000001249,1.8679999999999999,1125.6260451000003,,,,,555,18,Woman,Right,
,,,,,,,,,,,,,,,,,555,18,Woman,Right,1,74,0.15,1,180,-,180,0.7399003000000448,['y'],2.2146256999999423,1.3399999999999999,1131.3093172,,,,,555,18,Woman,Right,
,,,,,,,,,,,,,,,,,555,18,Woman,Right,1,49,0.15,2,0,180,180,0.42526930000030916,['y'],0.42278259999966394,1.986,1134.8093930999999,,,,,555,18,Woman,Right,
,,,,,,,,,,,,,,,,,555,18,Woman,Right,1,69,0.15,2,0,180,180,0.48476709999977174,['y'],0.246982300000127,1.986,1137.6759556000002,,,,,555,18,Woman,Right,
,,,,,,,,,,,,,,,,,555,18,Woman,Right,1,15,0.4,2,180,0,0,0.4355542999996942,['y'],0.2233008999996855,1.986,1140.4927161,,,,,555,18,Woman,Right,
,,,,,,,,,,,,,,,,,555,18,Woman,Right,1,23,0.4,2,180,0,0,0.3487772999997105,['y'],0.22294009999995978,1.986,1143.3596539999999,,,,,555,18,Woman,Right,
,,,,,,,,,,,,,,,,,555,18,Woman,Right,1,52,0.15,1,0,-,180,0.39781230000016876,['y'],0.19880190000003495,1.986,1146.1425684,,,,,555,18,Woman,Right,
,,,,,,,,,,,,,,,,,555,18,Woman,Right,1,34,0.4,1,180,-,180,1.24763269999994,['n'],1.7509867999997368,1.5939999999999999,1152.1758259000003,,,,,555,18,Woman,Right,
,,,,,,,,,,,,,,,,,555,18,Woman,Right,1,77,0.15,2,0,180,180,1.1051413999998658,['y'],0.27138679999961823,2.0,1156.4425716,,,,,555,18,Woman,Right,
,,,,,,,,,,,,,,,,,555,18,Woman,Right,1,18,0.4,1,180,-,180,0.46669880000035846,['y'],0.2546108000001368,2.0,1159.8591234,,,,,555,18,Woman,Right,
,,,,,,,,,,,,,,,,,555,18,Woman,Right,1,25,0.4,2,0,180,180,0.17686789999970642,['y'],0.25496419999990394,2.0,1162.4093028000002,,,,,555,18,Woman,Right,
,,,,,,,,,,,,,,,,,555,18,Woman,Right,1,30,0.4,1,180,-,180,0.562269500000184,['n'],0.5351454000001468,1.788,1166.1266706000001,,,,,555,18,Woman,Right,
,,,,,,,,,,,,,,,,,555,18,Woman,Right,1,41,0.4,2,0,180,180,0.2709697000000233,['y'],0.21477150000009715,2.0,1168.7592703,,,,,555,18,Woman,Right,
,,,,,,,,,,,,,,,,,555,18,Woman,Right,1,29,0.4,2,0,180,180,0.21376039999995555,['y'],0.1990421000000424,2.0,1171.3092222999999,,,,,555,18,Woman,Right,
,,,,,,,,,,,,,,,,,555,18,Woman,Right,1,1,1,2,0,180,180,0.1851237000000765,['y'],0.2233289999999215,2.0,1173.8090889999999,,,,,555,18,Woman,Right,
,,,,,,,,,,,,,,,,,555,18,Woman,Right,1,71,0.15,2,180,0,180,2.492392799999834,['n'],1.35115020000012,1.626,1180.2757377000003,,,,,555,18,Woman,Right,
,,,,,,,,,,,,,,,,,555,18,Woman,Right,1,8,0.4,1,0,-,0,0.46467789999996967,['y'],0.23056529999985287,2.0,1184.2922836000002,,,,,555,18,Woman,Right,
,,,,,,,,,,,,,,,,,555,18,Woman,Right,1,3,1,2,180,0,0,0.36256049999974493,['y'],0.21494380000012825,2.0,1186.9257889,,,,,555,18,Woman,Right,
,,,,,,,,,,,,,,,,,555,18,Woman,Right,1,72,0.15,1,0,-,180,1.5594137999996747,['y'],2.582509100000152,1.624,1193.5421535,,,,,555,18,Woman,Right,
,,,,,,,,,,,,,,,,,555,18,Woman,Right,2,14,0.4,1,180,-,180,0.9167780999996467,['y'],0.24661060000016732,1.6320000000000001,1205.8921507999999,83.75,52.5,87.5,,555,18,Woman,Right,
,,,,,,,,,,,,,,,,,555,18,Woman,Right,2,53,0.15,2,0,180,180,0.3841768000002048,['y'],0.2228528999999071,1.978,1208.842165,,,,,555,18,Woman,Right,
,,,,,,,,,,,,,,,,,555,18,Woman,Right,2,34,0.4,1,180,-,180,0.9102831000000151,['y'],0.26262080000014976,2.0,1212.7420199000003,,,,,555,18,Woman,Right,
,,,,,,,,,,,,,,,,,555,18,Woman,Right,2,26,0.4,1,180,-,180,0.5255673999999999,['n'],8.494672700000137,1.6560000000000001,1225.3089237,,,,,555,18,Woman,Right,
,,,,,,,,,,,,,,,,,555,18,Woman,Right,2,15,0.4,2,180,0,0,0.15765970000029483,['y'],0.30255810000016936,2.0,1228.3419948,,,,,555,18,Woman,Right,
,,,,,,,,,,,,,,,,,555,18,Woman,Right,2,48,0.15,1,0,-,0,2.391973499999949,['y'],0.4949274999999034,2.0,1233.5090476999999,,,,,555,18,Woman,Right,
,,,,,,,,,,,,,,,,,555,18,Woman,Right,2,46,0.15,1,180,-,0,0.33599899999990157,['y'],0.21494200000006458,2.0,1236.1921373,,,,,555,18,Woman,Right,
,,,,,,,,,,,,,,,,,555,18,Woman,Right,2,56,0.15,1,0,-,180,0.7180327000000943,['y'],0.23896400000012363,2.0,1239.4252655999999,,,,,555,18,Woman,Right,
,,,,,,,,,,,,,,,,,555,18,Woman,Right,2,45,0.15,2,0,180,180,0.4688106000003245,['y'],0.1828008000002228,2.0,1242.1418308000002,,,,,555,18,Woman,Right,
,,,,,,,,,,,,,,,,,555,18,Woman,Right,2,69,0.15,2,0,180,180,0.33007369999995717,['y'],0.22291589999986172,2.0,1244.7418472,,,,,555,18,Woman,Right,
,,,,,,,,,,,,,,,,,555,18,Woman,Right,2,51,0.15,2,180,0,0,1.3376671000000897,['y'],0.19866230000025098,2.0,1248.3584512000002,,,,,555,18,Woman,Right,
,,,,,,,,,,,,,,,,,555,18,Woman,Right,2,76,0.15,1,0,-,0,0.6167717999996967,['n'],0.902823900000385,1.8860000000000001,1252.8752427,,,,,555,18,Woman,Right,
,,,,,,,,,,,,,,,,,555,18,Woman,Right,2,77,0.15,2,0,180,180,0.5005860000001121,['y'],0.27864469999985886,1.978,1256.2587072000001,,,,,555,18,Woman,Right,
,,,,,,,,,,,,,,,,,555,18,Woman,Right,2,8,0.4,1,0,-,0,1.5805916999997862,['n'],0.6950539999998,1.978,1261.4250331000003,,,,,555,18,Woman,Right,
,,,,,,,,,,,,,,,,,555,18,Woman,Right,2,10,0.4,1,180,-,180,0.7476009000001795,['y'],0.31116089999977703,1.978,1266.5251229,,,,,555,18,Woman,Right,
,,,,,,,,,,,,,,,,,555,18,Woman,Right,2,41,0.4,2,0,180,0,1.4024349000001166,['y'],1.5670512000001509,2.0,1272.3250831,,,,,555,18,Woman,Right,
,,,,,,,,,,,,,,,,,555,18,Woman,Right,2,72,0.15,1,0,-,180,1.3590493000001516,['y'],0.32683680000036475,1.998,1276.3751299,,,,,555,18,Woman,Right,
,,,,,,,,,,,,,,,,,555,18,Woman,Right,2,0,1,1,0,-,0,0.40846349999992526,['n'],0.7989622999998574,1.992,1279.8916628000002,,,,,555,18,Woman,Right,
,,,,,,,,,,,,,,,,,555,18,Woman,Right,2,32,0.4,1,0,-,180,1.433576599999924,['y'],0.8477715999997599,1.99,1284.4583587000002,,,,,555,18,Woman,Right,
,,,,,,,,,,,,,,,,,555,18,Woman,Right,2,63,0.15,2,180,0,0,0.6031143000000156,['y'],0.3507392000001346,1.99,1287.6252075000002,,,,,555,18,Woman,Right,
,,,,,,,,,,,,,,,,,555,18,Woman,Right,2,47,0.15,2,180,0,0,0.47110060000022713,['y'],0.2790620000000672,1.99,1290.4582487000002,,,,,555,18,Woman,Right,
,,,,,,,,,,,,,,,,,555,18,Woman,Right,2,73,0.15,2,0,180,0,2.356352699999661,['y'],0.3188629999999648,1.99,1295.2917873000001,,,,,555,18,Woman,Right,
,,,,,,,,,,,,,,,,,555,18,Woman,Right,2,31,0.4,2,180,0,0,0.3317816999997376,['y'],0.2716292000000067,1.99,1297.9582675000001,,,,,555,18,Woman,Right,
,,,,,,,,,,,,,,,,,555,18,Woman,Right,2,25,0.4,2,0,180,180,0.7771391999999651,['y'],0.36687750000010055,1.99,1301.2582604,,,,,555,18,Woman,Right,
,,,,,,,,,,,,,,,,,555,18,Woman,Right,2,4,1,1,0,-,0,0.7569714999999633,['n'],1.0629620999998224,1.99,1305.2750438000003,,,,,555,18,Woman,Right,
,,,,,,,,,,,,,,,,,555,18,Woman,Right,2,52,0.15,1,0,-,180,1.7671226000002207,['y'],0.7591643000000659,1.99,1309.8415504,,,,,555,18,Woman,Right,
,,,,,,,,,,,,,,,,,555,18,Woman,Right,2,35,0.4,2,180,0,0,0.6312254999998004,['y'],0.5348116999998638,1.99,1313.1082007,,,,,555,18,Woman,Right,
,,,,,,,,,,,,,,,,,555,18,Woman,Right,2,79,0.15,2,180,0,0,0.6033824999999524,['y'],0.223280899999736,1.99,1316.0248112,,,,,555,18,Woman,Right,
,,,,,,,,,,,,,,,,,555,18,Woman,Right,2,29,0.4,2,0,180,180,0.45390439999982846,['y'],0.25517960000024686,1.99,1318.8750408,,,,,555,18,Woman,Right,
,,,,,,,,,,,,,,,,,555,18,Woman,Right,2,23,0.4,2,180,0,0,0.2859475999998722,['y'],0.2151561999999103,1.99,1321.4580841000002,,,,,555,18,Woman,Right,
,,,,,,,,,,,,,,,,,555,18,Woman,Right,2,12,0.4,1,0,-,0,0.508472200000142,['n'],0.6790036000002146,1.99,1325.2246725999998,,,,,555,18,Woman,Right,
,,,,,,,,,,,,,,,,,555,18,Woman,Right,2,18,0.4,1,180,-,180,0.4872639000000163,['n'],2.335033900000326,1.392,1331.6913195000002,,,,,555,18,Woman,Right,
,,,,,,,,,,,,,,,,,555,18,Woman,Right,2,57,0.15,2,0,180,0,0.6808124999997744,['n'],0.8230012999997598,1.3679999999999999,1336.3413423000002,,,,,555,18,Woman,Right,
,,,,,,,,,,,,,,,,,555,18,Woman,Right,2,11,0.4,2,180,0,0,0.1959234999999353,['y'],1.1905237000000852,2.0,1340.5246203000002,,,,,555,18,Woman,Right,
,,,,,,,,,,,,,,,,,555,18,Woman,Right,2,58,0.15,1,180,-,0,2.5382161999996242,['y'],3.062966000000415,1.55,1348.8079017,,,,,555,18,Woman,Right,
,,,,,,,,,,,,,,,,,555,18,Woman,Right,2,17,0.4,2,0,180,180,0.3101802000001044,['y'],0.7028307999999015,2.0,1352.0747459,,,,,555,18,Woman,Right,
,,,,,,,,,,,,,,,,,555,18,Woman,Right,2,39,0.4,2,180,0,0,0.992962400000124,['y'],0.47074979999979405,2.0,1355.7245022000002,,,,,555,18,Woman,Right,
,,,,,,,,,,,,,,,,,555,18,Woman,Right,2,5,1,2,0,180,180,0.838777299999947,['y'],0.23960639999995692,2.0,1358.9411721000001,,,,,555,18,Woman,Right,
,,,,,,,,,,,,,,,,,555,18,Woman,Right,2,71,0.15,2,180,0,180,2.179456500000015,['y'],0.1911580999999387,2.0,1363.2746682000002,,,,,555,18,Woman,Right,
,,,,,,,,,,,,,,,,,555,18,Woman,Right,2,44,0.15,1,0,-,0,4.190816299999824,['y'],3.503297300000213,1.408,1374.1243896,,,,,555,18,Woman,Right,
,,,,,,,,,,,,,,,,,555,18,Woman,Right,2,20,0.4,1,0,-,0,0.38646380000000136,['n'],0.838868100000127,1.99,1377.5410557999999,,,,,555,18,Woman,Right,
,,,,,,,,,,,,,,,,,555,18,Woman,Right,2,62,0.15,1,180,-,180,1.8116336999996747,['n'],1.470938699999806,1.42,1383.9075545,,,,,555,18,Woman,Right,
,,,,,,,,,,,,,,,,,555,18,Woman,Right,2,68,0.15,1,0,-,180,0.4304783999996289,['y'],2.126955100000032,2.0,1388.9910186000002,,,,,555,18,Woman,Right,
,,,,,,,,,,,,,,,,,555,18,Woman,Right,2,70,0.15,1,180,-,180,1.102093199999672,['y'],1.6549558000001525,1.5779999999999998,1394.2075087000003,,,,,555,18,Woman,Right,
,,,,,,,,,,,,,,,,,555,18,Woman,Right,2,13,0.4,2,0,180,180,0.633295999999973,['y'],0.2872268000000986,2.0,1397.5574534000002,,,,,555,18,Woman,Right,
,,,,,,,,,,,,,,,,,555,18,Woman,Right,2,30,0.4,1,180,-,180,0.5671400999999605,['y'],0.29499349999969127,1.314,1402.1742037,,,,,555,18,Woman,Right,
,,,,,,,,,,,,,,,,,555,18,Woman,Right,2,60,0.15,1,0,-,0,1.0833130000000892,['y'],1.4227224000001115,1.6139999999999999,1407.1740951000002,,,,,555,18,Woman,Right,
,,,,,,,,,,,,,,,,,555,18,Woman,Right,2,54,0.15,1,180,-,0,1.0651915999997073,['y'],1.6628084000003582,1.654,1412.3908469000003,,,,,555,18,Woman,Right,
,,,,,,,,,,,,,,,,,555,18,Woman,Right,2,36,0.4,1,0,-,0,1.430898900000102,['n'],0.9743231000002197,1.8980000000000001,1417.5242861000002,,,,,555,18,Woman,Right,
,,,,,,,,,,,,,,,,,555,18,Woman,Right,2,59,0.15,2,180,0,0,1.5231514999995852,['y'],1.1989262000001872,2.0,1422.5409491,,,,,555,18,Woman,Right,
,,,,,,,,,,,,,,,,,555,18,Woman,Right,2,28,0.4,1,0,-,0,0.5860637999999199,['n'],1.0228415000001405,1.74,1427.3073896,,,,,555,18,Woman,Right,
,,,,,,,,,,,,,,,,,555,18,Woman,Right,2,78,0.15,1,180,-,180,0.34463300000015806,['n'],2.1188113000002886,1.3679999999999999,1432.3252982,,,,,555,18,Woman,Right,
,,,,,,,,,,,,,,,,,555,18,Woman,Right,2,75,0.15,2,180,0,0,0.9975343999999495,['y'],0.8069795999999769,1.978,1436.3242291000001,,,,,555,18,Woman,Right,
,,,,,,,,,,,,,,,,,555,18,Woman,Right,2,49,0.15,2,0,180,180,0.3766881999999896,['y'],0.3351449000001594,1.99,1439.2907111,,,,,555,18,Woman,Right,
,,,,,,,,,,,,,,,,,555,18,Woman,Right,2,7,1,2,180,0,0,2.7227438999998412,['y'],0.287091799999871,2.0,1444.5073091,,,,,555,18,Woman,Right,
,,,,,,,,,,,,,,,,,555,18,Woman,Right,2,50,0.15,1,180,-,0,1.8114000000000487,['y'],0.2151610000000801,2.0,1448.623967,,,,,555,18,Woman,Right,
,,,,,,,,,,,,,,,,,555,18,Woman,Right,2,16,0.4,1,0,-,0,0.9099012000001494,['n'],0.9909472999997888,1.912,1453.6572582,,,,,555,18,Woman,Right,
,,,,,,,,,,,,,,,,,555,18,Woman,Right,2,2,1,1,180,-,180,0.33329900000035195,['y'],0.5030011999997441,1.0,1458.1571522,,,,,555,18,Woman,Right,
,,,,,,,,,,,,,,,,,555,18,Woman,Right,2,3,1,2,180,0,0,0.3604574999999386,['y'],1.1825309999999263,2.0,1462.5405275000003,,,,,555,18,Woman,Right,
,,,,,,,,,,,,,,,,,555,18,Woman,Right,2,74,0.15,1,180,-,180,0.6641407000001891,['n'],1.0949038000003384,1.328,1467.4403793000001,,,,,555,18,Woman,Right,
,,,,,,,,,,,,,,,,,555,18,Woman,Right,2,6,1,1,180,-,180,0.24918120000029376,['n'],0.7505844000002071,2.0,1471.2905354,,,,,555,18,Woman,Right,
,,,,,,,,,,,,,,,,,555,18,Woman,Right,2,19,0.4,2,180,0,0,1.2513834000001225,['y'],0.9030622000000221,2.0,1475.7070625000001,,,,,555,18,Woman,Right,
,,,,,,,,,,,,,,,,,555,18,Woman,Right,2,24,0.4,1,0,-,0,0.6264118999997663,['n'],1.0627383000000918,1.366,1481.6069721,,,,,555,18,Woman,Right,
,,,,,,,,,,,,,,,,,555,18,Woman,Right,2,55,0.15,2,180,0,0,3.199879199999941,['y'],0.4786607000000913,1.98,1487.4402994000002,,,,,555,18,Woman,Right,
,,,,,,,,,,,,,,,,,555,18,Woman,Right,2,42,0.4,1,180,-,180,0.4528893000001517,['n'],1.5351064999999835,1.6400000000000001,1492.3403475,,,,,555,18,Woman,Right,
,,,,,,,,,,,,,,,,,555,18,Woman,Right,2,43,0.4,2,180,0,0,0.5791085000000749,['y'],1.3268920999998954,2.0,1497.3568792,,,,,555,18,Woman,Right,
,,,,,,,,,,,,,,,,,555,18,Woman,Right,2,21,0.4,2,0,180,180,0.6959212000001571,['y'],0.32683999999972,2.0,1500.9902897000002,,,,,555,18,Woman,Right,
,,,,,,,,,,,,,,,,,555,18,Woman,Right,2,64,0.15,1,0,-,0,1.5987855000003037,['y'],0.21489370000017516,2.0,1504.9911326000001,,,,,555,18,Woman,Right,
,,,,,,,,,,,,,,,,,555,18,Woman,Right,2,1,1,2,0,180,180,0.9990022000001773,['y'],0.28677060000018173,2.0,1508.3901881000002,,,,,555,18,Woman,Right,
,,,,,,,,,,,,,,,,,555,18,Woman,Right,2,27,0.4,2,180,0,0,0.24899299999970026,['y'],0.1829170000000886,2.0,1510.8234975999999,,,,,555,18,Woman,Right,
,,,,,,,,,,,,,,,,,555,18,Woman,Right,2,65,0.15,2,0,180,180,0.750108100000034,['y'],0.13855530000000726,2.0,1513.7234585,,,,,555,18,Woman,Right,
,,,,,,,,,,,,,,,,,555,18,Woman,Right,2,33,0.4,2,0,180,180,0.22236459999976432,['y'],0.15923530000009123,2.0,1516.0735124000003,,,,,555,18,Woman,Right,
,,,,,,,,,,,,,,,,,555,18,Woman,Right,2,37,0.4,2,0,180,180,0.6708231999996315,['y'],2.079051199999867,2.0,1520.8067607000003,,,,,555,18,Woman,Right,
,,,,,,,,,,,,,,,,,555,18,Woman,Right,2,61,0.15,2,0,180,180,1.7833694000000833,['y'],0.15934310000011465,2.0,1524.7899749000003,,,,,555,18,Woman,Right,
,,,,,,,,,,,,,,,,,555,18,Woman,Right,2,38,0.4,1,180,-,180,0.3637237000002642,['y'],0.1589020999999775,2.0,1527.2733723000001,,,,,555,18,Woman,Right,
,,,,,,,,,,,,,,,,,555,18,Woman,Right,2,40,0.4,1,0,-,180,2.7437354000003324,['y'],0.2628935999996429,2.0,1532.3567174,,,,,555,18,Woman,Right,
,,,,,,,,,,,,,,,,,555,18,Woman,Right,2,67,0.15,2,180,0,0,1.0185390999999981,['n'],2.4388779000000795,2.0,1538.4234059999999,,,,,555,18,Woman,Right,
,,,,,,,,,,,,,,,,,555,18,Woman,Right,2,9,0.4,2,0,180,180,0.2759903999999551,['y'],0.19914999999991778,2.0,1540.9898682000003,,,,,555,18,Woman,Right,
,,,,,,,,,,,,,,,,,555,18,Woman,Right,2,66,0.15,1,180,-,180,0.8011916000000383,['y'],3.359363900000062,1.642,1548.2064697,,,,,555,18,Woman,Right,
,,,,,,,,,,,,,,,,,555,18,Woman,Right,2,22,0.4,1,180,-,180,0.6088564000001497,['n'],1.4626726999999846,1.642,1548.2064697,,,,,555,18,Woman,Right,
,,,,,,,,,,,,,,,,,555,18,Woman,Right,3,28,0.4,1,0,-,0,0.30865240000002814,['n'],2.191189000000122,1.992,1572.8398845000002,82.5,45.0,95.0,,555,18,Woman,Right,
,,,,,,,,,,,,,,,,,555,18,Woman,Right,3,49,0.15,2,0,180,180,0.41268970000010086,['y'],1.2071420000002036,1.992,1576.8731321999999,,,,,555,18,Woman,Right,
,,,,,,,,,,,,,,,,,555,18,Woman,Right,3,47,0.15,2,180,0,0,0.7011808999995992,['n'],1.6710061999997379,1.992,1581.5729734000001,,,,,555,18,Woman,Right,
,,,,,,,,,,,,,,,,,555,18,Woman,Right,3,62,0.15,1,180,-,0,3.792070099999819,['y'],0.3828795999997965,1.992,1588.1397987,,,,,555,18,Woman,Right,
,,,,,,,,,,,,,,,,,555,18,Woman,Right,3,27,0.4,2,180,0,0,3.9434128999996574,['y'],0.5589007000003221,1.992,1595.0729022,,,,,555,18,Woman,Right,
,,,,,,,,,,,,,,,,,555,18,Woman,Right,3,73,0.15,2,0,180,180,1.3858000999998694,['y'],0.8309457999998813,1.992,1599.6562172,,,,,555,18,Woman,Right,
,,,,,,,,,,,,,,,,,555,18,Woman,Right,3,20,0.4,1,0,-,0,0.4588691999997536,['y'],0.7913757000001169,1.242,1604.6728208,,,,,555,18,Woman,Right,
,,,,,,,,,,,,,,,,,555,18,Woman,Right,3,58,0.15,1,180,-,180,1.2503561000003174,['n'],1.2789316000003055,1.43,1610.3236820000002,,,,,555,18,Woman,Right,
,,,,,,,,,,,,,,,,,555,18,Woman,Right,3,40,0.4,1,0,-,0,0.4140527999998085,['n'],1.7026621999998497,1.994,1615.4727745,,,,,555,18,Woman,Right,
,,,,,,,,,,,,,,,,,555,18,Woman,Right,3,34,0.4,1,180,-,180,1.0624911999998403,['n'],1.214849299999969,1.99,1620.4060807,,,,,555,18,Woman,Right,
,,,,,,,,,,,,,,,,,555,18,Woman,Right,3,70,0.15,1,180,-,180,1.7369778000002043,['y'],1.9109063000000788,1.616,1627.1560392000001,,,,,555,18,Woman,Right,
,,,,,,,,,,,,,,,,,555,18,Woman,Right,3,12,0.4,1,0,-,0,0.9537005000001955,['n'],3.110670999999911,1.992,1634.0059096999998,,,,,555,18,Woman,Right,
,,,,,,,,,,,,,,,,,555,18,Woman,Right,3,44,0.15,1,0,-,0,1.5009218999998666,['n'],2.1665681999998014,1.992,1641.5726503,,,,,555,18,Woman,Right,
,,,,,,,,,,,,,,,,,555,18,Woman,Right,3,38,0.4,1,180,-,180,0.863881599999786,['y'],1.3670798999996805,1.624,1647.1558579000002,,,,,555,18,Woman,Right,
,,,,,,,,,,,,,,,,,555,18,Woman,Right,3,68,0.15,1,0,-,0,1.7112809999998717,['y'],0.3666356000003361,1.83,1652.3725250000002,,,,,555,18,Woman,Right,
,,,,,,,,,,,,,,,,,555,18,Woman,Right,3,25,0.4,2,0,180,180,0.7834240000001955,['y'],0.5025395999996363,2.0,1656.2558419000002,,,,,555,18,Woman,Right,
,,,,,,,,,,,,,,,,,555,18,Woman,Right,3,61,0.15,2,0,180,180,1.557591599999796,['y'],0.2945205999999416,2.0,1660.2226977,,,,,555,18,Woman,Right,
,,,,,,,,,,,,,,,,,555,18,Woman,Right,3,24,0.4,1,0,-,0,0.3619404000000941,['n'],0.9748652000002949,1.974,1664.3225532000001,,,,,555,18,Woman,Right,
,,,,,,,,,,,,,,,,,555,18,Woman,Right,3,78,0.15,1,180,-,0,1.066015200000038,['n'],1.8233099999997648,1.584,1670.1890797,,,,,555,18,Woman,Right,
,,,,,,,,,,,,,,,,,555,18,Woman,Right,3,77,0.15,2,0,180,180,0.6588843999998062,['y'],1.5026625000000422,2.0,1674.9726812,,,,,555,18,Woman,Right,
,,,,,,,,,,,,,,,,,555,18,Woman,Right,3,33,0.4,2,0,180,180,0.2777772000004006,['y'],0.23079580000012356,2.0,1677.6723301000002,,,,,555,18,Woman,Right,
,,,,,,,,,,,,,,,,,555,18,Woman,Right,3,1,1,2,0,180,180,0.9180375999999342,['y'],0.19884159999992335,2.0,1680.8390558,,,,,555,18,Woman,Right,
,,,,,,,,,,,,,,,,,555,18,Woman,Right,3,39,0.4,2,180,0,0,0.5614640000003419,['y'],0.20679250000011962,2.0,1683.5889536,,,,,555,18,Woman,Right,
,,,,,,,,,,,,,,,,,555,18,Woman,Right,3,19,0.4,2,180,0,0,2.388657399999829,['y'],0.23884610000004614,2.0,1688.2392115000002,,,,,555,18,Woman,Right,
,,,,,,,,,,,,,,,,,555,18,Woman,Right,3,22,0.4,1,180,-,180,0.6046234000000368,['n'],0.7509217000001627,1.998,1693.8889044000002,,,,,555,18,Woman,Right,
,,,,,,,,,,,,,,,,,555,18,Woman,Right,3,57,0.15,2,0,180,180,1.4745434000001296,['y'],0.19845329999998285,2.0,1697.6390623000002,,,,,555,18,Woman,Right,
,,,,,,,,,,,,,,,,,555,18,Woman,Right,3,15,0.4,2,180,0,0,0.6161146999997982,['y'],0.20706199999995079,2.0,1700.6722733000001,,,,,555,18,Woman,Right,
,,,,,,,,,,,,,,,,,555,18,Woman,Right,3,16,0.4,1,0,-,0,0.5667037999996865,['n'],1.7291402999999264,2.0,1705.4721888,,,,,555,18,Woman,Right,
,,,,,,,,,,,,,,,,,555,18,Woman,Right,3,37,0.4,2,0,180,180,0.4054636999999275,['y'],0.1990273999999772,2.0,1708.1557026,,,,,555,18,Woman,Right,
,,,,,,,,,,,,,,,,,555,18,Woman,Right,3,79,0.15,2,180,0,0,3.748819999999796,['n'],2.038823400000183,1.794,1716.2720929000002,,,,,555,18,Woman,Right,
,,,,,,,,,,,,,,,,,555,18,Woman,Right,3,10,0.4,1,180,-,180,0.9904649999998583,['n'],1.2472470000002431,1.814,1721.6721287999999,,,,,555,18,Woman,Right,
,,,,,,,,,,,,,,,,,555,18,Woman,Right,3,8,0.4,1,0,-,0,0.8028518999999505,['n'],2.582955399999719,1.84,1727.7887225,,,,,555,18,Woman,Right,
,,,,,,,,,,,,,,,,,555,18,Woman,Right,3,29,0.4,2,0,180,180,0.48212370000010196,['y'],1.5910745000001043,2.0,1732.5719287000002,,,,,555,18,Woman,Right,
,,,,,,,,,,,,,,,,,555,18,Woman,Right,3,65,0.15,2,0,180,180,1.177636800000073,['y'],0.4950595999998768,1.904,1737.3723976,,,,,555,18,Woman,Right,
,,,,,,,,,,,,,,,,,555,18,Woman,Right,3,26,0.4,1,180,-,180,0.8561359000000266,['n'],1.1989879999996447,1.904,1737.3723976,,,,,555,18,Woman,Right,
,,,,,,,,,,,,,,,,,555,18,Woman,Right,3,74,0.15,1,180,-,180,0.27797240000018064,['n'],1.637940399999934,1.608,1749.5718519000002,,,,,555,18,Woman,Right,
,,,,,,,,,,,,,,,,,555,18,Woman,Right,3,48,0.15,1,0,-,0,1.1833050000000185,['n'],1.1039448999999877,1.608,1754.3055139000003,,,,,555,18,Woman,Right,
,,,,,,,,,,,,,,,,,555,18,Woman,Right,3,5,1,2,0,180,180,0.36031690000027083,['y'],0.294872899999973,1.99,1757.4386998999998,,,,,555,18,Woman,Right,
,,,,,,,,,,,,,,,,,555,18,Woman,Right,3,36,0.4,1,0,-,0,0.3291951999999583,['n'],1.2150187999995978,2.0,1762.3717957,,,,,555,18,Woman,Right,
,,,,,,,,,,,,,,,,,555,18,Woman,Right,3,7,1,2,180,0,180,0.34311220000017784,['n'],2.9030288000003566,1.174,1770.0892778000002,,,,,555,18,Woman,Right,
,,,,,,,,,,,,,,,,,555,18,Woman,Right,3,4,1,1,0,-,0,0.5055226999998013,['n'],0.838564099999985,2.0,1775.2884422000002,,,,,555,18,Woman,Right,
,,,,,,,,,,,,,,,,,555,18,Woman,Right,3,66,0.15,1,180,-,180,2.356053200000133,['n'],2.5512963000001037,1.29,1782.9219154000002,,,,,555,18,Woman,Right,
,,,,,,,,,,,,,,,,,555,18,Woman,Right,3,6,1,1,180,-,180,0.23001049999993484,['n'],2.086991399999988,2.0,1788.0384327000002,,,,,555,18,Woman,Right,
,,,,,,,,,,,,,,,,,555,18,Woman,Right,3,30,0.4,1,180,-,180,0.3329137999999148,['n'],2.2466527999999926,2.0,1793.2557963,,,,,555,18,Woman,Right,
,,,,,,,,,,,,,,,,,555,18,Woman,Right,3,23,0.4,2,180,0,0,0.48797479999984716,['y'],0.6782544999996389,2.0,1796.8551219,,,,,555,18,Woman,Right,
,,,,,,,,,,,,,,,,,555,18,Woman,Right,3,41,0.4,2,0,180,180,0.4694451999998819,['y'],0.2865947000000233,2.0,1799.9217240000003,,,,,555,18,Woman,Right,
,,,,,,,,,,,,,,,,,555,18,Woman,Right,3,71,0.15,2,180,0,0,0.5255687999997463,['y'],0.25476019999996424,1.98,1803.0891213,,,,,555,18,Woman,Right,
,,,,,,,,,,,,,,,,,555,18,Woman,Right,3,31,0.4,2,180,0,0,0.33788730000014766,['y'],0.2384823000002143,2.0,1806.0548742,,,,,555,18,Woman,Right,
,,,,,,,,,,,,,,,,,555,18,Woman,Right,3,59,0.15,2,180,0,0,1.5572022000001198,['y'],0.20654610000019602,1.996,1810.0557404,,,,,555,18,Woman,Right,
,,,,,,,,,,,,,,,,,555,18,Woman,Right,3,2,1,1,180,-,180,0.3834204999998292,['n'],1.8077849000001152,2.0,1814.689261,,,,,555,18,Woman,Right,
,,,,,,,,,,,,,,,,,555,18,Woman,Right,3,76,0.15,1,0,-,180,0.7768993999998202,['y'],0.3432953000001362,2.0,1818.0380960000002,,,,,555,18,Woman,Right,
,,,,,,,,,,,,,,,,,555,18,Woman,Right,3,32,0.4,1,0,-,0,0.4405080999999882,['n'],0.6149596000000201,2.0,1821.5715701,,,,,555,18,Woman,Right,
,,,,,,,,,,,,,,,,,555,18,Woman,Right,3,21,0.4,2,0,180,180,0.3833977999997842,['y'],0.19503530000019964,2.0,1824.2046957000002,,,,,555,18,Woman,Right,
,,,,,,,,,,,,,,,,,555,18,Woman,Right,3,18,0.4,1,180,-,180,0.6435393000001568,['n'],1.0632261000000653,1.3719999999999999,1829.5381453,,,,,555,18,Woman,Right,
,,,,,,,,,,,,,,,,,555,18,Woman,Right,3,3,1,2,180,0,0,0.3576760999999351,['y'],0.2628434999996898,2.0,1832.5717178999998,,,,,555,18,Woman,Right,
,,,,,,,,,,,,,,,,,555,18,Woman,Right,3,64,0.15,1,0,-,0,1.1193822000000182,['y'],3.6551683000002413,1.324,1840.1880253,,,,,555,18,Woman,Right,
,,,,,,,,,,,,,,,,,555,18,Woman,Right,3,54,0.15,1,180,-,180,0.8691567000000759,['y'],0.7906164000000899,1.716,1845.5214811,,,,,555,18,Woman,Right,
,,,,,,,,,,,,,,,,,555,18,Woman,Right,3,11,0.4,2,180,0,0,0.41100820000019667,['y'],0.2227419999999256,1.996,1848.4212204,,,,,555,18,Woman,Right,
,,,,,,,,,,,,,,,,,555,18,Woman,Right,3,13,0.4,2,0,180,180,0.3049863999999616,['y'],1.1348979999997937,1.996,1851.9881608,,,,,555,18,Woman,Right,
,,,,,,,,,,,,,,,,,555,18,Woman,Right,3,53,0.15,2,0,180,180,0.5382067999998981,['y'],0.19086560000005193,1.996,1854.8379617,,,,,555,18,Woman,Right,
,,,,,,,,,,,,,,,,,555,18,Woman,Right,3,56,0.15,1,0,-,180,1.4255659000000378,['y'],0.2149251999999251,1.996,1858.5045069000003,,,,,555,18,Woman,Right,
,,,,,,,,,,,,,,,,,555,18,Woman,Right,3,46,0.15,1,180,-,180,2.6387259000002814,['y'],3.1827175999997053,1.338,1867.1044955000002,,,,,555,18,Woman,Right,
,,,,,,,,,,,,,,,,,555,18,Woman,Right,3,75,0.15,2,180,0,0,1.7428459999996448,['y'],2.7584446000000753,1.35,1874.3711017,,,,,555,18,Woman,Right,
,,,,,,,,,,,,,,,,,555,18,Woman,Right,3,55,0.15,2,180,0,180,0.9199523000002046,['y'],1.1979962000000342,1.988,1878.6877613000001,,,,,555,18,Woman,Right,
,,,,,,,,,,,,,,,,,555,18,Woman,Right,3,45,0.15,2,0,180,180,1.6685664999999972,['y'],0.7507673999998588,1.988,1883.6209318,,,,,555,18,Woman,Right,
,,,,,,,,,,,,,,,,,555,18,Woman,Right,3,9,0.4,2,0,180,180,0.7274802000001728,['y'],0.49462110000013126,2.0,1887.9710138,,,,,555,18,Woman,Right,
,,,,,,,,,,,,,,,,,555,18,Woman,Right,3,63,0.15,2,180,0,0,1.6175576999999066,['n'],1.358650800000305,1.376,1894.3710095000001,,,,,555,18,Woman,Right,
,,,,,,,,,,,,,,,,,555,18,Woman,Right,3,50,0.15,1,180,-,180,0.3825342999998611,['n'],1.0070157999998628,1.608,1899.7375927000003,,,,,555,18,Woman,Right,
,,,,,,,,,,,,,,,,,555,18,Woman,Right,3,67,0.15,2,180,0,0,0.691748700000062,['y'],0.8069233999999597,2.0,1903.8043785,,,,,555,18,Woman,Right,
,,,,,,,,,,,,,,,,,555,18,Woman,Right,3,14,0.4,1,180,-,180,0.2929819999999381,['n'],0.6628726000003553,2.0,1907.6877090000003,,,,,555,18,Woman,Right,
,,,,,,,,,,,,,,,,,555,18,Woman,Right,3,69,0.15,2,0,180,180,0.4391259000003629,['y'],1.094575800000257,1.8860000000000001,1911.8374744000002,,,,,555,18,Woman,Right,
,,,,,,,,,,,,,,,,,555,18,Woman,Right,3,42,0.4,1,180,-,180,0.347870999999941,['n'],0.542739900000015,2.0,1915.6707969,,,,,555,18,Woman,Right,
,,,,,,,,,,,,,,,,,555,18,Woman,Right,3,51,0.15,2,180,0,0,1.3490010000000439,['y'],1.1827002999998513,1.6680000000000001,1921.0209132999998,,,,,555,18,Woman,Right,
,,,,,,,,,,,,,,,,,555,18,Woman,Right,3,35,0.4,2,180,0,0,0.4407304999999724,['y'],0.38206220000029134,1.99,1924.9873785,,,,,555,18,Woman,Right,
,,,,,,,,,,,,,,,,,555,18,Woman,Right,3,43,0.4,2,180,0,0,2.0920571999999993,['y'],0.2708400999999867,2.0,1929.5208858,,,,,555,18,Woman,Right,
,,,,,,,,,,,,,,,,,555,18,Woman,Right,3,60,0.15,1,0,-,0,2.3668142000001353,['y'],0.5256143999999949,1.3519999999999999,1935.304341,,,,,555,18,Woman,Right,
,,,,,,,,,,,,,,,,,555,18,Woman,Right,3,52,0.15,1,0,-,0,1.476148600000215,['y'],2.486953899999662,1.6219999999999999,1942.1548854000002,,,,,555,18,Woman,Right,
,,,,,,,,,,,,,,,,,555,18,Woman,Right,3,17,0.4,2,0,180,180,0.28962830000000395,['y'],1.9183352000000014,2.0,1946.9206051,,,,,555,18,Woman,Right,
,,,,,,,,,,,,,,,,,555,18,Woman,Right,3,0,1,1,0,-,0,0.3695489000001544,['n'],0.8231783999999607,2.0,1950.4541484000001,,,,,555,18,Woman,Right,
,,,,,,,,,,,,,,,,,555,18,Woman,Right,3,72,0.15,1,0,-,180,0.7669330999997328,['y'],1.5113409000000502,1.608,1955.5038515,,,,,555,18,Woman,Right,
,,,,,,,,,,,,,,,,,555,18,Woman,Right,4,1,1,2,0,180,180,0.33477769999990414,['y'],0.42283110000016677,2.0,1963.3206187,91.25,67.5,90.0,,555,18,Woman,Right,
,,,,,,,,,,,,,,,,,555,18,Woman,Right,4,73,0.15,2,0,180,180,2.275847999999769,['y'],0.7667540999996163,1.672,1968.8371562000002,,,,,555,18,Woman,Right,
,,,,,,,,,,,,,,,,,555,18,Woman,Right,4,62,0.15,1,180,-,180,1.2810208999999304,['n'],2.1588792000002286,1.5779999999999998,1976.0705905,,,,,555,18,Woman,Right,
,,,,,,,,,,,,,,,,,555,18,Woman,Right,4,32,0.4,1,0,-,0,1.2895606000001862,['n'],1.4869751999999608,1.588,1981.0371021,,,,,555,18,Woman,Right,
,,,,,,,,,,,,,,,,,555,18,Woman,Right,4,30,0.4,1,180,-,180,0.8343424999998206,['n'],0.8071679999998196,1.592,1985.1205516,,,,,555,18,Woman,Right,
,,,,,,,,,,,,,,,,,555,18,Woman,Right,4,61,0.15,2,0,180,0,1.326242799999818,['y'],0.9823076000002402,2.0,1989.7868808000003,,,,,555,18,Woman,Right,
,,,,,,,,,,,,,,,,,555,18,Woman,Right,4,7,1,2,180,0,0,1.0170014999998784,['y'],0.542855099999997,2.0,1993.7536535,,,,,555,18,Woman,Right,
,,,,,,,,,,,,,,,,,555,18,Woman,Right,4,15,0.4,2,180,0,0,1.1726476000003458,['y'],0.2065893000003598,2.0,1997.1705528000002,,,,,555,18,Woman,Right,
,,,,,,,,,,,,,,,,,555,18,Woman,Right,4,36,0.4,1,0,-,0,0.36565280000013445,['y'],0.8233175999998821,1.376,2003.9536588,,,,,555,18,Woman,Right,
,,,,,,,,,,,,,,,,,555,18,Woman,Right,4,28,0.4,1,0,-,0,0.5378882999998496,['n'],1.086886499999764,2.0,2008.5535415,,,,,555,18,Woman,Right,
,,,,,,,,,,,,,,,,,555,18,Woman,Right,4,48,0.15,1,0,-,0,2.0059292000000823,['n'],2.678893899999821,1.58,2015.7204817000002,,,,,555,18,Woman,Right,
,,,,,,,,,,,,,,,,,555,18,Woman,Right,4,71,0.15,2,180,0,0,1.5280076999997618,['y'],0.5341613999999026,1.98,2020.0039315,,,,,555,18,Woman,Right,
,,,,,,,,,,,,,,,,,555,18,Woman,Right,4,50,0.15,1,180,-,0,3.122602800000095,['y'],2.0628930000002583,1.5779999999999998,2027.8034354000001,,,,,555,18,Woman,Right,
,,,,,,,,,,,,,,,,,555,18,Woman,Right,4,46,0.15,1,180,-,180,0.7633418000000347,['y'],0.6392445999999836,1.876,2031.5700150000002,,,,,555,18,Woman,Right,
,,,,,,,,,,,,,,,,,555,18,Woman,Right,4,18,0.4,1,180,-,180,0.9484077000001889,['y'],0.694928599999912,1.442,2037.2040262,,,,,555,18,Woman,Right,
,,,,,,,,,,,,,,,,,555,18,Woman,Right,4,24,0.4,1,0,-,0,0.9493840999998611,['n'],0.975159099999928,2.0,2041.5367516000001,,,,,555,18,Woman,Right,
,,,,,,,,,,,,,,,,,555,18,Woman,Right,4,10,0.4,1,180,-,180,1.0694872999997642,['n'],0.7912626000002092,1.72,2046.6703426,,,,,555,18,Woman,Right,
,,,,,,,,,,,,,,,,,555,18,Woman,Right,4,23,0.4,2,180,0,0,0.5274795000000267,['y'],0.759045000000242,1.994,2050.336592,,,,,555,18,Woman,Right,
,,,,,,,,,,,,,,,,,555,18,Woman,Right,4,26,0.4,1,180,-,180,0.4499817000000803,['n'],1.1071825000003628,1.912,2054.5699161000002,,,,,555,18,Woman,Right,
,,,,,,,,,,,,,,,,,555,18,Woman,Right,4,22,0.4,1,180,-,180,0.6018039999999019,['n'],0.9025419000004149,2.0,2058.3865446,,,,,555,18,Woman,Right,
,,,,,,,,,,,,,,,,,555,18,Woman,Right,4,39,0.4,2,180,0,0,0.39961129999983314,['y'],0.5188438999998652,1.956,2061.6032965,,,,,555,18,Woman,Right,
,,,,,,,,,,,,,,,,,555,18,Woman,Right,4,79,0.15,2,180,0,0,1.200572799999918,['y'],0.8466359999997621,1.994,2065.9373529,,,,,555,18,Woman,Right,
,,,,,,,,,,,,,,,,,555,18,Woman,Right,4,70,0.15,1,180,-,0,1.7702150999998594,['y'],0.46247849999963364,2.0,2070.5033366000002,,,,,555,18,Woman,Right,
,,,,,,,,,,,,,,,,,555,18,Woman,Right,4,52,0.15,1,0,-,0,1.5611954000000878,['y'],1.5510894999997618,2.0,2075.9030827,,,,,555,18,Woman,Right,
,,,,,,,,,,,,,,,,,555,18,Woman,Right,4,2,1,1,180,-,180,0.6167989999999008,['n'],1.0870818000003055,2.0,2080.2198038,,,,,555,18,Woman,Right,
,,,,,,,,,,,,,,,,,555,18,Woman,Right,4,51,0.15,2,180,0,0,0.9838277999997445,['y'],0.34264100000018516,2.0,2083.6529572,,,,,555,18,Woman,Right,
,,,,,,,,,,,,,,,,,555,18,Woman,Right,4,9,0.4,2,0,180,180,0.5456730000000789,['y'],0.2471426000001884,2.0,2086.4531077,,,,,555,18,Woman,Right,
,,,,,,,,,,,,,,,,,555,18,Woman,Right,4,74,0.15,1,180,-,0,1.4111319000003277,['y'],4.50297159999991,1.84,2094.7695769,,,,,555,18,Woman,Right,
,,,,,,,,,,,,,,,,,555,18,Woman,Right,4,5,1,2,0,180,180,0.6750887000002876,['y'],0.23883929999965403,2.0,2098.1538465,,,,,555,18,Woman,Right,
,,,,,,,,,,,,,,,,,555,18,Woman,Right,4,49,0.15,2,0,180,180,1.7085144000002401,['n'],0.4469072000001688,1.616,2103.0031389,,,,,555,18,Woman,Right,
,,,,,,,,,,,,,,,,,555,18,Woman,Right,4,14,0.4,1,180,-,180,1.0120343999997203,['n'],0.6548542999998972,1.992,2107.6362521,,,,,555,18,Woman,Right,
,,,,,,,,,,,,,,,,,555,18,Woman,Right,4,40,0.4,1,0,-,0,0.3207854999996016,['n'],1.0867926000000807,1.992,2111.2695611,,,,,555,18,Woman,Right,
,,,,,,,,,,,,,,,,,555,18,Woman,Right,4,42,0.4,1,180,-,0,2.683579500000178,['y'],0.8854592000002413,1.992,2117.0200827,,,,,555,18,Woman,Right,
,,,,,,,,,,,,,,,,,555,18,Woman,Right,4,37,0.4,2,0,180,180,0.7718199999999342,['y'],0.9589300000002368,1.99,2120.8206371,,,,,555,18,Woman,Right,
,,,,,,,,,,,,,,,,,555,18,Woman,Right,4,66,0.15,1,180,-,180,1.2499651000002814,['n'],1.6094155000000683,1.24,2127.1360993,,,,,555,18,Woman,Right,
,,,,,,,,,,,,,,,,,555,18,Woman,Right,4,3,1,2,180,0,0,0.43867469999986497,['y'],0.3185652000001937,2.0,2130.3694105,,,,,555,18,Woman,Right,
,,,,,,,,,,,,,,,,,555,18,Woman,Right,4,38,0.4,1,180,-,180,1.0238767999999254,['n'],2.6313513999998577,2.0,2136.3695554,,,,,555,18,Woman,Right,
,,,,,,,,,,,,,,,,,555,18,Woman,Right,4,44,0.15,1,0,-,0,1.7090820000003077,['y'],0.6632883000002039,2.0,2141.2528722,,,,,555,18,Woman,Right,
,,,,,,,,,,,,,,,,,555,18,Woman,Right,4,64,0.15,1,0,-,0,0.8103574999995544,['n'],2.119178099999772,1.692,2146.6369878,,,,,555,18,Woman,Right,
,,,,,,,,,,,,,,,,,555,18,Woman,Right,4,59,0.15,2,180,0,0,1.7681043000002319,['y'],0.7988123000000087,1.998,2151.5192735,,,,,555,18,Woman,Right,
,,,,,,,,,,,,,,,,,555,18,Woman,Right,4,65,0.15,2,0,180,180,0.5625863000000209,['y'],0.18289450000020224,1.998,2154.4194539,,,,,555,18,Woman,Right,
,,,,,,,,,,,,,,,,,555,18,Woman,Right,4,55,0.15,2,180,0,0,1.7333770000000186,['y'],0.31887270000015633,1.998,2154.4194539,,,,,555,18,Woman,Right,
,,,,,,,,,,,,,,,,,555,18,Woman,Right,4,12,0.4,1,0,-,0,0.5964009000003898,['n'],0.4068938000000344,1.998,2161.9860031000003,,,,,555,18,Woman,Right,
,,,,,,,,,,,,,,,,,555,18,Woman,Right,4,27,0.4,2,180,0,0,0.466685200000029,['y'],0.19094570000015665,1.998,2161.9860031000003,,,,,555,18,Woman,Right,
,,,,,,,,,,,,,,,,,555,18,Woman,Right,4,41,0.4,2,0,180,180,0.2693323999997119,['y'],0.17538559999957215,1.5,2166.7474534000003,,,,,555,18,Woman,Right,
,,,,,,,,,,,,,,,,,555,18,Woman,Right,4,34,0.4,1,180,-,180,0.3666331000003993,['n'],0.3589993999999024,1.998,2170.4858142000003,,,,,555,18,Woman,Right,
,,,,,,,,,,,,,,,,,555,18,Woman,Right,4,29,0.4,2,0,180,180,0.26651470000024347,['y'],0.165983999999753,1.998,2172.9026144,,,,,555,18,Woman,Right,
,,,,,,,,,,,,,,,,,555,18,Woman,Right,4,77,0.15,2,0,180,0,0.7319102999999814,['y'],0.2708960999998453,1.314,2177.2526287,,,,,555,18,Woman,Right,
,,,,,,,,,,,,,,,,,555,18,Woman,Right,4,35,0.4,2,180,0,0,0.43535130000009303,['y'],1.6390098000001672,2.0,2181.4860203000003,,,,,555,18,Woman,Right,
,,,,,,,,,,,,,,,,,555,18,Woman,Right,4,54,0.15,1,180,-,180,0.5002316000000064,['n'],0.3589020999997956,1.658,2184.9523494,,,,,555,18,Woman,Right,
,,,,,,,,,,,,,,,,,555,18,Woman,Right,4,69,0.15,2,0,180,180,0.8215063000002374,['y'],0.23913690000017596,1.978,2188.5356374000003,,,,,555,18,Woman,Right,
,,,,,,,,,,,,,,,,,555,18,Woman,Right,4,58,0.15,1,180,-,180,0.9088890000002721,['y'],1.335199100000409,1.584,2193.2857058,,,,,555,18,Woman,Right,
,,,,,,,,,,,,,,,,,555,18,Woman,Right,4,72,0.15,1,0,-,0,0.32752099999970596,['n'],0.6386993999999504,1.888,2197.1689706,,,,,555,18,Woman,Right,
,,,,,,,,,,,,,,,,,555,18,Woman,Right,4,57,0.15,2,0,180,180,0.7196896999998899,['y'],0.3429515000002539,2.0,2201.7856134,,,,,555,18,Woman,Right,
,,,,,,,,,,,,,,,,,555,18,Woman,Right,4,20,0.4,1,0,-,0,0.36208299999998417,['n'],0.5987640000003012,1.8900000000000001,2205.2189155,,,,,555,18,Woman,Right,
,,,,,,,,,,,,,,,,,555,18,Woman,Right,4,16,0.4,1,0,-,0,0.3482174999999188,['n'],1.1502465000003212,1.884,2208.8689116,,,,,555,18,Woman,Right,
,,,,,,,,,,,,,,,,,555,18,Woman,Right,4,31,0.4,2,180,0,0,0.49896510000007765,['y'],0.21489850000034494,1.974,2212.0688626,,,,,555,18,Woman,Right,
,,,,,,,,,,,,,,,,,555,18,Woman,Right,4,78,0.15,1,180,-,180,0.6977211000003081,['y'],2.8222059999998237,1.5939999999999999,2218.0357718,,,,,555,18,Woman,Right,
,,,,,,,,,,,,,,,,,555,18,Woman,Right,4,53,0.15,2,0,180,0,1.2359965000000557,['y'],2.207074299999931,1.634,2223.7190916,,,,,555,18,Woman,Right,
,,,,,,,,,,,,,,,,,555,18,Woman,Right,4,21,0.4,2,0,180,180,0.3196312999998554,['y'],0.29485090000025593,2.0,2226.5356751,,,,,555,18,Woman,Right,
,,,,,,,,,,,,,,,,,555,18,Woman,Right,4,75,0.15,2,180,0,0,0.9425412999999025,['y'],0.3668977000002087,2.0,2226.5356751,,,,,555,18,Woman,Right,
,,,,,,,,,,,,,,,,,555,18,Woman,Right,4,13,0.4,2,0,180,180,0.4835938000001079,['y'],0.2654194000001553,1.988,2232.585664,,,,,555,18,Woman,Right,
,,,,,,,,,,,,,,,,,555,18,Woman,Right,4,25,0.4,2,0,180,180,0.29599450000023353,['y'],0.21515259999978298,1.988,2232.585664,,,,,555,18,Woman,Right,
,,,,,,,,,,,,,,,,,555,18,Woman,Right,4,76,0.15,1,0,-,0,1.677837300000192,['y'],0.22285439999996015,1.988,2238.9188585,,,,,555,18,Woman,Right,
,,,,,,,,,,,,,,,,,555,18,Woman,Right,4,63,0.15,2,180,0,180,2.4965400000000955,['y'],0.29451860000017405,1.984,2243.8019205,,,,,555,18,Woman,Right,
,,,,,,,,,,,,,,,,,555,18,Woman,Right,4,4,1,1,0,-,0,1.416630200000327,['n'],0.3173605000001771,1.984,2247.8186196,,,,,555,18,Woman,Right,
,,,,,,,,,,,,,,,,,555,18,Woman,Right,4,68,0.15,1,0,-,180,1.8837140000000545,['y'],1.6309724999996433,1.984,2253.5852072000002,,,,,555,18,Woman,Right,
,,,,,,,,,,,,,,,,,555,18,Woman,Right,4,19,0.4,2,180,0,0,0.37522619999981544,['y'],0.22287629999982528,1.984,2253.5852072000002,,,,,555,18,Woman,Right,
,,,,,,,,,,,,,,,,,555,18,Woman,Right,4,11,0.4,2,180,0,0,0.4025172999999995,['y'],0.21486129999993864,1.984,2258.6685165,,,,,555,18,Woman,Right,
,,,,,,,,,,,,,,,,,555,18,Woman,Right,4,43,0.4,2,180,0,0,0.32256120000010924,['y'],0.23094320000018342,1.984,2258.6685165,,,,,555,18,Woman,Right,
,,,,,,,,,,,,,,,,,555,18,Woman,Right,4,8,0.4,1,0,-,0,0.625820400000066,['n'],0.4229080999998587,1.984,2264.5186497,,,,,555,18,Woman,Right,
,,,,,,,,,,,,,,,,,555,18,Woman,Right,4,67,0.15,2,180,0,0,1.8791701999998622,['n'],1.2789308000001256,1.588,2270.2188704,,,,,555,18,Woman,Right,
,,,,,,,,,,,,,,,,,555,18,Woman,Right,4,17,0.4,2,0,180,180,2.0114070000004176,['y'],2.0868555999995806,1.612,2277.6683298000003,,,,,555,18,Woman,Right,
,,,,,,,,,,,,,,,,,555,18,Woman,Right,4,56,0.15,1,0,-,0,1.2392808000004152,['n'],0.7030629000000772,1.68,2282.3020078000004,,,,,555,18,Woman,Right,
,,,,,,,,,,,,,,,,,555,18,Woman,Right,4,47,0.15,2,180,0,0,0.46499500000027183,['y'],0.9665713999993386,2.0,2286.1016981,,,,,555,18,Woman,Right,
,,,,,,,,,,,,,,,,,555,18,Woman,Right,4,33,0.4,2,0,180,180,0.5265807999994649,['y'],0.2549383999994461,2.0,2289.0186068,,,,,555,18,Woman,Right,
,,,,,,,,,,,,,,,,,555,18,Woman,Right,4,0,1,1,0,-,0,0.3274626000002172,['n'],0.8950879999993049,2.0,2292.3183562,,,,,555,18,Woman,Right,
,,,,,,,,,,,,,,,,,555,18,Woman,Right,4,6,1,1,180,-,180,0.5681115999996109,['n'],0.9189060999997309,2.0,2295.9351714,,,,,555,18,Woman,Right,
,,,,,,,,,,,,,,,,,555,18,Woman,Right,4,60,0.15,1,0,-,0,0.8720296000001326,['n'],1.5271677999999156,1.654,2300.5351734,,,,,555,18,Woman,Right,
,,,,,,,,,,,,,,,,,555,18,Woman,Right,4,45,0.15,2,0,180,0,2.616823700000168,['n'],0.8542809000000489,1.58,2306.6182371,,,,,555,18,Woman,Right,
,,,,,,,,,,,,,,,,,555,18,Woman,Right,5,52,0.15,1,0,-,0,1.0990285999996559,['y'],1.7027693,1.626,2317.268219,87.5,67.5,92.5,,555,18,Woman,Right,
,,,,,,,,,,,,,,,,,555,18,Woman,Right,5,1,1,2,0,180,180,0.4529829000002792,['y'],1.086379900000793,2.0,2321.3517096,,,,,555,18,Woman,Right,
,,,,,,,,,,,,,,,,,555,18,Woman,Right,5,44,0.15,1,0,-,180,0.7949343000000226,['y'],0.22380219999922701,2.0,2321.3517096,,,,,555,18,Woman,Right,
,,,,,,,,,,,,,,,,,555,18,Woman,Right,5,31,0.4,2,180,0,0,0.29521920000024693,['y'],0.1907760000003691,1.5,2326.5711582,,,,,555,18,Woman,Right,
,,,,,,,,,,,,,,,,,555,18,Woman,Right,5,36,0.4,1,0,-,0,0.8897100000003775,['n'],1.1508306000005177,1.616,2331.452183,,,,,555,18,Woman,Right,
,,,,,,,,,,,,,,,,,555,18,Woman,Right,5,77,0.15,2,0,180,180,0.4852591000008033,['n'],2.0708392000005915,1.626,2336.6848160000004,,,,,555,18,Woman,Right,
,,,,,,,,,,,,,,,,,555,18,Woman,Right,5,72,0.15,1,0,-,0,0.5570813000003909,['n'],0.918975099999443,1.6059999999999999,2340.4847307000005,,,,,555,18,Woman,Right,
,,,,,,,,,,,,,,,,,555,18,Woman,Right,5,6,1,1,180,-,180,0.2512285000002521,['y'],0.39072289999967325,1.294,2344.784911,,,,,555,18,Woman,Right,
,,,,,,,,,,,,,,,,,555,18,Woman,Right,5,10,0.4,1,180,-,180,1.206952700000329,['n'],0.5349261000001206,1.71,2349.8345686,,,,,555,18,Woman,Right,
,,,,,,,,,,,,,,,,,555,18,Woman,Right,5,19,0.4,2,180,0,0,0.36446220000016183,['y'],0.5107417999997779,2.0,2352.9515101,,,,,555,18,Woman,Right,
,,,,,,,,,,,,,,,,,555,18,Woman,Right,5,64,0.15,1,0,-,0,2.406608199999937,['n'],4.3668901000000915,1.4020000000000001,2362.8845736,,,,,555,18,Woman,Right,
,,,,,,,,,,,,,,,,,555,18,Woman,Right,5,39,0.4,2,180,0,0,0.31600259999959235,['n'],2.5351083999994444,1.384,2369.3346769000004,,,,,555,18,Woman,Right,
,,,,,,,,,,,,,,,,,555,18,Woman,Right,5,51,0.15,2,180,0,0,0.3764043999999558,['y'],1.4624563000006674,2.0,2373.7177875,,,,,555,18,Woman,Right,
,,,,,,,,,,,,,,,,,555,18,Woman,Right,5,32,0.4,1,0,-,0,0.4659370999997918,['n'],0.5832942999995794,1.724,2377.3512369000005,,,,,555,18,Woman,Right,
,,,,,,,,,,,,,,,,,555,18,Woman,Right,5,75,0.15,2,180,0,0,1.7286248000000342,['y'],0.2951066000005085,2.0,2381.5511098,,,,,555,18,Woman,Right,
,,,,,,,,,,,,,,,,,555,18,Woman,Right,5,58,0.15,1,180,-,180,1.7111227999994298,['y'],0.23087070000019594,2.0,2385.5179848000002,,,,,555,18,Woman,Right,
,,,,,,,,,,,,,,,,,555,18,Woman,Right,5,33,0.4,2,0,180,180,0.2906333999999333,['y'],0.17479550000007293,2.0,2387.9678422,,,,,555,18,Woman,Right,
,,,,,,,,,,,,,,,,,555,18,Woman,Right,5,20,0.4,1,0,-,0,0.32052240000029997,['n'],0.4071526999996422,2.0,2391.0180445,,,,,555,18,Woman,Right,
,,,,,,,,,,,,,,,,,555,18,Woman,Right,5,65,0.15,2,0,180,180,0.48659159999988333,['y'],0.47088869999970484,2.0,2393.9846284,,,,,555,18,Woman,Right,
,,,,,,,,,,,,,,,,,555,18,Woman,Right,5,18,0.4,1,180,-,180,0.83212149999963,['y'],2.102881300000263,1.608,2399.2509537,,,,,555,18,Woman,Right,
,,,,,,,,,,,,,,,,,555,18,Woman,Right,5,37,0.4,2,0,180,180,1.044052900000679,['y'],0.21465919999991456,1.904,2402.5342833,,,,,555,18,Woman,Right,
,,,,,,,,,,,,,,,,,555,18,Woman,Right,5,63,0.15,2,180,0,180,0.6915547999997216,['y'],1.6951216999996177,1.588,2407.1511703,,,,,555,18,Woman,Right,
,,,,,,,,,,,,,,,,,555,18,Woman,Right,5,45,0.15,2,0,180,0,0.7210649999997258,['y'],1.1826126000005388,1.596,2412.3008634000003,,,,,555,18,Woman,Right,
,,,,,,,,,,,,,,,,,555,18,Woman,Right,5,50,0.15,1,180,-,180,0.5054313000000548,['y'],0.8147841999998491,1.626,2416.0175615000003,,,,,555,18,Woman,Right,
,,,,,,,,,,,,,,,,,555,18,Woman,Right,5,26,0.4,1,180,-,180,1.6067690999998376,['n'],2.438987999999881,1.756,2423.3008278,,,,,555,18,Woman,Right,
,,,,,,,,,,,,,,,,,555,18,Woman,Right,5,3,1,2,180,0,0,0.5167128000002776,['y'],0.3778229999998075,2.0,2426.7174645,,,,,555,18,Woman,Right,
,,,,,,,,,,,,,,,,,555,18,Woman,Right,5,25,0.4,2,0,180,180,0.951752499999202,['y'],0.21478899999965506,1.998,2429.9341474999997,,,,,555,18,Woman,Right,
,,,,,,,,,,,,,,,,,555,18,Woman,Right,5,43,0.4,2,180,0,0,0.3949698999995235,['y'],0.1990944999997737,1.998,2429.9341474999997,,,,,555,18,Woman,Right,
,,,,,,,,,,,,,,,,,555,18,Woman,Right,5,22,0.4,1,180,-,180,0.8109710999997333,['n'],0.5428867000000537,1.63,2436.2510591000005,,,,,555,18,Woman,Right,
,,,,,,,,,,,,,,,,,555,18,Woman,Right,5,17,0.4,2,0,180,180,0.4936115999998947,['y'],0.18292070000006788,1.984,2439.2841247,,,,,555,18,Woman,Right,
,,,,,,,,,,,,,,,,,555,18,Woman,Right,5,68,0.15,1,0,-,180,0.7933609000001525,['y'],0.23081579999961832,2.0,2442.7506814000003,,,,,555,18,Woman,Right,
,,,,,,,,,,,,,,,,,555,18,Woman,Right,5,2,1,1,180,-,180,0.37000590000025113,['n'],0.5184648999993442,1.976,2446.9673717,,,,,555,18,Woman,Right,
,,,,,,,,,,,,,,,,,555,18,Woman,Right,5,23,0.4,2,180,0,0,0.31457790000058594,['y'],0.3586445000000822,2.0,2450.0006037999997,,,,,555,18,Woman,Right,
,,,,,,,,,,,,,,,,,555,18,Woman,Right,5,14,0.4,1,180,-,180,1.2122663999998622,['n'],1.6150171999997838,1.816,2455.3839835000003,,,,,555,18,Woman,Right,
,,,,,,,,,,,,,,,,,555,18,Woman,Right,5,78,0.15,1,180,-,0,1.1150596999996196,['y'],1.390892200000053,1.758,2460.3672714,,,,,555,18,Woman,Right,
,,,,,,,,,,,,,,,,,555,18,Woman,Right,5,67,0.15,2,180,0,180,2.7498296000003393,['y'],1.4149101000002702,1.948,2467.3840438,,,,,555,18,Woman,Right,
,,,,,,,,,,,,,,,,,555,18,Woman,Right,5,28,0.4,1,0,-,0,0.8464657999993506,['n'],1.0392361000003802,1.6520000000000001,2471.6340649999997,,,,,555,18,Woman,Right,
,,,,,,,,,,,,,,,,,555,18,Woman,Right,5,24,0.4,1,0,-,0,1.337200999999368,['n'],3.1426813000007314,1.6320000000000001,2479.5838288,,,,,555,18,Woman,Right,
,,,,,,,,,,,,,,,,,555,18,Woman,Right,5,13,0.4,2,0,180,180,0.4066035000005286,['y'],0.7987947000001441,1.994,2483.0171824000004,,,,,555,18,Woman,Right,
,,,,,,,,,,,,,,,,,555,18,Woman,Right,5,49,0.15,2,0,180,180,1.3027770999997301,['y'],1.7746588999998494,1.604,2488.6504015000005,,,,,555,18,Woman,Right,
,,,,,,,,,,,,,,,,,555,18,Woman,Right,5,76,0.15,1,0,-,180,1.089292900000146,['y'],0.5509035999994012,2.0,2492.7338912,,,,,555,18,Woman,Right,
,,,,,,,,,,,,,,,,,555,18,Woman,Right,5,62,0.15,1,180,-,0,0.6952717000003759,['y'],0.9508716999998796,2.0,2496.5341559000003,,,,,555,18,Woman,Right,
,,,,,,,,,,,,,,,,,555,18,Woman,Right,5,66,0.15,1,180,-,180,0.5052214999996067,['n'],0.5509226999993189,1.746,2502.0006074999997,,,,,555,18,Woman,Right,
,,,,,,,,,,,,,,,,,555,18,Woman,Right,5,59,0.15,2,180,0,0,0.6355756000002657,['y'],0.3506884999997055,2.0,2505.3335752999997,,,,,555,18,Woman,Right,
,,,,,,,,,,,,,,,,,555,18,Woman,Right,5,70,0.15,1,180,-,0,2.128953000000365,['y'],0.5266111999999339,2.0,2510.2169725999997,,,,,555,18,Woman,Right,
,,,,,,,,,,,,,,,,,555,18,Woman,Right,5,73,0.15,2,0,180,0,2.3350381000000198,['n'],2.1427057999999306,1.7,2517.2001729999997,,,,,555,18,Woman,Right,
,,,,,,,,,,,,,,,,,555,18,Woman,Right,5,79,0.15,2,180,0,0,1.4774932000000263,['y'],0.7187320000002728,2.0,2522.2168724999997,,,,,555,18,Woman,Right,
,,,,,,,,,,,,,,,,,555,18,Woman,Right,5,74,0.15,1,180,-,180,0.3307401000001846,['n'],0.727009199999884,1.824,2526.1001651,,,,,555,18,Woman,Right,
,,,,,,,,,,,,,,,,,555,18,Woman,Right,5,27,0.4,2,180,0,0,0.3614917000004425,['y'],0.47072359999947366,2.0,2529.5167747,,,,,555,18,Woman,Right,
,,,,,,,,,,,,,,,,,555,18,Woman,Right,5,40,0.4,1,0,-,0,1.2502143000001524,['n'],1.116078899999593,2.0,2534.6334748000004,,,,,555,18,Woman,Right,
,,,,,,,,,,,,,,,,,555,18,Woman,Right,5,8,0.4,1,0,-,0,2.261207800000193,['n'],0.7187596000003396,2.0,2539.9336095000003,,,,,555,18,Woman,Right,
,,,,,,,,,,,,,,,,,555,18,Woman,Right,5,41,0.4,2,0,180,180,1.0500240000001213,['y'],1.358615500000269,2.0,2544.9333131999997,,,,,555,18,Woman,Right,
,,,,,,,,,,,,,,,,,555,18,Woman,Right,5,9,0.4,2,0,180,180,0.4492878999999448,['y'],0.4469709999993938,1.996,2547.9166012,,,,,555,18,Woman,Right,
,,,,,,,,,,,,,,,,,555,18,Woman,Right,5,21,0.4,2,0,180,180,0.7555788999998185,['y'],0.18285980000018753,1.996,2550.8333473,,,,,555,18,Woman,Right,
,,,,,,,,,,,,,,,,,555,18,Woman,Right,5,42,0.4,1,180,-,180,1.0001680000004853,['n'],0.7351621999996496,1.6099999999999999,2555.1666654000005,,,,,555,18,Woman,Right,
,,,,,,,,,,,,,,,,,555,18,Woman,Right,5,69,0.15,2,0,180,180,1.3764830000000075,['y'],0.6548657000003004,1.896,2559.9666623,,,,,555,18,Woman,Right,
,,,,,,,,,,,,,,,,,555,18,Woman,Right,5,12,0.4,1,0,-,0,0.35646969999925204,['y'],3.7587100999999166,1.562,2576.8664931,,,,,555,18,Woman,Right,
,,,,,,,,,,,,,,,,,555,18,Woman,Right,5,30,0.4,1,180,-,180,1.7930977999994866,['n'],3.847017899999628,1.88,2586.1164206,,,,,555,18,Woman,Right,
,,,,,,,,,,,,,,,,,555,18,Woman,Right,5,53,0.15,2,0,180,180,0.6584026999998969,['y'],0.7670635999993465,2.0,2590.3664349000005,,,,,555,18,Woman,Right,
,,,,,,,,,,,,,,,,,555,18,Woman,Right,5,0,1,1,0,-,0,0.616618600000038,['n'],1.2076858999998876,1.976,2594.7830528,,,,,555,18,Woman,Right,
,,,,,,,,,,,,,,,,,555,18,Woman,Right,5,54,0.15,1,180,-,180,1.3711736999994173,['y'],2.5352898999999525,1.4,2603.1996528000004,,,,,555,18,Woman,Right,
,,,,,,,,,,,,,,,,,555,18,Woman,Right,5,15,0.4,2,180,0,0,1.1627414999993562,['y'],2.0306282999999894,2.0,2609.1164313000004,,,,,555,18,Woman,Right,
,,,,,,,,,,,,,,,,,555,18,Woman,Right,5,60,0.15,1,0,-,0,0.496491199999582,['n'],2.3508448000002318,1.5779999999999998,2614.4504687000003,,,,,555,18,Woman,Right,
,,,,,,,,,,,,,,,,,555,18,Woman,Right,5,16,0.4,1,0,-,0,1.4220333000002938,['n'],0.7426967999999761,1.87,2619.5995815,,,,,555,18,Woman,Right,
,,,,,,,,,,,,,,,,,555,18,Woman,Right,5,55,0.15,2,180,0,0,1.550214899999446,['y'],0.7506435000004785,2.0,2624.249512,,,,,555,18,Woman,Right,
,,,,,,,,,,,,,,,,,555,18,Woman,Right,5,38,0.4,1,180,-,180,0.37182990000019345,['n'],2.262525799999821,1.782,2629.6828037,,,,,555,18,Woman,Right,
,,,,,,,,,,,,,,,,,555,18,Woman,Right,5,57,0.15,2,0,180,180,0.5455117999999857,['y'],0.3348238999997193,2.0,2633.0170261999997,,,,,555,18,Woman,Right,
,,,,,,,,,,,,,,,,,555,18,Woman,Right,5,56,0.15,1,0,-,0,5.4082683999995425,['y'],1.5265887000005023,1.8719999999999999,2642.3494406000004,,,,,555,18,Woman,Right,
,,,,,,,,,,,,,,,,,555,18,Woman,Right,5,7,1,2,180,0,0,0.34405839999999444,['y'],0.20678750000024593,2.0,2645.1494439000003,,,,,555,18,Woman,Right,
,,,,,,,,,,,,,,,,,555,18,Woman,Right,5,34,0.4,1,180,-,180,0.40883839999969496,['n'],1.0386822000000393,1.596,2648.9169557,,,,,555,18,Woman,Right,
,,,,,,,,,,,,,,,,,555,18,Woman,Right,5,35,0.4,2,180,0,0,0.314934699999867,['y'],0.23065700000006473,1.99,2651.6996853000005,,,,,555,18,Woman,Right,
,,,,,,,,,,,,,,,,,555,18,Woman,Right,5,29,0.4,2,0,180,180,0.9338393000007272,['y'],0.4652709000001778,2.0,2655.3663841000002,,,,,555,18,Woman,Right,
,,,,,,,,,,,,,,,,,555,18,Woman,Right,5,4,1,1,0,-,0,0.6329273999999714,['n'],0.6068382000003112,1.99,2659.1493175,,,,,555,18,Woman,Right,
,,,,,,,,,,,,,,,,,555,18,Woman,Right,5,48,0.15,1,0,-,180,1.0497397999997702,['y'],0.32665819999965606,1.702,2663.1325336000004,,,,,555,18,Woman,Right,
,,,,,,,,,,,,,,,,,555,18,Woman,Right,5,11,0.4,2,180,0,0,0.48691000000053464,['y'],0.20657769999979791,2.0,2667.1993458,,,,,555,18,Woman,Right,
,,,,,,,,,,,,,,,,,555,18,Woman,Right,5,5,1,2,0,180,180,0.269498300000123,['y'],0.19877139999971405,2.0,2669.8658341000005,,,,,555,18,Woman,Right,
,,,,,,,,,,,,,,,,,555,18,Woman,Right,5,71,0.15,2,180,0,0,0.5016212000000451,['y'],0.15872519999993528,2.0,2669.8658341000005,,,,,555,18,Woman,Right,
,,,,,,,,,,,,,,,,,555,18,Woman,Right,5,46,0.15,1,180,-,180,2.469532099999924,['y'],0.1347913999998127,1.5,2676.7705776999996,,,,,555,18,Woman,Right,
,,,,,,,,,,,,,,,,,555,18,Woman,Right,5,61,0.15,2,0,180,180,1.7109240999998292,['y'],1.2793213999993895,1.994,2682.5158352000003,,,,,555,18,Woman,Right,
,,,,,,,,,,,,,,,,,555,18,Woman,Right,5,47,0.15,2,180,0,180,1.4649938000002294,['n'],1.3111475000005157,1.724,2687.7324269000005,,,,,555,18,Woman,Right,
,,,,,,,,,,,,,,,,,,,,,,,,,,,,,,,,,85.0,60.0,90.0,2313.7259142000003,,,,,
