p_block,p_section,p_coherence,p_direction1,p_direction2,p_direction_response,p_direction_RT,p_change_response,p_change_RT,p_confidence,p_full_correct,p_without5_correct,p_full_total,p_without5_total,p_full_avg,p_witout5_avg,p_total_time,sub,age,sex,handedness,loop,trial randomization,coherence,condition,direction1,direction2,direction_response,direction_RT,change_response,change_RT,change_confidence,change_confidence_RT,block_direction_avg,block_stable_avg,block_change_avg,total_time,sub,age,sex,handedness,
1,1,1.0,180,-,180,0.6672754999999597,-,-,-,,,,,,,,573,18,Woman,Right,,,,,,,,,,,,,,,,,573,18,Woman,Right,
1,1,1.0,180,-,180,0.2997009999999136,-,-,-,,,,,,,,573,18,Woman,Right,,,,,,,,,,,,,,,,,573,18,Woman,Right,
1,1,1.0,180,-,180,0.016809200000352575,-,-,-,,,,,,,,573,18,Woman,Right,,,,,,,,,,,,,,,,,573,18,Woman,Right,
1,1,1.0,0,-,0,0.016644999999698484,-,-,-,,,,,,,,573,18,Woman,Right,,,,,,,,,,,,,,,,,573,18,Woman,Right,
1,1,1.0,0,-,0,1.676348400000279,-,-,-,,,,,,,,573,18,Woman,Right,,,,,,,,,,,,,,,,,573,18,Woman,Right,
1,1,1.0,180,-,180,0.30765579999933834,-,-,-,,,,,,,,573,18,Woman,Right,,,,,,,,,,,,,,,,,573,18,Woman,Right,
1,1,1.0,180,-,180,0.016799600000013015,-,-,-,,,,,,,,573,18,Woman,Right,,,,,,,,,,,,,,,,,573,18,Woman,Right,
1,1,1.0,180,-,180,0.016709800000171526,-,-,-,,,,,,,,573,18,Woman,Right,,,,,,,,,,,,,,,,,573,18,Woman,Right,
1,1,1.0,180,-,180,0.10845840000001772,-,-,-,,,,,,,,573,18,Woman,Right,,,,,,,,,,,,,,,,,573,18,Woman,Right,
1,1,1.0,180,-,180,0.3943764999994528,-,-,-,10,10,10,10,1.0,1.0,,573,18,Woman,Right,,,,,,,,,,,,,,,,,573,18,Woman,Right,
2,1,0.15,180,-,180,0.8539489000004323,-,-,-,,,,,,,,573,18,Woman,Right,,,,,,,,,,,,,,,,,573,18,Woman,Right,
2,1,0.4,0,-,0,0.2665708000004088,-,-,-,,,,,,,,573,18,Woman,Right,,,,,,,,,,,,,,,,,573,18,Woman,Right,
2,1,0.4,0,-,0,0.2609429000003729,-,-,-,,,,,,,,573,18,Woman,Right,,,,,,,,,,,,,,,,,573,18,Woman,Right,
2,1,0.4,0,-,0,0.32506980000016483,-,-,-,,,,,,,,573,18,Woman,Right,,,,,,,,,,,,,,,,,573,18,Woman,Right,
2,1,0.4,0,-,0,0.3144142999999531,-,-,-,,,,,,,,573,18,Woman,Right,,,,,,,,,,,,,,,,,573,18,Woman,Right,
2,1,0.4,0,-,0,0.26467850000062754,-,-,-,,,,,,,,573,18,Woman,Right,,,,,,,,,,,,,,,,,573,18,Woman,Right,
2,1,0.15,180,-,0,0.24042160000044532,-,-,-,,,,,,,,573,18,Woman,Right,,,,,,,,,,,,,,,,,573,18,Woman,Right,
2,1,0.4,0,-,0,0.3129031999997096,-,-,-,,,,,,,,573,18,Woman,Right,,,,,,,,,,,,,,,,,573,18,Woman,Right,
2,1,0.15,0,-,180,0.3590432000000874,-,-,-,,,,,,,,573,18,Woman,Right,,,,,,,,,,,,,,,,,573,18,Woman,Right,
2,1,0.15,180,-,0,0.2190749000001233,-,-,-,7,6,10,6,0.7,1.0,,573,18,Woman,Right,,,,,,,,,,,,,,,,,573,18,Woman,Right,
3,2,1.0,0,180,180,2.0551832000001014,['y'],3.333145099999456,2.0,,,,,,,,573,18,Woman,Right,,,,,,,,,,,,,,,,,573,18,Woman,Right,
3,2,1.0,180,0,0,2.5152069999994637,['y'],0.8318703000004462,2.0,,,,,,,,573,18,Woman,Right,,,,,,,,,,,,,,,,,573,18,Woman,Right,
3,2,1.0,180,0,0,1.2186997999997402,['y'],0.3790028000003076,2.0,,,,,,,,573,18,Woman,Right,,,,,,,,,,,,,,,,,573,18,Woman,Right,
3,2,1.0,180,0,0,1.567073199999868,['y'],0.40171359999931155,2.0,,,,,,,,573,18,Woman,Right,,,,,,,,,,,,,,,,,573,18,Woman,Right,
3,2,1.0,0,180,180,1.007430700000441,['y'],0.4171046999999817,2.0,,,,,,,,573,18,Woman,Right,,,,,,,,,,,,,,,,,573,18,Woman,Right,
3,2,1.0,0,180,180,0.7616169000002628,['y'],0.41206270000020595,2.0,,,,,,,,573,18,Woman,Right,,,,,,,,,,,,,,,,,573,18,Woman,Right,
3,2,1.0,0,180,180,1.072280800000044,['y'],0.5498987000000852,2.0,,,,,,,,573,18,Woman,Right,,,,,,,,,,,,,,,,,573,18,Woman,Right,
3,2,1.0,0,180,180,0.6523090000000593,['y'],0.6748987999999372,2.0,,,,,,,,573,18,Woman,Right,,,,,,,,,,,,,,,,,573,18,Woman,Right,
3,2,1.0,180,0,0,0.5998657999998613,['y'],0.6089048000003459,2.0,,,,,,,,573,18,Woman,Right,,,,,,,,,,,,,,,,,573,18,Woman,Right,
3,2,1.0,0,180,180,0.763253099999929,['y'],0.4540468000004694,2.0,10,10,10,10,1.0,1.0,,573,18,Woman,Right,,,,,,,,,,,,,,,,,573,18,Woman,Right,
4,2,0.15,180,0,180,1.4393193999994764,['y'],2.4949530000003506,2.0,,,,,,,,573,18,Woman,Right,,,,,,,,,,,,,,,,,573,18,Woman,Right,
4,2,0.15,0,180,180,1.4090344999995068,['y'],0.761620799999946,2.0,,,,,,,,573,18,Woman,Right,,,,,,,,,,,,,,,,,573,18,Woman,Right,
4,2,0.4,0,180,180,1.0673394999994343,['y'],0.370343600000524,2.0,,,,,,,,573,18,Woman,Right,,,,,,,,,,,,,,,,,573,18,Woman,Right,
4,2,0.15,0,180,180,0.8076304000005621,['y'],0.36752830000023096,2.0,,,,,,,,573,18,Woman,Right,,,,,,,,,,,,,,,,,573,18,Woman,Right,
4,2,0.4,0,180,180,0.610492200000408,['y'],0.3798458999999639,2.0,,,,,,,,573,18,Woman,Right,,,,,,,,,,,,,,,,,573,18,Woman,Right,
4,2,0.15,0,180,180,2.477753400000438,['y'],1.0038602000004175,2.0,,,,,,,,573,18,Woman,Right,,,,,,,,,,,,,,,,,573,18,Woman,Right,
4,2,0.4,0,180,180,1.2561353000000963,['y'],0.3362538000001223,2.0,,,,,,,,573,18,Woman,Right,,,,,,,,,,,,,,,,,573,18,Woman,Right,
4,2,0.15,180,0,0,1.2650122000004558,['n'],1.6957001000000673,2.0,,,,,,,,573,18,Woman,Right,,,,,,,,,,,,,,,,,573,18,Woman,Right,
4,2,0.4,180,0,180,1.2182996000001367,['y'],1.8896639999993567,2.0,,,,,,,,573,18,Woman,Right,,,,,,,,,,,,,,,,,573,18,Woman,Right,
4,2,0.4,180,0,0,0.6003113999995549,['y'],2.257818299999599,2.0,8,4,10,5,0.8,0.8,,573,18,Woman,Right,,,,,,,,,,,,,,,,,573,18,Woman,Right,
5,3,0.15,180,0,0,1.447596899999553,['y'],1.575214400000732,2.0,,,,,,,,573,18,Woman,Right,,,,,,,,,,,,,,,,,573,18,Woman,Right,
5,3,0.4,0,180,180,0.6970228000000134,['y'],0.3912850000006074,2.0,,,,,,,,573,18,Woman,Right,,,,,,,,,,,,,,,,,573,18,Woman,Right,
5,3,0.15,180,-,0,1.2690769999999247,['n'],1.1875111000008474,2.0,,,,,,,,573,18,Woman,Right,,,,,,,,,,,,,,,,,573,18,Woman,Right,
5,3,1.0,0,180,180,1.8284248999998454,['y'],0.4619399999992311,2.0,,,,,,,,573,18,Woman,Right,,,,,,,,,,,,,,,,,573,18,Woman,Right,
5,3,1.0,180,-,180,1.045851799999582,['n'],0.40592780000042694,2.0,,,,,,,,573,18,Woman,Right,,,,,,,,,,,,,,,,,573,18,Woman,Right,
5,3,0.4,180,-,180,1.0362623999999414,['n'],1.1317998000004081,2.0,,,,,,,,573,18,Woman,Right,,,,,,,,,,,,,,,,,573,18,Woman,Right,
5,3,0.4,0,180,180,0.6743559999995341,['y'],0.705079499999556,2.0,,,,,,,,573,18,Woman,Right,,,,,,,,,,,,,,,,,573,18,Woman,Right,
5,3,0.4,0,-,0,2.4840518999999404,['y'],1.7094170999998823,1.214,,,,,,,,573,18,Woman,Right,,,,,,,,,,,,,,,,,573,18,Woman,Right,
5,3,1.0,0,-,0,1.0944890999999188,['n'],0.372867000000042,2.0,,,,,,,,573,18,Woman,Right,,,,,,,,,,,,,,,,,573,18,Woman,Right,
5,3,0.4,0,-,180,1.2004612000000634,['n'],1.2493463999999221,1.97,8,7,10,8,0.8,0.875,,573,18,Woman,Right,,,,,,,,,,,,,,,,,573,18,Woman,Right,
,,,,,,,,,,,,,,,,3.99999953515362e-06,573,18,Woman,Right,,,,,,,,,,,,,,,,,573,18,Woman,Right,
,,,,,,,,,,,,,,,,,573,18,Woman,Right,0,31,0.4,2,180,0,0,1.1124406999997518,['y'],1.1587636999993265,2.0,318.1661546000005,,,,,573,18,Woman,Right,
,,,,,,,,,,,,,,,,,573,18,Woman,Right,0,30,0.4,1,180,-,180,1.1285295000006954,['n'],0.8469584999993458,2.0,323.13312510000014,,,,,573,18,Woman,Right,
,,,,,,,,,,,,,,,,,573,18,Woman,Right,0,8,0.4,1,0,-,0,1.2163740000005419,['n'],1.6709593000005043,2.0,328.7997393000005,,,,,573,18,Woman,Right,
,,,,,,,,,,,,,,,,,573,18,Woman,Right,0,50,0.15,1,180,-,180,0.8310590999999476,['n'],1.4148877000006905,2.0,334.26639010000054,,,,,573,18,Woman,Right,
,,,,,,,,,,,,,,,,,573,18,Woman,Right,0,15,0.4,2,180,0,0,0.7789177999993626,['y'],1.2389929999999367,2.0,339.4163331,,,,,573,18,Woman,Right,
,,,,,,,,,,,,,,,,,573,18,Woman,Right,0,2,1,1,180,-,180,0.4867764000000534,['n'],1.1586228000005576,2.0,343.93319919999976,,,,,573,18,Woman,Right,
,,,,,,,,,,,,,,,,,573,18,Woman,Right,0,36,0.4,1,0,-,0,0.9383310000002894,['n'],2.2632541000002675,2.0,349.8828647999999,,,,,573,18,Woman,Right,
,,,,,,,,,,,,,,,,,573,18,Woman,Right,0,47,0.15,2,180,0,180,0.6946205000003829,['n'],1.5029882000008001,2.0,355.2336774000005,,,,,573,18,Woman,Right,
,,,,,,,,,,,,,,,,,573,18,Woman,Right,0,76,0.15,1,0,-,0,2.037178700000368,['n'],1.9347284000004947,1.798,362.38266470000053,,,,,573,18,Woman,Right,
,,,,,,,,,,,,,,,,,573,18,Woman,Right,0,65,0.15,2,0,180,0,1.2596842000002653,['n'],1.2627811000002112,1.512,368.4660780000004,,,,,573,18,Woman,Right,
,,,,,,,,,,,,,,,,,573,18,Woman,Right,0,59,0.15,2,180,0,0,1.4424453999999969,['n'],1.7428811999998288,1.5939999999999999,374.5660552999998,,,,,573,18,Woman,Right,
,,,,,,,,,,,,,,,,,573,18,Woman,Right,0,46,0.15,1,180,-,180,1.3500778999996328,['y'],1.3357772999997906,1.708,380.73266590000003,,,,,573,18,Woman,Right,
,,,,,,,,,,,,,,,,,573,18,Woman,Right,0,43,0.4,2,180,0,0,0.924076000000241,['y'],1.9270251999996617,2.0,386.7497706000004,,,,,573,18,Woman,Right,
,,,,,,,,,,,,,,,,,573,18,Woman,Right,0,55,0.15,2,180,0,0,0.9119117000000188,['y'],1.559091800000715,2.0,392.1330981000001,,,,,573,18,Woman,Right,
,,,,,,,,,,,,,,,,,573,18,Woman,Right,0,78,0.15,1,180,-,180,0.6585433999998713,['n'],1.494357300000047,2.0,397.08264430000054,,,,,573,18,Woman,Right,
,,,,,,,,,,,,,,,,,573,18,Woman,Right,0,16,0.4,1,0,-,0,0.36306970000077854,['n'],1.262960799999746,2.0,401.73264459999973,,,,,573,18,Woman,Right,
,,,,,,,,,,,,,,,,,573,18,Woman,Right,0,23,0.4,2,180,0,0,3.566819900000155,['y'],1.4706218999999692,1.05,410.2993550000001,,,,,573,18,Woman,Right,
,,,,,,,,,,,,,,,,,573,18,Woman,Right,0,14,0.4,1,180,-,180,0.9577645999997912,['n'],1.647787299999436,1.05,410.2993550000001,,,,,573,18,Woman,Right,
,,,,,,,,,,,,,,,,,573,18,Woman,Right,0,35,0.4,2,180,0,0,0.6819201999996949,['y'],1.5587267000000793,2.0,420.9328178000005,,,,,573,18,Woman,Right,
,,,,,,,,,,,,,,,,,573,18,Woman,Right,0,12,0.4,1,0,-,0,0.7235537000005934,['n'],1.0946237000007386,2.0,420.9328178000005,,,,,573,18,Woman,Right,
,,,,,,,,,,,,,,,,,573,18,Woman,Right,0,38,0.4,1,180,-,180,2.208165000000008,['n'],1.2072605000003023,2.0,432.0825451999999,,,,,573,18,Woman,Right,
,,,,,,,,,,,,,,,,,573,18,Woman,Right,0,18,0.4,1,180,-,180,0.5815824999999677,['n'],0.9831199999998717,2.0,436.51622270000007,,,,,573,18,Woman,Right,
,,,,,,,,,,,,,,,,,573,18,Woman,Right,0,32,0.4,1,0,-,0,0.6608146999997189,['n'],1.9108385999998063,2.0,441.84918629999993,,,,,573,18,Woman,Right,
,,,,,,,,,,,,,,,,,573,18,Woman,Right,0,61,0.15,2,0,180,180,0.985927100000481,['y'],1.5669933999997738,2.0,446.9658212000004,,,,,573,18,Woman,Right,
,,,,,,,,,,,,,,,,,573,18,Woman,Right,0,71,0.15,2,180,0,0,0.7148426000003383,['y'],2.2950104000001375,2.0,452.7658379000004,,,,,573,18,Woman,Right,
,,,,,,,,,,,,,,,,,573,18,Woman,Right,0,72,0.15,1,0,-,180,0.8953404999992927,['n'],1.366855399999622,2.0,457.6824922000005,,,,,573,18,Woman,Right,
,,,,,,,,,,,,,,,,,573,18,Woman,Right,0,13,0.4,2,0,180,180,0.979460200000176,['y'],1.6386929000000237,2.0,464.2827047999999,,,,,573,18,Woman,Right,
,,,,,,,,,,,,,,,,,573,18,Woman,Right,0,17,0.4,2,0,180,180,0.5901043000003483,['y'],1.4469459000001734,2.0,468.8826544000003,,,,,573,18,Woman,Right,
,,,,,,,,,,,,,,,,,573,18,Woman,Right,0,22,0.4,1,180,-,180,0.9671961000003648,['n'],1.6003352000006998,2.0,474.41581589999987,,,,,573,18,Woman,Right,
,,,,,,,,,,,,,,,,,573,18,Woman,Right,0,60,0.15,1,0,-,0,0.7519591000000219,['n'],1.1829261000002589,2.0,479.24928960000034,,,,,573,18,Woman,Right,
,,,,,,,,,,,,,,,,,573,18,Woman,Right,0,63,0.15,2,180,0,0,0.6929626999999527,['y'],1.4629546000005575,2.0,484.53257459999986,,,,,573,18,Woman,Right,
,,,,,,,,,,,,,,,,,573,18,Woman,Right,0,49,0.15,2,0,180,180,0.706406700000116,['y'],0.8784802000000127,2.0,488.69902360000015,,,,,573,18,Woman,Right,
,,,,,,,,,,,,,,,,,573,18,Woman,Right,0,5,1,2,0,180,180,1.8839969999999084,['y'],0.678777899999659,2.0,494.0823952999999,,,,,573,18,Woman,Right,
,,,,,,,,,,,,,,,,,573,18,Woman,Right,0,4,1,1,0,-,0,0.6203234999993583,['n'],1.598755600000004,2.0,499.3824249999998,,,,,573,18,Woman,Right,
,,,,,,,,,,,,,,,,,573,18,Woman,Right,0,53,0.15,2,0,180,180,0.8961254000005283,['n'],1.3028017000006002,2.0,504.3990579000001,,,,,573,18,Woman,Right,
,,,,,,,,,,,,,,,,,573,18,Woman,Right,0,33,0.4,2,0,180,180,0.7694493999997576,['y'],2.350846599999386,2.0,510.7822581999999,,,,,573,18,Woman,Right,
,,,,,,,,,,,,,,,,,573,18,Woman,Right,0,6,1,1,180,-,180,0.40033820000007836,['n'],1.0706553999998505,2.0,515.2990113000005,,,,,573,18,Woman,Right,
,,,,,,,,,,,,,,,,,573,18,Woman,Right,0,67,0.15,2,180,0,180,1.2234036999998352,['n'],1.5588792999997167,1.0,521.2322381000004,,,,,573,18,Woman,Right,
,,,,,,,,,,,,,,,,,573,18,Woman,Right,0,75,0.15,2,180,0,0,2.0121790000002875,['y'],1.4226932999999917,2.0,527.7492838999997,,,,,573,18,Woman,Right,
,,,,,,,,,,,,,,,,,573,18,Woman,Right,0,37,0.4,2,0,180,180,1.458803700000317,['y'],0.49477939999997034,2.0,533.0322672000002,,,,,573,18,Woman,Right,
,,,,,,,,,,,,,,,,,573,18,Woman,Right,0,68,0.15,1,0,-,180,0.8554304999997839,['n'],1.7028737999999066,1.016,538.1821596999998,,,,,573,18,Woman,Right,
,,,,,,,,,,,,,,,,,573,18,Woman,Right,0,39,0.4,2,180,0,0,1.0466458999999304,['y'],1.7269612999998571,2.0,543.7158285000005,,,,,573,18,Woman,Right,
,,,,,,,,,,,,,,,,,573,18,Woman,Right,0,10,0.4,1,180,-,180,0.7478102999994007,['n'],1.2144525000003341,1.004,548.4155787999998,,,,,573,18,Woman,Right,
,,,,,,,,,,,,,,,,,573,18,Woman,Right,0,24,0.4,1,0,-,0,2.3862687000000733,['n'],1.4148537999999462,1.012,555.8988982000001,,,,,573,18,Woman,Right,
,,,,,,,,,,,,,,,,,573,18,Woman,Right,0,48,0.15,1,0,-,180,1.7008161000003383,['n'],0.9747060999998212,1.062,561.7988968999998,,,,,573,18,Woman,Right,
,,,,,,,,,,,,,,,,,573,18,Woman,Right,0,26,0.4,1,180,-,180,0.9205213000004733,['n'],2.671083400000498,1.07,568.2988359999999,,,,,573,18,Woman,Right,
,,,,,,,,,,,,,,,,,573,18,Woman,Right,0,42,0.4,1,180,-,180,0.7354764000001524,['n'],1.0469317999995837,1.958,573.6988625000004,,,,,573,18,Woman,Right,
,,,,,,,,,,,,,,,,,573,18,Woman,Right,0,57,0.15,2,0,180,180,0.8628484999999273,['n'],1.9349738999999317,1.0,580.0321395999999,,,,,573,18,Woman,Right,
,,,,,,,,,,,,,,,,,573,18,Woman,Right,0,54,0.15,1,180,-,0,1.8955146999996941,['n'],1.5347811000001457,1.108,588.3830173000006,,,,,573,18,Woman,Right,
,,,,,,,,,,,,,,,,,573,18,Woman,Right,0,25,0.4,2,0,180,180,0.6956089000004795,['y'],1.0708473000004233,2.0,593.3154684000001,,,,,573,18,Woman,Right,
,,,,,,,,,,,,,,,,,573,18,Woman,Right,0,3,1,2,180,0,0,2.3881262000004426,['y'],0.5349350999995295,2.0,599.1323469999998,,,,,573,18,Woman,Right,
,,,,,,,,,,,,,,,,,573,18,Woman,Right,0,45,0.15,2,0,180,0,1.0761726000000635,['n'],2.2631010000004608,2.0,605.1487509999997,,,,,573,18,Woman,Right,
,,,,,,,,,,,,,,,,,573,18,Woman,Right,0,64,0.15,1,0,-,180,1.422421399999621,['n'],1.1668196000000535,1.09,610.3323022000004,,,,,573,18,Woman,Right,
,,,,,,,,,,,,,,,,,573,18,Woman,Right,0,70,0.15,1,180,-,180,0.42190709999977116,['n'],0.9746304999998756,2.0,614.9162797999998,,,,,573,18,Woman,Right,
,,,,,,,,,,,,,,,,,573,18,Woman,Right,0,20,0.4,1,0,-,0,1.4499894000000495,['n'],0.9570868000000701,1.548,621.6653664000005,,,,,573,18,Woman,Right,
,,,,,,,,,,,,,,,,,573,18,Woman,Right,0,27,0.4,2,180,0,0,0.9479287999993176,['y'],1.3907399999998233,2.0,626.5323481000005,,,,,573,18,Woman,Right,
,,,,,,,,,,,,,,,,,573,18,Woman,Right,0,9,0.4,2,0,180,180,1.6624394000000393,['y'],1.5352017000004707,1.0,632.1994606999997,,,,,573,18,Woman,Right,
,,,,,,,,,,,,,,,,,573,18,Woman,Right,0,52,0.15,1,0,-,180,1.2017983000005188,['y'],1.3506164999998873,1.07,637.2653746000005,,,,,573,18,Woman,Right,
,,,,,,,,,,,,,,,,,573,18,Woman,Right,0,62,0.15,1,180,-,180,0.9113240999995469,['y'],1.8787485000002562,1.1219999999999999,642.5820630999997,,,,,573,18,Woman,Right,
,,,,,,,,,,,,,,,,,573,18,Woman,Right,0,0,1,1,0,-,0,0.31244280000009894,['n'],1.0786131000004389,2.0,646.6986360000001,,,,,573,18,Woman,Right,
,,,,,,,,,,,,,,,,,573,18,Woman,Right,0,29,0.4,2,0,180,180,0.8202613000003112,['n'],1.5826421000001574,2.0,651.6653310000002,,,,,573,18,Woman,Right,
,,,,,,,,,,,,,,,,,573,18,Woman,Right,0,73,0.15,2,0,180,180,1.3089602000000014,['n'],1.4307328999993842,1.182,657.9652307000006,,,,,573,18,Woman,Right,
,,,,,,,,,,,,,,,,,573,18,Woman,Right,0,19,0.4,2,180,0,0,0.52003699999932,['y'],1.1744802000002892,2.0,662.1488394999997,,,,,573,18,Woman,Right,
,,,,,,,,,,,,,,,,,573,18,Woman,Right,0,51,0.15,2,180,0,0,0.8275299999995696,['y'],0.7752489000004061,2.0,666.3155095000002,,,,,573,18,Woman,Right,
,,,,,,,,,,,,,,,,,573,18,Woman,Right,0,28,0.4,1,0,-,0,0.5375780000003942,['n'],0.8230513999997129,2.0,671.1654718999998,,,,,573,18,Woman,Right,
,,,,,,,,,,,,,,,,,573,18,Woman,Right,0,34,0.4,1,180,-,180,0.5241759000000457,['n'],0.759018499999911,1.0,675.9985311999999,,,,,573,18,Woman,Right,
,,,,,,,,,,,,,,,,,573,18,Woman,Right,0,74,0.15,1,180,-,0,0.940470099999402,['n'],1.4071371999998519,1.686,681.9820958999999,,,,,573,18,Woman,Right,
,,,,,,,,,,,,,,,,,573,18,Woman,Right,0,66,0.15,1,180,-,180,1.5598614000000453,['y'],0.6387568000000101,1.078,687.4321053000003,,,,,573,18,Woman,Right,
,,,,,,,,,,,,,,,,,573,18,Woman,Right,0,58,0.15,1,180,-,180,0.8697196000002805,['n'],1.1910214000008637,1.174,692.4485587999998,,,,,573,18,Woman,Right,
,,,,,,,,,,,,,,,,,573,18,Woman,Right,0,7,1,2,180,0,0,1.2084884999994756,['y'],0.5752170999994632,2.0,696.9984719000004,,,,,573,18,Woman,Right,
,,,,,,,,,,,,,,,,,573,18,Woman,Right,0,69,0.15,2,0,180,180,0.7344795999997586,['y'],1.1592829000001075,1.302,701.4988556999997,,,,,573,18,Woman,Right,
,,,,,,,,,,,,,,,,,573,18,Woman,Right,0,1,1,2,0,180,180,0.9027641000002404,['y'],1.8945160000002943,2.0,707.4318252000003,,,,,573,18,Woman,Right,
,,,,,,,,,,,,,,,,,573,18,Woman,Right,0,77,0.15,2,0,180,180,0.9307558999998946,['y'],1.0548537000004217,1.222,712.1819602000005,,,,,573,18,Woman,Right,
,,,,,,,,,,,,,,,,,573,18,Woman,Right,0,44,0.15,1,0,-,180,0.9767143999997643,['y'],1.4625003000001016,1.0,717.7484672999999,,,,,573,18,Woman,Right,
,,,,,,,,,,,,,,,,,573,18,Woman,Right,0,21,0.4,2,0,180,180,0.8223056999995606,['y'],1.0869024000003265,1.0,717.7484672999999,,,,,573,18,Woman,Right,
,,,,,,,,,,,,,,,,,573,18,Woman,Right,0,41,0.4,2,0,180,180,0.8799616999995123,['y'],2.5906879000003755,1.26,729.3818055000002,,,,,573,18,Woman,Right,
,,,,,,,,,,,,,,,,,573,18,Woman,Right,0,40,0.4,1,0,-,180,0.7245950000005905,['y'],2.6470727000005354,1.218,735.8989122000003,,,,,573,18,Woman,Right,
,,,,,,,,,,,,,,,,,573,18,Woman,Right,0,56,0.15,1,0,-,0,0.71081200000026,['n'],1.4384970000000976,1.764,743.0652670999998,,,,,573,18,Woman,Right,
,,,,,,,,,,,,,,,,,573,18,Woman,Right,0,79,0.15,2,180,0,0,1.3102572999996482,['y'],1.054881000000023,1.692,748.7317239000004,,,,,573,18,Woman,Right,
,,,,,,,,,,,,,,,,,573,18,Woman,Right,0,11,0.4,2,180,0,180,1.9402794000006907,['n'],1.1589850999998816,1.504,754.3485490000003,,,,,573,18,Woman,Right,
,,,,,,,,,,,,,,,,,573,18,Woman,Right,1,70,0.15,1,180,-,180,0.9837962000001426,['y'],1.1746911000000182,1.638,796.0818041000002,82.5,85.0,75.0,,573,18,Woman,Right,
,,,,,,,,,,,,,,,,,573,18,Woman,Right,1,63,0.15,2,180,0,0,0.4002495999993698,['y'],1.4139443000003666,1.924,800.4991900000005,,,,,573,18,Woman,Right,
,,,,,,,,,,,,,,,,,573,18,Woman,Right,1,62,0.15,1,180,-,180,0.8380480999994688,['n'],1.9108383000002505,1.28,806.0488657000005,,,,,573,18,Woman,Right,
,,,,,,,,,,,,,,,,,573,18,Woman,Right,1,75,0.15,2,180,0,0,0.6470024999998714,['y'],0.6071300000003248,2.0,810.2486483000002,,,,,573,18,Woman,Right,
,,,,,,,,,,,,,,,,,573,18,Woman,Right,1,68,0.15,1,0,-,0,1.4160964000002423,['n'],1.7905867999998009,1.654,816.8151601,,,,,573,18,Woman,Right,
,,,,,,,,,,,,,,,,,573,18,Woman,Right,1,21,0.4,2,0,180,180,0.8820303000002241,['y'],0.5667362000003777,1.88,821.2151309000001,,,,,573,18,Woman,Right,
,,,,,,,,,,,,,,,,,573,18,Woman,Right,1,4,1,1,0,-,0,0.7822832999991078,['y'],0.6785281000002215,1.8679999999999999,825.4817653,,,,,573,18,Woman,Right,
,,,,,,,,,,,,,,,,,573,18,Woman,Right,1,24,0.4,1,0,-,0,1.260932899999716,['y'],1.5188187000003381,1.702,830.9823776000003,,,,,573,18,Woman,Right,
,,,,,,,,,,,,,,,,,573,18,Woman,Right,1,41,0.4,2,0,180,180,0.6171860999993442,['y'],1.1739695999995092,1.806,835.4482536000005,,,,,573,18,Woman,Right,
,,,,,,,,,,,,,,,,,573,18,Woman,Right,1,20,0.4,1,0,-,0,1.1746490000004997,['y'],1.6706461999992825,1.5739999999999998,840.9483233000001,,,,,573,18,Woman,Right,
,,,,,,,,,,,,,,,,,573,18,Woman,Right,1,49,0.15,2,0,180,180,0.8575049000000945,['y'],1.1906879999996818,1.75,846.0648693000003,,,,,573,18,Woman,Right,
,,,,,,,,,,,,,,,,,573,18,Woman,Right,1,27,0.4,2,180,0,0,0.803316100000302,['y'],1.1748596999996153,1.532,850.5814252,,,,,573,18,Woman,Right,
,,,,,,,,,,,,,,,,,573,18,Woman,Right,1,30,0.4,1,180,-,180,0.5768354000001636,['n'],1.046982200000457,1.246,856.1650368999999,,,,,573,18,Woman,Right,
,,,,,,,,,,,,,,,,,573,18,Woman,Right,1,22,0.4,1,180,-,180,0.8027277999999569,['n'],1.318893300000127,1.75,861.1487932,,,,,573,18,Woman,Right,
,,,,,,,,,,,,,,,,,573,18,Woman,Right,1,12,0.4,1,0,-,180,0.8928478999996514,['y'],1.0786881000003632,1.726,865.6980866000004,,,,,573,18,Woman,Right,
,,,,,,,,,,,,,,,,,573,18,Woman,Right,1,38,0.4,1,180,-,180,0.8874932000007902,['n'],1.3667851000000155,1.228,870.7480606999998,,,,,573,18,Woman,Right,
,,,,,,,,,,,,,,,,,573,18,Woman,Right,1,47,0.15,2,180,0,0,0.6039833000004364,['y'],0.8548285999995642,1.608,874.8481065000005,,,,,573,18,Woman,Right,
,,,,,,,,,,,,,,,,,573,18,Woman,Right,1,28,0.4,1,0,-,0,1.0614770000001954,['y'],1.3586199000001216,1.714,879.9314042000005,,,,,573,18,Woman,Right,
,,,,,,,,,,,,,,,,,573,18,Woman,Right,1,44,0.15,1,0,-,0,0.8343268999997235,['n'],1.262491599999521,1.6,886.0156351000005,,,,,573,18,Woman,Right,
,,,,,,,,,,,,,,,,,573,18,Woman,Right,1,32,0.4,1,0,-,180,0.7401154999997743,['n'],1.2951494000008097,1.252,891.1813572000001,,,,,573,18,Woman,Right,
,,,,,,,,,,,,,,,,,573,18,Woman,Right,1,39,0.4,2,180,0,180,1.2488335999996707,['n'],1.5670619000002262,1.13,896.7646574,,,,,573,18,Woman,Right,
,,,,,,,,,,,,,,,,,573,18,Woman,Right,1,54,0.15,1,180,-,180,1.1282664000000295,['n'],0.9987016000004587,1.056,901.9649107000005,,,,,573,18,Woman,Right,
,,,,,,,,,,,,,,,,,573,18,Woman,Right,1,56,0.15,1,0,-,0,0.6939794999998412,['n'],1.7828975000002174,1.056,901.9649107000005,,,,,573,18,Woman,Right,
,,,,,,,,,,,,,,,,,573,18,Woman,Right,1,77,0.15,2,0,180,0,2.0602064999993672,['n'],0.822599099999934,1.8639999999999999,913.9148573000002,,,,,573,18,Woman,Right,
,,,,,,,,,,,,,,,,,573,18,Woman,Right,1,78,0.15,1,180,-,180,1.0398344000004727,['n'],1.3589048000003459,1.416,919.0646421000001,,,,,573,18,Woman,Right,
,,,,,,,,,,,,,,,,,573,18,Woman,Right,1,25,0.4,2,0,180,180,0.7394646000002467,['y'],0.6546335000002728,1.792,923.3978599000002,,,,,573,18,Woman,Right,
,,,,,,,,,,,,,,,,,573,18,Woman,Right,1,9,0.4,2,0,180,180,0.8766913999997996,['y'],0.486178099999961,1.726,927.4148240000004,,,,,573,18,Woman,Right,
,,,,,,,,,,,,,,,,,573,18,Woman,Right,1,17,0.4,2,0,180,180,0.7381848000004538,['y'],0.5107061999997313,1.71,931.4480947000002,,,,,573,18,Woman,Right,
,,,,,,,,,,,,,,,,,573,18,Woman,Right,1,79,0.15,2,180,0,0,0.5748459000005823,['y'],1.142754800000148,1.83,935.8314765000005,,,,,573,18,Woman,Right,
,,,,,,,,,,,,,,,,,573,18,Woman,Right,1,40,0.4,1,0,-,180,0.9859129999995275,['y'],2.351011099999596,1.6480000000000001,942.0648289999999,,,,,573,18,Woman,Right,
,,,,,,,,,,,,,,,,,573,18,Woman,Right,1,71,0.15,2,180,0,0,0.47198539999953937,['y'],0.8549948999998378,1.716,945.7480876999998,,,,,573,18,Woman,Right,
,,,,,,,,,,,,,,,,,573,18,Woman,Right,1,10,0.4,1,180,-,180,0.6271575999999186,['n'],1.2626510000000053,1.63,950.3978483999999,,,,,573,18,Woman,Right,
,,,,,,,,,,,,,,,,,573,18,Woman,Right,1,16,0.4,1,0,-,0,1.027458800000204,['y'],0.5908011000001352,1.658,954.8811691000001,,,,,573,18,Woman,Right,
,,,,,,,,,,,,,,,,,573,18,Woman,Right,1,3,1,2,180,0,0,1.0842571000002863,['y'],0.4147485000003144,1.646,958.9478055,,,,,573,18,Woman,Right,
,,,,,,,,,,,,,,,,,573,18,Woman,Right,1,42,0.4,1,180,-,180,0.5867954999994254,['n'],0.7751143999994383,1.816,962.9644663999998,,,,,573,18,Woman,Right,
,,,,,,,,,,,,,,,,,573,18,Woman,Right,1,67,0.15,2,180,0,0,1.8910753000000113,['n'],0.2865775999998732,1.706,968.1313921000001,,,,,573,18,Woman,Right,
,,,,,,,,,,,,,,,,,573,18,Woman,Right,1,0,1,1,0,-,0,0.4555854000000181,['n'],0.566750700000739,1.554,972.0144775999997,,,,,573,18,Woman,Right,
,,,,,,,,,,,,,,,,,573,18,Woman,Right,1,48,0.15,1,0,-,0,0.6310077999996793,['n'],0.8067892999997639,1.554,972.0144775999997,,,,,573,18,Woman,Right,
,,,,,,,,,,,,,,,,,573,18,Woman,Right,1,29,0.4,2,0,180,180,0.6678839999995034,['y'],0.43101190000015777,1.722,979.8812078000001,,,,,573,18,Woman,Right,
,,,,,,,,,,,,,,,,,573,18,Woman,Right,1,19,0.4,2,180,0,0,0.31277399999999034,['y'],0.46245900000030815,1.764,983.2815901000004,,,,,573,18,Woman,Right,
,,,,,,,,,,,,,,,,,573,18,Woman,Right,1,33,0.4,2,0,180,180,1.7878639999998995,['y'],1.0545490000004065,1.698,988.7477933999999,,,,,573,18,Woman,Right,
,,,,,,,,,,,,,,,,,573,18,Woman,Right,1,50,0.15,1,180,-,180,0.5579354000001331,['n'],0.7508707000006325,1.422,993.0151071999999,,,,,573,18,Woman,Right,
,,,,,,,,,,,,,,,,,573,18,Woman,Right,1,18,0.4,1,180,-,180,1.562935699999798,['n'],0.35877310000068974,1.626,997.4477525000002,,,,,573,18,Woman,Right,
,,,,,,,,,,,,,,,,,573,18,Woman,Right,1,8,0.4,1,0,-,0,1.0739481999999043,['y'],0.36680580000029295,1.62,1002.9477654000002,,,,,573,18,Woman,Right,
,,,,,,,,,,,,,,,,,573,18,Woman,Right,1,34,0.4,1,180,-,180,1.0089508999999452,['n'],0.3987582999998267,1.642,1007.1309775,,,,,573,18,Woman,Right,
,,,,,,,,,,,,,,,,,573,18,Woman,Right,1,64,0.15,1,0,-,0,0.5962607999999818,['n'],0.8951441000008344,1.672,1011.2811258000002,,,,,573,18,Woman,Right,
,,,,,,,,,,,,,,,,,573,18,Woman,Right,1,55,0.15,2,180,0,0,0.8167825999998968,['y'],0.4536377000003995,1.662,1015.1309796000005,,,,,573,18,Woman,Right,
,,,,,,,,,,,,,,,,,573,18,Woman,Right,1,6,1,1,180,-,180,0.6394889000002877,['n'],1.0628855000004478,1.662,1019.4311055999997,,,,,573,18,Woman,Right,
,,,,,,,,,,,,,,,,,573,18,Woman,Right,1,15,0.4,2,180,0,0,0.6993277999999918,['y'],1.7670639999996638,1.758,1025.9310002000002,,,,,573,18,Woman,Right,
,,,,,,,,,,,,,,,,,573,18,Woman,Right,1,76,0.15,1,0,-,0,0.8177184000005582,['y'],0.7427950999999666,1.808,1030.0142370000003,,,,,573,18,Woman,Right,
,,,,,,,,,,,,,,,,,573,18,Woman,Right,1,43,0.4,2,180,0,0,0.8842451000000437,['y'],1.406898000000183,1.808,1036.0145322999997,,,,,573,18,Woman,Right,
,,,,,,,,,,,,,,,,,573,18,Woman,Right,1,57,0.15,2,0,180,0,0.8668064000003142,['n'],0.5363936999992802,1.808,1040.6476375000002,,,,,573,18,Woman,Right,
,,,,,,,,,,,,,,,,,573,18,Woman,Right,1,60,0.15,1,0,-,0,1.3217017999995733,['y'],0.998794000000089,1.808,1047.0811982000005,,,,,573,18,Woman,Right,
,,,,,,,,,,,,,,,,,573,18,Woman,Right,1,61,0.15,2,0,180,0,1.0029720000002271,['y'],0.8551627999995617,1.808,1052.4477062000005,,,,,573,18,Woman,Right,
,,,,,,,,,,,,,,,,,573,18,Woman,Right,1,37,0.4,2,0,180,180,0.9454846000007819,['y'],0.583291800000552,1.808,1056.5643910999997,,,,,573,18,Woman,Right,
,,,,,,,,,,,,,,,,,573,18,Woman,Right,1,72,0.15,1,0,-,0,0.2949023999999554,['y'],1.7908801000003223,1.808,1061.1310946000003,,,,,573,18,Woman,Right,
,,,,,,,,,,,,,,,,,573,18,Woman,Right,1,69,0.15,2,0,180,180,0.7276163999995333,['n'],0.759433899999749,1.808,1065.6975597,,,,,573,18,Woman,Right,
,,,,,,,,,,,,,,,,,573,18,Woman,Right,1,73,0.15,2,0,180,180,1.0676910000001953,['n'],0.5830415999998877,1.808,1070.1810802,,,,,573,18,Woman,Right,
,,,,,,,,,,,,,,,,,573,18,Woman,Right,1,65,0.15,2,0,180,0,2.0998176000002786,['y'],0.9232668999993621,1.808,1076.0475477,,,,,573,18,Woman,Right,
,,,,,,,,,,,,,,,,,573,18,Woman,Right,1,1,1,2,0,180,180,1.2128882999995767,['y'],0.6308939000000464,1.808,1080.8975394999998,,,,,573,18,Woman,Right,
,,,,,,,,,,,,,,,,,573,18,Woman,Right,1,36,0.4,1,0,-,0,0.746857799999816,['y'],1.6868701000003057,1.808,1085.7810166,,,,,573,18,Woman,Right,
,,,,,,,,,,,,,,,,,573,18,Woman,Right,1,53,0.15,2,0,180,180,1.4849985999999262,['y'],0.7594275000001289,1.798,1090.4975254,,,,,573,18,Woman,Right,
,,,,,,,,,,,,,,,,,573,18,Woman,Right,1,45,0.15,2,0,180,180,0.4914410000001226,['n'],1.127951899999971,1.798,1094.3141803999997,,,,,573,18,Woman,Right,
,,,,,,,,,,,,,,,,,573,18,Woman,Right,1,46,0.15,1,180,-,180,0.3942501000001357,['n'],0.9349610999997822,1.798,1098.5150014,,,,,573,18,Woman,Right,
,,,,,,,,,,,,,,,,,573,18,Woman,Right,1,52,0.15,1,0,-,0,0.26304520000030607,['n'],0.8388244000007035,1.798,1102.3810540000004,,,,,573,18,Woman,Right,
,,,,,,,,,,,,,,,,,573,18,Woman,Right,1,2,1,1,180,-,180,0.33434240000042337,['y'],1.0153445999994801,1.798,1106.730794,,,,,573,18,Woman,Right,
,,,,,,,,,,,,,,,,,573,18,Woman,Right,1,5,1,2,0,180,180,1.0243321999996624,['y'],0.551114900000357,1.792,1111.3643868999998,,,,,573,18,Woman,Right,
,,,,,,,,,,,,,,,,,573,18,Woman,Right,1,23,0.4,2,180,0,0,0.9982819000006202,['n'],0.8874197000004642,1.792,1116.5309585000005,,,,,573,18,Woman,Right,
,,,,,,,,,,,,,,,,,573,18,Woman,Right,1,26,0.4,1,180,-,180,1.1290319999998246,['y'],2.054925800000092,1.792,1122.4474703000005,,,,,573,18,Woman,Right,
,,,,,,,,,,,,,,,,,573,18,Woman,Right,1,74,0.15,1,180,-,0,0.397089799999776,['n'],0.9992096000005404,1.792,1126.6974390000005,,,,,573,18,Woman,Right,
,,,,,,,,,,,,,,,,,573,18,Woman,Right,1,51,0.15,2,180,0,0,1.317411699999866,['n'],2.734564099999261,1.792,1133.2307072000003,,,,,573,18,Woman,Right,
,,,,,,,,,,,,,,,,,573,18,Woman,Right,1,66,0.15,1,180,-,180,0.5333842000000004,['n'],0.9723134000005302,1.792,1137.6974271999998,,,,,573,18,Woman,Right,
,,,,,,,,,,,,,,,,,573,18,Woman,Right,1,11,0.4,2,180,0,0,0.6651511999998547,['y'],0.46300309999969613,1.792,1142.5807720000003,,,,,573,18,Woman,Right,
,,,,,,,,,,,,,,,,,573,18,Woman,Right,1,58,0.15,1,180,-,180,1.545720699999947,['n'],1.2872210999994422,1.792,1147.7140002000006,,,,,573,18,Woman,Right,
,,,,,,,,,,,,,,,,,573,18,Woman,Right,1,31,0.4,2,180,0,0,0.40541030000076717,['y'],0.4865593999993507,1.78,1151.9472514,,,,,573,18,Woman,Right,
,,,,,,,,,,,,,,,,,573,18,Woman,Right,1,35,0.4,2,180,0,0,0.41107370000008814,['y'],0.6869004000000132,1.78,1156.3643063999998,,,,,573,18,Woman,Right,
,,,,,,,,,,,,,,,,,573,18,Woman,Right,1,13,0.4,2,0,180,180,0.6834010000002309,['y'],0.6510932000001048,1.774,1160.4973228999997,,,,,573,18,Woman,Right,
,,,,,,,,,,,,,,,,,573,18,Woman,Right,1,59,0.15,2,180,0,0,0.3965210999995179,['y'],2.390933500000756,1.774,1165.8473697,,,,,573,18,Woman,Right,
,,,,,,,,,,,,,,,,,573,18,Woman,Right,1,14,0.4,1,180,-,180,0.827565699999468,['n'],1.263120099999469,1.774,1170.7972805,,,,,573,18,Woman,Right,
,,,,,,,,,,,,,,,,,573,18,Woman,Right,1,7,1,2,180,0,0,0.6256605999997191,['y'],0.9990478999998231,1.774,1174.9306428999998,,,,,573,18,Woman,Right,
,,,,,,,,,,,,,,,,,573,18,Woman,Right,2,56,0.15,1,0,-,0,0.4994952999995803,['n'],0.7187935000001744,1.808,1196.5806343000004,88.75,62.5,77.5,,573,18,Woman,Right,
,,,,,,,,,,,,,,,,,573,18,Woman,Right,2,63,0.15,2,180,0,0,0.6924073000000135,['n'],0.8388831000002028,1.808,1200.8972486000002,,,,,573,18,Woman,Right,
,,,,,,,,,,,,,,,,,573,18,Woman,Right,2,31,0.4,2,180,0,180,0.5612014999996973,['y'],0.3833615000003192,1.808,1205.8805006000002,,,,,573,18,Woman,Right,
,,,,,,,,,,,,,,,,,573,18,Woman,Right,2,61,0.15,2,0,180,180,1.8296299000003273,['n'],0.4789088999996238,1.808,1211.3972150999998,,,,,573,18,Woman,Right,
,,,,,,,,,,,,,,,,,573,18,Woman,Right,2,69,0.15,2,0,180,180,1.1332124999998996,['y'],0.30281880000075034,1.808,1215.9140244,,,,,573,18,Woman,Right,
,,,,,,,,,,,,,,,,,573,18,Woman,Right,2,70,0.15,1,180,-,180,0.866706100000556,['n'],0.5660926000000472,1.808,1219.7642408000002,,,,,573,18,Woman,Right,
,,,,,,,,,,,,,,,,,573,18,Woman,Right,2,78,0.15,1,180,-,0,1.5752472000003763,['y'],0.7114813999996841,1.808,1224.6303834999999,,,,,573,18,Woman,Right,
,,,,,,,,,,,,,,,,,573,18,Woman,Right,2,43,0.4,2,180,0,0,0.944588800000929,['y'],1.0553313999989768,1.808,1229.0640196000004,,,,,573,18,Woman,Right,
,,,,,,,,,,,,,,,,,573,18,Woman,Right,2,62,0.15,1,180,-,180,0.7338534999998956,['y'],0.3672145000000455,1.808,1232.7305345000004,,,,,573,18,Woman,Right,
,,,,,,,,,,,,,,,,,573,18,Woman,Right,2,59,0.15,2,180,0,180,0.5791164000002027,['n'],0.39098659999945085,1.808,1235.897158400001,,,,,573,18,Woman,Right,
,,,,,,,,,,,,,,,,,573,18,Woman,Right,2,44,0.15,1,0,-,0,0.2691498000003776,['n'],0.4152790999996796,1.808,1238.8970487999995,,,,,573,18,Woman,Right,
,,,,,,,,,,,,,,,,,573,18,Woman,Right,2,74,0.15,1,180,-,0,0.40986419999899226,['n'],0.49516620000031253,1.808,1243.2304819,,,,,573,18,Woman,Right,
,,,,,,,,,,,,,,,,,573,18,Woman,Right,2,14,0.4,1,180,-,180,0.8216220000012981,['n'],1.2626755999990564,1.828,1247.6807943000003,,,,,573,18,Woman,Right,
,,,,,,,,,,,,,,,,,573,18,Woman,Right,2,4,1,1,0,-,0,0.016788100001576822,['y'],1.190553500000533,1.828,1252.0971045999995,,,,,573,18,Woman,Right,
,,,,,,,,,,,,,,,,,573,18,Woman,Right,2,10,0.4,1,180,-,180,0.6024206999991293,['y'],0.7589643000010255,1.828,1256.3303918000001,,,,,573,18,Woman,Right,
,,,,,,,,,,,,,,,,,573,18,Woman,Right,2,6,1,1,180,-,180,0.6591994000009436,['n'],0.638891100001274,1.828,1260.1969955000004,,,,,573,18,Woman,Right,
,,,,,,,,,,,,,,,,,573,18,Woman,Right,2,68,0.15,1,0,-,0,0.395768099999259,['n'],1.0069802999987587,1.828,1263.9804655999997,,,,,573,18,Woman,Right,
,,,,,,,,,,,,,,,,,573,18,Woman,Right,2,18,0.4,1,180,-,180,0.8414440999986255,['n'],0.9667779999999766,1.828,1268.1805600000007,,,,,573,18,Woman,Right,
,,,,,,,,,,,,,,,,,573,18,Woman,Right,2,50,0.15,1,180,-,180,0.4752305999991222,['n'],0.8309237000012217,1.828,1272.2470668999995,,,,,573,18,Woman,Right,
,,,,,,,,,,,,,,,,,573,18,Woman,Right,2,71,0.15,2,180,0,180,0.7765975000002072,['n'],0.41483809999954246,1.828,1275.9137038999997,,,,,573,18,Woman,Right,
,,,,,,,,,,,,,,,,,573,18,Woman,Right,2,54,0.15,1,180,-,180,0.6998793000002479,['n'],0.727521999999226,1.828,1279.6470322000005,,,,,573,18,Woman,Right,
,,,,,,,,,,,,,,,,,573,18,Woman,Right,2,64,0.15,1,0,-,180,0.7899421000001894,['n'],0.4144449999985227,1.828,1283.097023100001,,,,,573,18,Woman,Right,
,,,,,,,,,,,,,,,,,573,18,Woman,Right,2,79,0.15,2,180,0,0,1.1001296999984334,['n'],0.9826019000011001,1.828,1287.5969716,,,,,573,18,Woman,Right,
,,,,,,,,,,,,,,,,,573,18,Woman,Right,2,76,0.15,1,0,-,180,0.6686644000001252,['n'],1.119905800000197,1.3479999999999999,1293.3806050999992,,,,,573,18,Woman,Right,
,,,,,,,,,,,,,,,,,573,18,Woman,Right,2,20,0.4,1,0,-,0,0.37939230000120006,['n'],0.7188287999997556,1.3479999999999999,1298.6969843000006,,,,,573,18,Woman,Right,
,,,,,,,,,,,,,,,,,573,18,Woman,Right,2,17,0.4,2,0,180,180,1.376012400000036,['y'],0.5907957999988867,1.3479999999999999,1303.2135588,,,,,573,18,Woman,Right,
,,,,,,,,,,,,,,,,,573,18,Woman,Right,2,60,0.15,1,0,-,180,0.5463046000004397,['n'],1.2225284999985888,1.646,1307.2806118999997,,,,,573,18,Woman,Right,
,,,,,,,,,,,,,,,,,573,18,Woman,Right,2,72,0.15,1,0,-,180,1.1442753999999695,['y'],0.25485529999969003,1.838,1311.5969480000003,,,,,573,18,Woman,Right,
,,,,,,,,,,,,,,,,,573,18,Woman,Right,2,39,0.4,2,180,0,180,0.09002849999887985,['n'],1.215303799999674,1.65,1315.8635845999997,,,,,573,18,Woman,Right,
,,,,,,,,,,,,,,,,,573,18,Woman,Right,2,75,0.15,2,180,0,180,0.046638899999379646,['n'],0.9589460000006511,1.724,1319.1638051999998,,,,,573,18,Woman,Right,
,,,,,,,,,,,,,,,,,573,18,Woman,Right,2,8,0.4,1,0,-,180,0.9332739999990736,['n'],1.2953354000001127,1.724,1323.730297,,,,,573,18,Woman,Right,
,,,,,,,,,,,,,,,,,573,18,Woman,Right,2,47,0.15,2,180,0,180,0.5841871000011452,['y'],0.430684700000711,1.72,1327.3137602999996,,,,,573,18,Woman,Right,
,,,,,,,,,,,,,,,,,573,18,Woman,Right,2,46,0.15,1,180,-,180,0.6413590000011027,['n'],1.2630293000001984,1.72,1331.5468806999997,,,,,573,18,Woman,Right,
,,,,,,,,,,,,,,,,,573,18,Woman,Right,2,32,0.4,1,0,-,180,0.45820650000132446,['y'],1.1987802000003285,1.72,1335.7137942999998,,,,,573,18,Woman,Right,
,,,,,,,,,,,,,,,,,573,18,Woman,Right,2,9,0.4,2,0,180,0,0.3167112000010093,['n'],1.628254699999161,1.72,1340.9803814999996,,,,,573,18,Woman,Right,
,,,,,,,,,,,,,,,,,573,18,Woman,Right,2,5,1,2,0,180,0,0.8593691000005492,['y'],1.4549050999994506,1.72,1346.0801685999995,,,,,573,18,Woman,Right,
,,,,,,,,,,,,,,,,,573,18,Woman,Right,2,53,0.15,2,0,180,180,1.0147128999997221,['y'],0.44713620000038645,1.72,1350.9468061999996,,,,,573,18,Woman,Right,
,,,,,,,,,,,,,,,,,573,18,Woman,Right,2,35,0.4,2,180,0,0,0.8953899999996793,['n'],0.3832732000009855,1.72,1355.263488300001,,,,,573,18,Woman,Right,
,,,,,,,,,,,,,,,,,573,18,Woman,Right,2,12,0.4,1,0,-,0,0.7641954000009719,['y'],0.67075769999974,1.72,1359.7134710999999,,,,,573,18,Woman,Right,
,,,,,,,,,,,,,,,,,573,18,Woman,Right,2,29,0.4,2,0,180,180,0.8586278999991919,['n'],0.3589503000002878,1.72,1363.980308100001,,,,,573,18,Woman,Right,
,,,,,,,,,,,,,,,,,573,18,Woman,Right,2,2,1,1,180,-,180,0.618560199998683,['y'],1.0869583999992756,1.72,1368.9303529000008,,,,,573,18,Woman,Right,
,,,,,,,,,,,,,,,,,573,18,Woman,Right,2,66,0.15,1,180,-,180,0.587354500001311,['y'],0.607520999999906,1.712,1374.3636153000007,,,,,573,18,Woman,Right,
,,,,,,,,,,,,,,,,,573,18,Woman,Right,2,13,0.4,2,0,180,0,1.116842600000382,['n'],0.45289319999938016,1.712,1378.5467931999992,,,,,573,18,Woman,Right,
,,,,,,,,,,,,,,,,,573,18,Woman,Right,2,37,0.4,2,0,180,0,1.1597464000005857,['n'],0.6386349000003975,1.716,1383.0968033999998,,,,,573,18,Woman,Right,
,,,,,,,,,,,,,,,,,573,18,Woman,Right,2,36,0.4,1,0,-,180,0.5513893999996071,['y'],0.5833668000013859,1.716,1387.1135056999992,,,,,573,18,Woman,Right,
,,,,,,,,,,,,,,,,,573,18,Woman,Right,2,57,0.15,2,0,180,180,0.41007510000054026,['n'],1.0149393000010605,1.716,1391.2802917999998,,,,,573,18,Woman,Right,
,,,,,,,,,,,,,,,,,573,18,Woman,Right,2,38,0.4,1,180,-,180,0.7767456999990827,['n'],1.4869931000012002,1.702,1396.196745700001,,,,,573,18,Woman,Right,
,,,,,,,,,,,,,,,,,573,18,Woman,Right,2,19,0.4,2,180,0,0,0.666808800000581,['y'],0.9635870000001887,1.702,1401.5476455999997,,,,,573,18,Woman,Right,
,,,,,,,,,,,,,,,,,573,18,Woman,Right,2,49,0.15,2,0,180,180,0.48213599999871803,['n'],1.18327649999992,1.702,1405.9800754999997,,,,,573,18,Woman,Right,
,,,,,,,,,,,,,,,,,573,18,Woman,Right,2,41,0.4,2,0,180,180,0.8195484999996552,['y'],0.4067689999992581,1.702,1409.8466616000005,,,,,573,18,Woman,Right,
,,,,,,,,,,,,,,,,,573,18,Woman,Right,2,27,0.4,2,180,0,0,0.4679878999995708,['y'],0.8230872000003728,1.702,1414.0800079,,,,,573,18,Woman,Right,
,,,,,,,,,,,,,,,,,573,18,Woman,Right,2,24,0.4,1,0,-,180,1.957538000000568,['n'],1.7589879000006476,1.702,1420.2466750000003,,,,,573,18,Woman,Right,
,,,,,,,,,,,,,,,,,573,18,Woman,Right,2,11,0.4,2,180,0,180,0.4866320999990421,['n'],0.446585599998798,1.702,1423.4465674999992,,,,,573,18,Woman,Right,
,,,,,,,,,,,,,,,,,573,18,Woman,Right,2,33,0.4,2,0,180,180,0.7315271999996185,['y'],0.390895399999863,1.702,1426.8633315000006,,,,,573,18,Woman,Right,
,,,,,,,,,,,,,,,,,573,18,Woman,Right,2,34,0.4,1,180,-,180,0.27873360000012326,['n'],1.1833296000004339,1.702,1430.5132064000009,,,,,573,18,Woman,Right,
,,,,,,,,,,,,,,,,,573,18,Woman,Right,2,40,0.4,1,0,-,0,0.2780940000011469,['y'],2.614948300000833,1.702,1436.2299296,,,,,573,18,Woman,Right,
,,,,,,,,,,,,,,,,,573,18,Woman,Right,2,67,0.15,2,180,0,180,0.5675991999996768,['y'],0.575037099999463,1.702,1440.8132544,,,,,573,18,Woman,Right,
,,,,,,,,,,,,,,,,,573,18,Woman,Right,2,52,0.15,1,0,-,180,2.198714000000109,['n'],0.8223978000005445,1.696,1446.3466418000007,,,,,573,18,Woman,Right,
,,,,,,,,,,,,,,,,,573,18,Woman,Right,2,65,0.15,2,0,180,180,0.7956059000007372,['y'],0.47890730000108306,1.696,1450.5466281999998,,,,,573,18,Woman,Right,
,,,,,,,,,,,,,,,,,573,18,Woman,Right,2,48,0.15,1,0,-,180,1.6689236000001983,['n'],1.703188899999077,1.692,1456.3799304999993,,,,,573,18,Woman,Right,
,,,,,,,,,,,,,,,,,573,18,Woman,Right,2,3,1,2,180,0,0,0.38330239999959304,['y'],0.5803964999995515,1.692,1460.6465948999994,,,,,573,18,Woman,Right,
,,,,,,,,,,,,,,,,,573,18,Woman,Right,2,77,0.15,2,0,180,180,0.47961690000011004,['n'],4.462865999999849,1.692,1468.5468345999998,,,,,573,18,Woman,Right,
,,,,,,,,,,,,,,,,,573,18,Woman,Right,2,45,0.15,2,0,180,180,0.856332300001668,['y'],1.4309763000001112,1.354,1473.2965573000001,,,,,573,18,Woman,Right,
,,,,,,,,,,,,,,,,,573,18,Woman,Right,2,51,0.15,2,180,0,0,1.4142335999986244,['y'],0.6547652000008384,1.1,1477.6134208000003,,,,,573,18,Woman,Right,
,,,,,,,,,,,,,,,,,573,18,Woman,Right,2,42,0.4,1,180,-,180,0.766736999999921,['n'],0.9026704999996582,1.264,1482.1131416000007,,,,,573,18,Woman,Right,
,,,,,,,,,,,,,,,,,573,18,Woman,Right,2,22,0.4,1,180,-,0,0.6589793000002828,['y'],1.7591707999999926,1.264,1487.1964294000009,,,,,573,18,Woman,Right,
,,,,,,,,,,,,,,,,,573,18,Woman,Right,2,73,0.15,2,0,180,180,0.6410974999998871,['n'],0.7270860000007815,1.264,1491.613101500001,,,,,573,18,Woman,Right,
,,,,,,,,,,,,,,,,,573,18,Woman,Right,2,25,0.4,2,0,180,180,0.870328500001051,['y'],0.49491130000023986,1.264,1496.1799611000006,,,,,573,18,Woman,Right,
,,,,,,,,,,,,,,,,,573,18,Woman,Right,2,58,0.15,1,180,-,180,0.8799287000001641,['y'],0.5906177999986539,1.4060000000000001,1500.1299911000006,,,,,573,18,Woman,Right,
,,,,,,,,,,,,,,,,,573,18,Woman,Right,2,28,0.4,1,0,-,0,0.01672580000013113,['n'],0.7428672999994888,1.4060000000000001,1503.3632873000006,,,,,573,18,Woman,Right,
,,,,,,,,,,,,,,,,,573,18,Woman,Right,2,21,0.4,2,0,180,0,0.6177864000001136,['y'],1.1901495000001887,1.558,1507.4631367000002,,,,,573,18,Woman,Right,
,,,,,,,,,,,,,,,,,573,18,Woman,Right,2,1,1,2,0,180,180,0.7326637000005576,['y'],1.0792609000000084,1.558,1511.6797186000003,,,,,573,18,Woman,Right,
,,,,,,,,,,,,,,,,,573,18,Woman,Right,2,0,1,1,0,-,180,0.5942204000002675,['y'],1.2149462999987009,1.558,1515.9800505000003,,,,,573,18,Woman,Right,
,,,,,,,,,,,,,,,,,573,18,Woman,Right,2,30,0.4,1,180,-,0,0.9044243000007555,['y'],1.8307346000001417,1.608,1521.2632881000009,,,,,573,18,Woman,Right,
,,,,,,,,,,,,,,,,,573,18,Woman,Right,2,26,0.4,1,180,-,180,0.3959154000003764,['n'],0.5746634999995877,1.56,1525.3964622999993,,,,,573,18,Woman,Right,
,,,,,,,,,,,,,,,,,573,18,Woman,Right,2,7,1,2,180,0,0,0.8658071999998356,['y'],0.7666890000000421,1.56,1529.6631443999995,,,,,573,18,Woman,Right,
,,,,,,,,,,,,,,,,,573,18,Woman,Right,2,15,0.4,2,180,0,180,0.7568711000003532,['n'],2.0310720999987097,1.71,1534.7798751999999,,,,,573,18,Woman,Right,
,,,,,,,,,,,,,,,,,573,18,Woman,Right,2,55,0.15,2,180,0,180,0.5689667000006011,['y'],0.39085010000053444,1.706,1538.1797487000003,,,,,573,18,Woman,Right,
,,,,,,,,,,,,,,,,,573,18,Woman,Right,2,16,0.4,1,0,-,180,0.5031314999996539,['n'],1.2709039999990637,1.706,1542.2630996000007,,,,,573,18,Woman,Right,
,,,,,,,,,,,,,,,,,573,18,Woman,Right,2,23,0.4,2,180,0,180,0.92428259999906,['y'],0.8788998999989417,1.734,1546.3465422999998,,,,,573,18,Woman,Right,
,,,,,,,,,,,,,,,,,573,18,Woman,Right,3,20,0.4,1,0,-,180,0.744409099999757,['y'],0.3263539999989007,1.6600000000000001,1554.4295621,60.0,62.5,55.0,,573,18,Woman,Right,
,,,,,,,,,,,,,,,,,573,18,Woman,Right,3,18,0.4,1,180,-,0,0.40058910000152537,['n'],0.38470690000031027,1.6600000000000001,1558.5798121999997,,,,,573,18,Woman,Right,
,,,,,,,,,,,,,,,,,573,18,Woman,Right,3,40,0.4,1,0,-,180,0.4202138000000559,['y'],1.11155669999971,1.6480000000000001,1562.4631845000004,,,,,573,18,Woman,Right,
,,,,,,,,,,,,,,,,,573,18,Woman,Right,3,54,0.15,1,180,-,180,0.18503570000029868,['n'],1.359018200000719,1.6480000000000001,1566.0463535,,,,,573,18,Woman,Right,
,,,,,,,,,,,,,,,,,573,18,Woman,Right,3,22,0.4,1,180,-,0,0.01670370000101684,['y'],0.8740134999989095,1.666,1569.2963409000004,,,,,573,18,Woman,Right,
,,,,,,,,,,,,,,,,,573,18,Woman,Right,3,65,0.15,2,0,180,180,0.4399697999997443,['n'],1.6146602999997413,1.572,1575.0631947000002,,,,,573,18,Woman,Right,
,,,,,,,,,,,,,,,,,573,18,Woman,Right,3,64,0.15,1,0,-,180,0.930328800001007,['y'],0.7107084999988729,1.43,1580.7296282999996,,,,,573,18,Woman,Right,
,,,,,,,,,,,,,,,,,573,18,Woman,Right,3,69,0.15,2,0,180,180,0.8813248000005842,['y'],2.2707080000000133,1.616,1586.5129500999992,,,,,573,18,Woman,Right,
,,,,,,,,,,,,,,,,,573,18,Woman,Right,3,17,0.4,2,0,180,180,1.0652998999994452,['y'],0.7031179999994492,1.706,1590.8963165000005,,,,,573,18,Woman,Right,
,,,,,,,,,,,,,,,,,573,18,Woman,Right,3,43,0.4,2,180,0,180,2.0618438000001333,['n'],0.567108699999153,1.702,1597.062889500001,,,,,573,18,Woman,Right,
,,,,,,,,,,,,,,,,,573,18,Woman,Right,3,14,0.4,1,180,-,180,0.4946595999990677,['y'],0.8786890000010317,1.63,1602.8464287000006,,,,,573,18,Woman,Right,
,,,,,,,,,,,,,,,,,573,18,Woman,Right,3,72,0.15,1,0,-,180,0.5764260999985709,['n'],0.4628605999987485,1.63,1606.4630990999995,,,,,573,18,Woman,Right,
,,,,,,,,,,,,,,,,,573,18,Woman,Right,3,29,0.4,2,0,180,180,1.0891574999986915,['y'],0.35910490000060236,1.63,1610.5463218999994,,,,,573,18,Woman,Right,
,,,,,,,,,,,,,,,,,573,18,Woman,Right,3,16,0.4,1,0,-,0,0.5283982999990258,['n'],0.4952408999997715,1.63,1613.9296015,,,,,573,18,Woman,Right,
,,,,,,,,,,,,,,,,,573,18,Woman,Right,3,19,0.4,2,180,0,180,0.9166377000001376,['y'],1.2352852999993047,1.63,1618.3962546000002,,,,,573,18,Woman,Right,
,,,,,,,,,,,,,,,,,573,18,Woman,Right,3,24,0.4,1,0,-,0,0.2398838999997679,['n'],0.5669586000003619,1.63,1621.5462143999994,,,,,573,18,Woman,Right,
,,,,,,,,,,,,,,,,,573,18,Woman,Right,3,78,0.15,1,180,-,0,0.26511720000053174,['n'],0.39897209999980987,1.63,1624.6294622000005,,,,,573,18,Woman,Right,
,,,,,,,,,,,,,,,,,573,18,Woman,Right,3,58,0.15,1,180,-,0,0.4776201000004221,['y'],0.5670124999996915,1.63,1628.046639100001,,,,,573,18,Woman,Right,
,,,,,,,,,,,,,,,,,573,18,Woman,Right,3,53,0.15,2,0,180,180,1.0891680999993696,['y'],0.9189263000007486,1.63,1632.4630300999997,,,,,573,18,Woman,Right,
,,,,,,,,,,,,,,,,,573,18,Woman,Right,3,66,0.15,1,180,-,180,0.36642980000033276,['y'],0.38285929999983637,1.63,1635.4796160999995,,,,,573,18,Woman,Right,
,,,,,,,,,,,,,,,,,573,18,Woman,Right,3,37,0.4,2,0,180,180,0.5998521999990771,['y'],0.3326271000005363,1.63,1638.6796637999996,,,,,573,18,Woman,Right,
,,,,,,,,,,,,,,,,,573,18,Woman,Right,3,51,0.15,2,180,0,180,0.353668399999151,['n'],0.3669442999998864,1.63,1641.7796426000004,,,,,573,18,Woman,Right,
,,,,,,,,,,,,,,,,,573,18,Woman,Right,3,21,0.4,2,0,180,180,0.40715420000015,['y'],0.45561780000025465,1.63,1644.9137174000007,,,,,573,18,Woman,Right,
,,,,,,,,,,,,,,,,,573,18,Woman,Right,3,52,0.15,1,0,-,0,0.26062199999978475,['n'],0.48689269999886164,1.63,1648.1303819999994,,,,,573,18,Woman,Right,
,,,,,,,,,,,,,,,,,573,18,Woman,Right,3,71,0.15,2,180,0,0,0.6604872000007163,['y'],0.4311546000008093,1.63,1653.4627414999995,,,,,573,18,Woman,Right,
,,,,,,,,,,,,,,,,,573,18,Woman,Right,3,9,0.4,2,0,180,180,0.6698663000006491,['y'],0.8548030000001745,1.63,1657.5962904999997,,,,,573,18,Woman,Right,
,,,,,,,,,,,,,,,,,573,18,Woman,Right,3,60,0.15,1,0,-,180,0.9759016999996675,['y'],1.718738100000337,1.63,1662.7295821999996,,,,,573,18,Woman,Right,
,,,,,,,,,,,,,,,,,573,18,Woman,Right,3,10,0.4,1,180,-,180,0.8439039999993838,['y'],0.30298690000017814,1.63,1666.1960775000007,,,,,573,18,Woman,Right,
,,,,,,,,,,,,,,,,,573,18,Woman,Right,3,5,1,2,0,180,180,1.600609799999802,['n'],1.783164599999509,1.63,1671.9127802999992,,,,,573,18,Woman,Right,
,,,,,,,,,,,,,,,,,573,18,Woman,Right,3,33,0.4,2,0,180,180,1.5566999000002397,['n'],1.0550666000017372,1.234,1678.2459892999996,,,,,573,18,Woman,Right,
,,,,,,,,,,,,,,,,,573,18,Woman,Right,3,74,0.15,1,180,-,0,1.1881921000003786,['n'],1.2307897000009689,1.262,1683.5959729999995,,,,,573,18,Woman,Right,
,,,,,,,,,,,,,,,,,573,18,Woman,Right,3,70,0.15,1,180,-,180,1.1227120999992621,['y'],2.103547599999729,1.282,1689.2793378999995,,,,,573,18,Woman,Right,
,,,,,,,,,,,,,,,,,573,18,Woman,Right,3,75,0.15,2,180,0,0,2.3275011999994604,['y'],1.4946477999983472,1.254,1696.0628254000003,,,,,573,18,Woman,Right,
,,,,,,,,,,,,,,,,,573,18,Woman,Right,3,42,0.4,1,180,-,180,0.81692909999947,['n'],0.39007309999942663,1.388,1700.1295142,,,,,573,18,Woman,Right,
,,,,,,,,,,,,,,,,,573,18,Woman,Right,3,77,0.15,2,0,180,180,1.0839101000001392,['n'],1.1988875000006374,1.184,1705.6462174000008,,,,,573,18,Woman,Right,
,,,,,,,,,,,,,,,,,573,18,Woman,Right,3,30,0.4,1,180,-,180,0.48485970000001544,['n'],1.2625752000003558,1.232,1709.9128029999993,,,,,573,18,Woman,Right,
,,,,,,,,,,,,,,,,,573,18,Woman,Right,3,32,0.4,1,0,-,180,0.7018973999984155,['y'],3.374909600001047,1.232,1718.0625650000002,,,,,573,18,Woman,Right,
,,,,,,,,,,,,,,,,,573,18,Woman,Right,3,68,0.15,1,0,-,0,0.9775138999993942,['n'],1.118562400000883,1.232,1722.6461564,,,,,573,18,Woman,Right,
,,,,,,,,,,,,,,,,,573,18,Woman,Right,3,0,1,1,0,-,0,0.573273899999549,['n'],0.5508116000000882,1.232,1726.9126610000003,,,,,573,18,Woman,Right,
,,,,,,,,,,,,,,,,,573,18,Woman,Right,3,8,0.4,1,0,-,0,0.3868287999994209,"['y', 'n']",0.5189408000005642,1.232,1730.4291594999995,,,,,573,18,Woman,Right,
,,,,,,,,,,,,,,,,,573,18,Woman,Right,3,46,0.15,1,180,-,0,0.016729999999370193,['n'],0.5775126999997156,1.232,1733.5460368999993,,,,,573,18,Woman,Right,
,,,,,,,,,,,,,,,,,573,18,Woman,Right,3,6,1,1,180,-,180,0.44935090000035416,['n'],0.854865699999209,1.232,1739.5291546999997,,,,,573,18,Woman,Right,
,,,,,,,,,,,,,,,,,573,18,Woman,Right,3,79,0.15,2,180,0,0,0.6904597000011563,['y'],0.7109431000008044,1.232,1743.7625222000006,,,,,573,18,Woman,Right,
,,,,,,,,,,,,,,,,,573,18,Woman,Right,3,59,0.15,2,180,0,0,0.4153721000002406,['y'],0.695116799999596,1.392,1749.9963062999996,,,,,573,18,Woman,Right,
,,,,,,,,,,,,,,,,,573,18,Woman,Right,3,35,0.4,2,180,0,0,1.0154883999985032,['n'],1.2234777999983635,1.388,1755.2290336999995,,,,,573,18,Woman,Right,
,,,,,,,,,,,,,,,,,573,18,Woman,Right,3,76,0.15,1,0,-,0,0.699877999999444,['y'],0.508932000000641,1.678,1758.7291502000007,,,,,573,18,Woman,Right,
,,,,,,,,,,,,,,,,,573,18,Woman,Right,3,56,0.15,1,0,-,180,0.9240276000000449,['y'],0.9113489999999729,1.678,1763.1291075000008,,,,,573,18,Woman,Right,
,,,,,,,,,,,,,,,,,573,18,Woman,Right,3,50,0.15,1,180,-,180,0.47269710000000487,['y'],0.7671477000003506,1.502,1767.5957705,,,,,573,18,Woman,Right,
,,,,,,,,,,,,,,,,,573,18,Woman,Right,3,44,0.15,1,0,-,180,0.7762750000001688,['y'],0.5589636000004248,1.53,1771.8465601000007,,,,,573,18,Woman,Right,
,,,,,,,,,,,,,,,,,573,18,Woman,Right,3,45,0.15,2,0,180,180,0.5489137999993545,['y'],0.3827997000007599,1.412,1775.4627858000003,,,,,573,18,Woman,Right,
,,,,,,,,,,,,,,,,,573,18,Woman,Right,3,1,1,2,0,180,180,0.7220390000002226,['y'],0.4948522000013327,1.412,1779.7790882000008,,,,,573,18,Woman,Right,
,,,,,,,,,,,,,,,,,573,18,Woman,Right,3,38,0.4,1,180,-,180,0.5587102999998024,['n'],2.2069265999998606,1.412,1784.9961669999993,,,,,573,18,Woman,Right,
,,,,,,,,,,,,,,,,,573,18,Woman,Right,3,23,0.4,2,180,0,0,1.397963699999309,['y'],0.39902099999926577,1.558,1789.4968602000008,,,,,573,18,Woman,Right,
,,,,,,,,,,,,,,,,,573,18,Woman,Right,3,55,0.15,2,180,0,0,1.0041141999990941,['y'],0.3431203000000096,1.558,1793.1635298,,,,,573,18,Woman,Right,
,,,,,,,,,,,,,,,,,573,18,Woman,Right,3,27,0.4,2,180,0,0,0.7866737999993347,['y'],1.574900899999193,1.558,1797.8125273999995,,,,,573,18,Woman,Right,
,,,,,,,,,,,,,,,,,573,18,Woman,Right,3,41,0.4,2,0,180,180,0.5306376999997156,['y'],1.2069302999989304,1.762,1801.9959552,,,,,573,18,Woman,Right,
,,,,,,,,,,,,,,,,,573,18,Woman,Right,3,11,0.4,2,180,0,180,0.8638204999988375,['y'],0.6065173000006325,1.73,1805.8459433000007,,,,,573,18,Woman,Right,
,,,,,,,,,,,,,,,,,573,18,Woman,Right,3,28,0.4,1,0,-,0,0.2874386000003142,['y'],0.5029244000015751,1.73,1808.9290507000005,,,,,573,18,Woman,Right,
,,,,,,,,,,,,,,,,,573,18,Woman,Right,3,73,0.15,2,0,180,180,0.6613634000004822,['y'],0.5432657999990624,1.73,1812.4957828000006,,,,,573,18,Woman,Right,
,,,,,,,,,,,,,,,,,573,18,Woman,Right,3,2,1,1,180,-,180,1.179756499999712,['n'],0.3992413999985729,1.73,1816.312579200001,,,,,573,18,Woman,Right,
,,,,,,,,,,,,,,,,,573,18,Woman,Right,3,25,0.4,2,0,180,180,0.8504488999988098,['y'],0.8346928999999363,1.73,1820.845553000001,,,,,573,18,Woman,Right,
,,,,,,,,,,,,,,,,,573,18,Woman,Right,3,61,0.15,2,0,180,0,0.39618270000028133,['n'],0.518876399999499,1.73,1824.3289203999993,,,,,573,18,Woman,Right,
,,,,,,,,,,,,,,,,,573,18,Woman,Right,3,12,0.4,1,0,-,0,0.5540711999983614,['n'],0.4068904999985534,1.73,1828.2792444000006,,,,,573,18,Woman,Right,
,,,,,,,,,,,,,,,,,573,18,Woman,Right,3,26,0.4,1,180,-,180,1.622966599999927,['y'],0.3345060999999987,1.766,1834.2288277999996,,,,,573,18,Woman,Right,
,,,,,,,,,,,,,,,,,573,18,Woman,Right,3,57,0.15,2,0,180,180,0.956193499998335,['y'],0.6467948000008619,1.766,1838.4791573000002,,,,,573,18,Woman,Right,
,,,,,,,,,,,,,,,,,573,18,Woman,Right,3,63,0.15,2,180,0,180,0.47758079999948677,['n'],0.9108321000003343,1.5819999999999999,1842.7622683999998,,,,,573,18,Woman,Right,
,,,,,,,,,,,,,,,,,573,18,Woman,Right,3,47,0.15,2,180,0,180,1.2855015999994066,['y'],1.0713307999994868,1.3940000000000001,1847.5289852000005,,,,,573,18,Woman,Right,
,,,,,,,,,,,,,,,,,573,18,Woman,Right,3,4,1,1,0,-,0,0.5776920000007522,['n'],0.33519300000079966,1.392,1851.8631031000004,,,,,573,18,Woman,Right,
,,,,,,,,,,,,,,,,,573,18,Woman,Right,3,67,0.15,2,180,0,0,0.5634869999994407,['y'],1.190993800000797,1.392,1856.0959103000005,,,,,573,18,Woman,Right,
,,,,,,,,,,,,,,,,,573,18,Woman,Right,3,13,0.4,2,0,180,0,0.016710699999748613,['y'],0.7904875999993237,1.45,1859.245818200001,,,,,573,18,Woman,Right,
,,,,,,,,,,,,,,,,,573,18,Woman,Right,3,34,0.4,1,180,-,180,0.3024249999998574,['y'],0.4385875000007218,1.45,1862.3790432000005,,,,,573,18,Woman,Right,
,,,,,,,,,,,,,,,,,573,18,Woman,Right,3,48,0.15,1,0,-,0,0.25814619999982824,['n'],2.790896699998484,1.48,1867.7455417,,,,,573,18,Woman,Right,
,,,,,,,,,,,,,,,,,573,18,Woman,Right,3,7,1,2,180,0,0,0.48692490000030375,['y'],0.5026950000010402,1.48,1867.7455417,,,,,573,18,Woman,Right,
,,,,,,,,,,,,,,,,,573,18,Woman,Right,3,49,0.15,2,0,180,180,2.4430865000013,['y'],0.5345716000010725,1.588,1877.5788587999996,,,,,573,18,Woman,Right,
,,,,,,,,,,,,,,,,,573,18,Woman,Right,3,15,0.4,2,180,0,0,0.656749800000398,['y'],0.46277120000013383,1.708,1881.2288267999993,,,,,573,18,Woman,Right,
,,,,,,,,,,,,,,,,,573,18,Woman,Right,3,62,0.15,1,180,-,180,0.536598500000764,['y'],0.6547177000011288,1.698,1885.1955003999992,,,,,573,18,Woman,Right,
,,,,,,,,,,,,,,,,,573,18,Woman,Right,3,39,0.4,2,180,0,0,0.6659765000003972,['y'],2.8309710000012274,1.698,1891.3454966000008,,,,,573,18,Woman,Right,
,,,,,,,,,,,,,,,,,573,18,Woman,Right,3,31,0.4,2,180,0,0,0.47842579999996815,['y'],0.7749272000000929,1.698,1895.5292417,,,,,573,18,Woman,Right,
,,,,,,,,,,,,,,,,,573,18,Woman,Right,3,3,1,2,180,0,0,0.44733310000083293,['y'],0.4308151999994152,1.698,1899.2621471000002,,,,,573,18,Woman,Right,
,,,,,,,,,,,,,,,,,573,18,Woman,Right,3,36,0.4,1,0,-,0,1.3949298999996245,['y'],1.0147849000004499,1.698,1904.2121822000008,,,,,573,18,Woman,Right,
,,,,,,,,,,,,,,,,,573,18,Woman,Right,4,15,0.4,2,180,0,0,0.41762869999911345,['y'],1.5349658999984968,1.698,1912.4791628000003,72.5,47.5,77.5,,573,18,Woman,Right,
,,,,,,,,,,,,,,,,,573,18,Woman,Right,4,32,0.4,1,0,-,180,3.916611799999373,['y'],0.4784352000006038,1.698,1920.7954578999997,,,,,573,18,Woman,Right,
,,,,,,,,,,,,,,,,,573,18,Woman,Right,4,6,1,1,180,-,180,1.0735535999992862,['n'],1.006850099998701,1.968,1925.2962387000007,,,,,573,18,Woman,Right,
,,,,,,,,,,,,,,,,,573,18,Woman,Right,4,37,0.4,2,0,180,0,0.6090804000014032,['y'],0.43874179999875196,1.54,1928.5629511999996,,,,,573,18,Woman,Right,
,,,,,,,,,,,,,,,,,573,18,Woman,Right,4,4,1,1,0,-,0,0.3615996999997151,['n'],1.1990568000001076,1.662,1932.478917800001,,,,,573,18,Woman,Right,
,,,,,,,,,,,,,,,,,573,18,Woman,Right,4,17,0.4,2,0,180,180,0.4625601999996434,['y'],0.44670599999881233,1.282,1935.8287738,,,,,573,18,Woman,Right,
,,,,,,,,,,,,,,,,,573,18,Woman,Right,4,59,0.15,2,180,0,180,0.40035469999929774,['y'],0.785092000000077,1.532,1939.2287226999997,,,,,573,18,Woman,Right,
,,,,,,,,,,,,,,,,,573,18,Woman,Right,4,1,1,2,0,180,180,0.3442484000006516,['y'],0.5104970000011235,1.366,1942.362245100001,,,,,573,18,Woman,Right,
,,,,,,,,,,,,,,,,,573,18,Woman,Right,4,49,0.15,2,0,180,180,0.5478961999997409,['n'],0.8466806999986147,1.516,1946.1122579000003,,,,,573,18,Woman,Right,
,,,,,,,,,,,,,,,,,573,18,Woman,Right,4,24,0.4,1,0,-,180,0.44357289999970817,['y'],0.4229672000001301,1.726,1950.5620130000007,,,,,573,18,Woman,Right,
,,,,,,,,,,,,,,,,,573,18,Woman,Right,4,7,1,2,180,0,0,1.1838824000005843,['y'],1.2394959000012022,1.704,1955.3120550999993,,,,,573,18,Woman,Right,
,,,,,,,,,,,,,,,,,573,18,Woman,Right,4,78,0.15,1,180,-,180,0.47630990000106976,['n'],0.3431454000001395,1.704,1958.4788946000008,,,,,573,18,Woman,Right,
,,,,,,,,,,,,,,,,,573,18,Woman,Right,4,75,0.15,2,180,0,180,0.7564990000009857,['y'],1.2948053999989497,1.704,1963.128782400001,,,,,573,18,Woman,Right,
,,,,,,,,,,,,,,,,,573,18,Woman,Right,4,50,0.15,1,180,-,180,0.01695610000024317,['y'],1.1783188999997947,1.704,1967.3121482999995,,,,,573,18,Woman,Right,
,,,,,,,,,,,,,,,,,573,18,Woman,Right,4,67,0.15,2,180,0,180,0.620313299999907,['y'],0.5672330999987025,1.704,1970.8621736999994,,,,,573,18,Woman,Right,
,,,,,,,,,,,,,,,,,573,18,Woman,Right,4,53,0.15,2,0,180,180,0.5001801999987947,['y'],0.4708573999996588,1.704,1974.1953517000002,,,,,573,18,Woman,Right,
,,,,,,,,,,,,,,,,,573,18,Woman,Right,4,29,0.4,2,0,180,180,0.46571989999938523,"['y', 'n']",0.39097790000050736,1.704,1977.5785362000006,,,,,573,18,Woman,Right,
,,,,,,,,,,,,,,,,,573,18,Woman,Right,4,30,0.4,1,180,-,180,0.9502741000014794,['n'],0.358960699999443,1.704,1981.4621881999992,,,,,573,18,Woman,Right,
,,,,,,,,,,,,,,,,,573,18,Woman,Right,4,11,0.4,2,180,0,0,0.09501179999824672,['y'],0.6308086000008188,1.704,1985.2119626000003,,,,,573,18,Woman,Right,
,,,,,,,,,,,,,,,,,573,18,Woman,Right,4,16,0.4,1,0,-,180,1.2935861999994813,['y'],1.7829446000014286,1.704,1990.845223100001,,,,,573,18,Woman,Right,
,,,,,,,,,,,,,,,,,573,18,Woman,Right,4,73,0.15,2,0,180,0,0.45492430000012973,"['y', 'n']",0.5514191999991453,1.704,1994.2453031999994,,,,,573,18,Woman,Right,
,,,,,,,,,,,,,,,,,573,18,Woman,Right,4,42,0.4,1,180,-,0,0.7747813000005408,['y'],0.43870399999832443,1.704,1997.845127300001,,,,,573,18,Woman,Right,
,,,,,,,,,,,,,,,,,573,18,Woman,Right,4,77,0.15,2,0,180,0,0.339091499999995,['n'],1.9912970999994286,1.292,2004.3785126000002,,,,,573,18,Woman,Right,
,,,,,,,,,,,,,,,,,573,18,Woman,Right,4,54,0.15,1,180,-,0,0.6606253999998444,['y'],1.654750800000329,1.326,2009.8785542999995,,,,,573,18,Woman,Right,
,,,,,,,,,,,,,,,,,573,18,Woman,Right,4,35,0.4,2,180,0,0,0.639072899999519,['y'],0.5670131000006222,1.698,2013.8118689000003,,,,,573,18,Woman,Right,
,,,,,,,,,,,,,,,,,573,18,Woman,Right,4,40,0.4,1,0,-,180,1.4512853999985964,['n'],0.35012469999855966,1.676,2017.9618477000004,,,,,573,18,Woman,Right,
,,,,,,,,,,,,,,,,,573,18,Woman,Right,4,0,1,1,0,-,0,0.3801746999997704,['n'],2.014971099999457,1.676,2022.578430900001,,,,,573,18,Woman,Right,
,,,,,,,,,,,,,,,,,573,18,Woman,Right,4,41,0.4,2,0,180,0,0.23518839999997,['y'],1.3347766000006231,1.674,2026.8120438999995,,,,,573,18,Woman,Right,
,,,,,,,,,,,,,,,,,573,18,Woman,Right,4,26,0.4,1,180,-,180,0.7970676999993884,['n'],0.3589124999998603,1.674,2031.5454685000004,,,,,573,18,Woman,Right,
,,,,,,,,,,,,,,,,,573,18,Woman,Right,4,47,0.15,2,180,0,0,0.4338142999986303,['y'],0.8232014999994135,1.674,2035.7285498,,,,,573,18,Woman,Right,
,,,,,,,,,,,,,,,,,573,18,Woman,Right,4,28,0.4,1,0,-,180,0.7330516999991232,['y'],0.5109599999996135,1.674,2039.4117612999999,,,,,573,18,Woman,Right,
,,,,,,,,,,,,,,,,,573,18,Woman,Right,4,76,0.15,1,0,-,180,0.6283748999994714,['n'],0.4070518999997148,1.38,2043.4619610000009,,,,,573,18,Woman,Right,
,,,,,,,,,,,,,,,,,573,18,Woman,Right,4,74,0.15,1,180,-,0,0.383461500001431,['y'],0.7352305999993405,1.546,2047.2786711999997,,,,,573,18,Woman,Right,
,,,,,,,,,,,,,,,,,573,18,Woman,Right,4,79,0.15,2,180,0,180,0.5857771000009961,['y'],3.0868948999996064,1.4,2054.5784552999994,,,,,573,18,Woman,Right,
,,,,,,,,,,,,,,,,,573,18,Woman,Right,4,13,0.4,2,0,180,180,0.7613242999996146,['y'],1.3908699000003253,1.748,2059.228368,,,,,573,18,Woman,Right,
,,,,,,,,,,,,,,,,,573,18,Woman,Right,4,63,0.15,2,180,0,180,0.46665890000076615,['y'],0.9748455999997532,1.314,2063.3616963999993,,,,,573,18,Woman,Right,
,,,,,,,,,,,,,,,,,573,18,Woman,Right,4,8,0.4,1,0,-,180,0.4228058000007877,['y'],0.5185046999995393,1.568,2066.8449758000006,,,,,573,18,Woman,Right,
,,,,,,,,,,,,,,,,,573,18,Woman,Right,4,68,0.15,1,0,-,180,0.4471377999998367,['y'],1.5429874000001291,1.568,2071.3116800000007,,,,,573,18,Woman,Right,
,,,,,,,,,,,,,,,,,573,18,Woman,Right,4,38,0.4,1,180,-,180,0.4524182999994082,"['y', 'n']",1.583308000001125,1.646,2076.7450100000005,,,,,573,18,Woman,Right,
,,,,,,,,,,,,,,,,,573,18,Woman,Right,4,52,0.15,1,0,-,0,0.41095750000022235,['y'],0.5349587999990035,1.646,2080.0950073999993,,,,,573,18,Woman,Right,
,,,,,,,,,,,,,,,,,573,18,Woman,Right,4,70,0.15,1,180,-,180,0.9639416999998502,['n'],0.4789022999993904,1.646,2084.0950281000005,,,,,573,18,Woman,Right,
,,,,,,,,,,,,,,,,,573,18,Woman,Right,4,34,0.4,1,180,-,180,0.7855787999997119,['n'],1.2468379000001732,1.646,2089.0952051999993,,,,,573,18,Woman,Right,
,,,,,,,,,,,,,,,,,573,18,Woman,Right,4,56,0.15,1,0,-,0,0.47856270000011136,['n'],0.5032382000008511,1.646,2092.8282889,,,,,573,18,Woman,Right,
,,,,,,,,,,,,,,,,,573,18,Woman,Right,4,57,0.15,2,0,180,180,0.8388948000010714,['n'],0.8389237000010326,1.646,2097.9783525000003,,,,,573,18,Woman,Right,
,,,,,,,,,,,,,,,,,573,18,Woman,Right,4,44,0.15,1,0,-,180,0.9785879999999452,['n'],1.559387000001152,1.646,2102.9451685999993,,,,,573,18,Woman,Right,
,,,,,,,,,,,,,,,,,573,18,Woman,Right,4,61,0.15,2,0,180,180,0.9982756999997946,"['y', 'n']",0.47896899999977904,1.662,2106.9787085999997,,,,,573,18,Woman,Right,
,,,,,,,,,,,,,,,,,573,18,Woman,Right,4,71,0.15,2,180,0,180,0.2500469000005978,"['y', 'n']",0.47088000000076136,1.238,2110.0949777999995,,,,,573,18,Woman,Right,
,,,,,,,,,,,,,,,,,573,18,Woman,Right,4,3,1,2,180,0,180,0.9820488999994268,['y'],0.4790748999985226,1.534,2113.8948868999996,,,,,573,18,Woman,Right,
,,,,,,,,,,,,,,,,,573,18,Woman,Right,4,10,0.4,1,180,-,0,0.31656089999887627,['y'],0.9428528000007645,1.534,2117.6451944,,,,,573,18,Woman,Right,
,,,,,,,,,,,,,,,,,573,18,Woman,Right,4,5,1,2,0,180,180,0.6843981000001804,['y'],0.4873043999996298,1.366,2121.7784623000007,,,,,573,18,Woman,Right,
,,,,,,,,,,,,,,,,,573,18,Woman,Right,4,48,0.15,1,0,-,180,0.3716581999997288,"['y', 'n']",0.6066195999992487,1.5939999999999999,2125.6783801,,,,,573,18,Woman,Right,
,,,,,,,,,,,,,,,,,573,18,Woman,Right,4,20,0.4,1,0,-,180,0.4203756000006251,['n'],0.5272543000010046,1.584,2129.2624959999994,,,,,573,18,Woman,Right,
,,,,,,,,,,,,,,,,,573,18,Woman,Right,4,14,0.4,1,180,-,0,0.36109399999986636,['y'],0.5355505000006815,1.672,2132.794985300001,,,,,573,18,Woman,Right,
,,,,,,,,,,,,,,,,,573,18,Woman,Right,4,39,0.4,2,180,0,0,0.08977599999889208,['y'],0.6475270999999339,1.672,2136.0448913,,,,,573,18,Woman,Right,
,,,,,,,,,,,,,,,,,573,18,Woman,Right,4,18,0.4,1,180,-,180,0.09926309999900695,['y'],0.6308022000011988,1.6360000000000001,2142.811494900001,,,,,573,18,Woman,Right,
,,,,,,,,,,,,,,,,,573,18,Woman,Right,4,51,0.15,2,180,0,180,0.7962291000003461,['y'],0.6706108999987919,1.6440000000000001,2147.2284756999998,,,,,573,18,Woman,Right,
,,,,,,,,,,,,,,,,,573,18,Woman,Right,4,55,0.15,2,180,0,180,0.7592999000007694,['n'],1.2387866000008216,1.354,2151.9948404000006,,,,,573,18,Woman,Right,
,,,,,,,,,,,,,,,,,573,18,Woman,Right,4,33,0.4,2,0,180,0,0.38663069999893196,['y'],0.6311679999998887,1.354,2155.8282103,,,,,573,18,Woman,Right,
,,,,,,,,,,,,,,,,,573,18,Woman,Right,4,69,0.15,2,0,180,0,0.09585110000080022,['n'],0.5590408999996725,1.354,2158.9453802999997,,,,,573,18,Woman,Right,
,,,,,,,,,,,,,,,,,573,18,Woman,Right,4,9,0.4,2,0,180,0,0.3331591000005574,['n'],0.5002111000012519,1.354,2162.2620174999993,,,,,573,18,Woman,Right,
,,,,,,,,,,,,,,,,,573,18,Woman,Right,4,31,0.4,2,180,0,180,0.7754011999986687,['y'],0.9027941000003921,1.412,2166.3785279000003,,,,,573,18,Woman,Right,
,,,,,,,,,,,,,,,,,573,18,Woman,Right,4,72,0.15,1,0,-,180,0.5610570999997435,['n'],1.0151588000007905,1.216,2170.811828,,,,,573,18,Woman,Right,
,,,,,,,,,,,,,,,,,573,18,Woman,Right,4,43,0.4,2,180,0,0,0.5174325000007229,['n'],2.1830143999995926,1.266,2177.0446790999995,,,,,573,18,Woman,Right,
,,,,,,,,,,,,,,,,,573,18,Woman,Right,4,46,0.15,1,180,-,180,0.508736099998714,['y'],0.4788764999993873,1.746,2181.428103100001,,,,,573,18,Woman,Right,
,,,,,,,,,,,,,,,,,573,18,Woman,Right,4,65,0.15,2,0,180,0,0.016809599999760394,['y'],0.6538567999996303,1.69,2184.6946836999996,,,,,573,18,Woman,Right,
,,,,,,,,,,,,,,,,,573,18,Woman,Right,4,45,0.15,2,0,180,180,0.5368410999999469,"['y', 'n']",0.5029735999996774,1.604,2188.4950068,,,,,573,18,Woman,Right,
,,,,,,,,,,,,,,,,,573,18,Woman,Right,4,23,0.4,2,180,0,0,0.7492349000003742,['y'],0.44690950000040175,1.604,2192.9447557000003,,,,,573,18,Woman,Right,
,,,,,,,,,,,,,,,,,573,18,Woman,Right,4,12,0.4,1,0,-,0,1.2232595999994373,['n'],0.6709396999995079,1.604,2198.3116006,,,,,573,18,Woman,Right,
,,,,,,,,,,,,,,,,,573,18,Woman,Right,4,58,0.15,1,180,-,180,0.3773462999997719,['n'],0.7509131999995589,1.604,2202.3780539,,,,,573,18,Woman,Right,
,,,,,,,,,,,,,,,,,573,18,Woman,Right,4,62,0.15,1,180,-,0,0.8138335999992705,['n'],0.9348265999997238,1.596,2206.678013500001,,,,,573,18,Woman,Right,
,,,,,,,,,,,,,,,,,573,18,Woman,Right,4,66,0.15,1,180,-,180,0.3824843000002147,"['y', 'n']",2.00663060000079,1.034,2211.4946822,,,,,573,18,Woman,Right,
,,,,,,,,,,,,,,,,,573,18,Woman,Right,4,64,0.15,1,0,-,180,1.0357870999996521,['n'],0.6309123000010004,1.034,2215.6946972000005,,,,,573,18,Woman,Right,
,,,,,,,,,,,,,,,,,573,18,Woman,Right,4,22,0.4,1,180,-,180,0.5382018999989668,"['y', 'n']",1.1510791000000609,1.034,2220.644601,,,,,573,18,Woman,Right,
,,,,,,,,,,,,,,,,,573,18,Woman,Right,4,36,0.4,1,0,-,180,0.4480620000013005,['n'],0.44686969999929715,1.042,2225.5782115,,,,,573,18,Woman,Right,
,,,,,,,,,,,,,,,,,573,18,Woman,Right,4,19,0.4,2,180,0,180,0.6337992999997368,['n'],0.5023945000011736,1.044,2230.6779367,,,,,573,18,Woman,Right,
,,,,,,,,,,,,,,,,,573,18,Woman,Right,4,25,0.4,2,0,180,180,0.5858803000010084,['y'],0.6309015000006184,1.044,2235.3615162000006,,,,,573,18,Woman,Right,
,,,,,,,,,,,,,,,,,573,18,Woman,Right,4,2,1,1,180,-,180,0.8668146999989403,['y'],0.2779577999990579,1.242,2239.2279787999996,,,,,573,18,Woman,Right,
,,,,,,,,,,,,,,,,,573,18,Woman,Right,4,27,0.4,2,180,0,0,0.5693318000012368,['n'],0.334922899999583,1.242,2242.3948244999992,,,,,573,18,Woman,Right,
,,,,,,,,,,,,,,,,,573,18,Woman,Right,4,21,0.4,2,0,180,0,0.02660199999991164,['y'],0.4075660999988031,1.242,2245.1447035,,,,,573,18,Woman,Right,
,,,,,,,,,,,,,,,,,573,18,Woman,Right,4,60,0.15,1,0,-,0,0.016731199999412638,['n'],0.7723418999994465,1.242,2248.0779304000007,,,,,573,18,Woman,Right,
,,,,,,,,,,,,,,,,,573,18,Woman,Right,5,79,0.15,2,180,0,180,0.32599840000148106,['y'],0.3268857000002754,1.242,2252.394771200001,50.0,50.0,77.5,,573,18,Woman,Right,
,,,,,,,,,,,,,,,,,573,18,Woman,Right,5,75,0.15,2,180,0,180,0.17018060000009427,['y'],0.7111306999995577,1.242,2257.1621863,,,,,573,18,Woman,Right,
,,,,,,,,,,,,,,,,,573,18,Woman,Right,5,5,1,2,0,180,0,0.2294208000002982,['y'],0.6068617000000813,1.226,2260.1612038999992,,,,,573,18,Woman,Right,
,,,,,,,,,,,,,,,,,573,18,Woman,Right,5,32,0.4,1,0,-,180,0.29216189999897324,['n'],0.5912539000000834,1.226,2264.3113866999993,,,,,573,18,Woman,Right,
,,,,,,,,,,,,,,,,,573,18,Woman,Right,5,35,0.4,2,180,0,0,0.6323597000009613,['y'],0.3666560000001482,1.226,2267.461099100001,,,,,573,18,Woman,Right,
,,,,,,,,,,,,,,,,,573,18,Woman,Right,5,18,0.4,1,180,-,180,0.36745479999990494,['y'],0.3350413000007393,1.226,2270.3779402,,,,,573,18,Woman,Right,
,,,,,,,,,,,,,,,,,573,18,Woman,Right,5,68,0.15,1,0,-,180,0.29210389999934705,['n'],0.8313289999987319,1.226,2273.5946160999993,,,,,573,18,Woman,Right,
,,,,,,,,,,,,,,,,,573,18,Woman,Right,5,16,0.4,1,0,-,0,0.30886869999994815,['n'],0.6471166999999696,1.226,2276.6115353999994,,,,,573,18,Woman,Right,
,,,,,,,,,,,,,,,,,573,18,Woman,Right,5,37,0.4,2,0,180,180,0.28867299999910756,['y'],0.3756331999993563,1.226,2279.4616473999995,,,,,573,18,Woman,Right,
,,,,,,,,,,,,,,,,,573,18,Woman,Right,5,29,0.4,2,0,180,180,0.3667626999995264,['y'],0.31333790000098816,1.226,2282.3452971999995,,,,,573,18,Woman,Right,
,,,,,,,,,,,,,,,,,573,18,Woman,Right,5,65,0.15,2,0,180,180,0.3521409000004496,['y'],0.3993042999991303,1.226,2285.1778679,,,,,573,18,Woman,Right,
,,,,,,,,,,,,,,,,,573,18,Woman,Right,5,4,1,1,0,-,0,0.6855608000005304,['n'],0.38328520000141,1.226,2289.2444450000003,,,,,573,18,Woman,Right,
,,,,,,,,,,,,,,,,,573,18,Woman,Right,5,46,0.15,1,180,-,180,0.6615662000003795,['n'],0.4150730000001204,1.226,2292.6112309,,,,,573,18,Woman,Right,
,,,,,,,,,,,,,,,,,573,18,Woman,Right,5,57,0.15,2,0,180,0,0.39350089999970805,['n'],0.36688430000140215,1.226,2295.6277984000008,,,,,573,18,Woman,Right,
,,,,,,,,,,,,,,,,,573,18,Woman,Right,5,39,0.4,2,180,0,0,0.45003730000098585,['y'],0.49276300000019546,1.226,2298.7945634000007,,,,,573,18,Woman,Right,
,,,,,,,,,,,,,,,,,573,18,Woman,Right,5,30,0.4,1,180,-,180,0.32349579999936395,['n'],0.6228777000014816,1.226,2301.8951424999996,,,,,573,18,Woman,Right,
,,,,,,,,,,,,,,,,,573,18,Woman,Right,5,6,1,1,180,-,180,0.5439673000000766,['y'],0.334923999998864,1.226,2304.9778253000004,,,,,573,18,Woman,Right,
,,,,,,,,,,,,,,,,,573,18,Woman,Right,5,1,1,2,0,180,180,0.5602433999993082,['y'],0.26282829999945534,1.226,2308.1114684000004,,,,,573,18,Woman,Right,
,,,,,,,,,,,,,,,,,573,18,Woman,Right,5,48,0.15,1,0,-,0,0.15535219999947003,['n'],0.43917010000041046,1.226,2310.8945416000006,,,,,573,18,Woman,Right,
,,,,,,,,,,,,,,,,,573,18,Woman,Right,5,45,0.15,2,0,180,0,0.056041499999992084,['y'],0.6152679000006174,1.226,2313.9610759000007,,,,,573,18,Woman,Right,
,,,,,,,,,,,,,,,,,573,18,Woman,Right,5,66,0.15,1,180,-,0,0.09277420000034908,['n'],0.33475779999935185,1.226,2317.5446075,,,,,573,18,Woman,Right,
,,,,,,,,,,,,,,,,,573,18,Woman,Right,5,38,0.4,1,180,-,180,0.07157120000010764,['n'],1.0388204999999289,1.226,2320.7943350000005,,,,,573,18,Woman,Right,
,,,,,,,,,,,,,,,,,573,18,Woman,Right,5,58,0.15,1,180,-,0,0.13884539999889967,['n'],0.5188992000003054,1.226,2324.4110574999995,,,,,573,18,Woman,Right,
,,,,,,,,,,,,,,,,,573,18,Woman,Right,5,49,0.15,2,0,180,180,0.10814469999968424,['n'],1.0392363999999361,1.226,2327.7954317999993,,,,,573,18,Woman,Right,
,,,,,,,,,,,,,,,,,573,18,Woman,Right,5,7,1,2,180,0,0,0.4295170999994298,['y'],0.30319260000032955,1.226,2330.7111308000003,,,,,573,18,Woman,Right,
,,,,,,,,,,,,,,,,,573,18,Woman,Right,5,61,0.15,2,0,180,0,0.27950369999962277,['n'],0.918868199998542,1.226,2334.577667900001,,,,,573,18,Woman,Right,
,,,,,,,,,,,,,,,,,573,18,Woman,Right,5,72,0.15,1,0,-,0,0.30473710000114806,['n'],0.5032343999992008,1.226,2339.0444860000007,,,,,573,18,Woman,Right,
,,,,,,,,,,,,,,,,,573,18,Woman,Right,5,28,0.4,1,0,-,0,0.3835786999989068,['n'],1.4729655999999522,1.226,2343.1444023999993,,,,,573,18,Woman,Right,
,,,,,,,,,,,,,,,,,573,18,Woman,Right,5,43,0.4,2,180,0,0,0.5061925999998493,['y'],0.44640590000017255,1.32,2346.377730100001,,,,,573,18,Woman,Right,
,,,,,,,,,,,,,,,,,573,18,Woman,Right,5,14,0.4,1,180,-,0,0.39691449999918405,['n'],0.9027753999998822,1.32,2349.8277092999997,,,,,573,18,Woman,Right,
,,,,,,,,,,,,,,,,,573,18,Woman,Right,5,25,0.4,2,0,180,180,0.5209553999993659,['n'],1.094876099999965,1.304,2354.0945312999993,,,,,573,18,Woman,Right,
,,,,,,,,,,,,,,,,,573,18,Woman,Right,5,53,0.15,2,0,180,180,0.49686409999958414,['y'],0.9188642999997683,1.304,2357.6443488999994,,,,,573,18,Woman,Right,
,,,,,,,,,,,,,,,,,573,18,Woman,Right,5,62,0.15,1,180,-,0,0.31280249999872467,['n'],0.4153432999992219,1.304,2360.5945238999993,,,,,573,18,Woman,Right,
,,,,,,,,,,,,,,,,,573,18,Woman,Right,5,41,0.4,2,0,180,180,0.686203100000057,['n'],1.375304799999867,1.334,2366.4945494000003,,,,,573,18,Woman,Right,
,,,,,,,,,,,,,,,,,573,18,Woman,Right,5,31,0.4,2,180,0,180,0.6729587000008905,['n'],1.118960199999492,1.634,2370.8610332999997,,,,,573,18,Woman,Right,
,,,,,,,,,,,,,,,,,573,18,Woman,Right,5,78,0.15,1,180,-,180,0.6131371000010404,['y'],1.3827049999999872,1.428,2376.577655700001,,,,,573,18,Woman,Right,
,,,,,,,,,,,,,,,,,573,18,Woman,Right,5,54,0.15,1,180,-,180,1.2983495999997103,['n'],0.7588218999990204,1.018,2381.2109758999995,,,,,573,18,Woman,Right,
,,,,,,,,,,,,,,,,,573,18,Woman,Right,5,12,0.4,1,0,-,0,0.536187499999869,"['y', 'n']",1.2471602000005078,1.012,2385.344497100001,,,,,573,18,Woman,Right,
,,,,,,,,,,,,,,,,,573,18,Woman,Right,5,44,0.15,1,0,-,0,0.3889395999995031,['y'],0.9431880000011006,1.012,2389.0111699999998,,,,,573,18,Woman,Right,
,,,,,,,,,,,,,,,,,573,18,Woman,Right,5,59,0.15,2,180,0,0,0.4543112999999721,['y'],0.6068001000003278,1.028,2393.2108143000005,,,,,573,18,Woman,Right,
,,,,,,,,,,,,,,,,,573,18,Woman,Right,5,70,0.15,1,180,-,0,0.30568870000024617,['n'],0.7028561999995873,1.028,2397.1775660999992,,,,,573,18,Woman,Right,
,,,,,,,,,,,,,,,,,573,18,Woman,Right,5,33,0.4,2,0,180,180,0.5662307999991754,['n'],0.7989513000011357,1.028,2401.0108476000005,,,,,573,18,Woman,Right,
,,,,,,,,,,,,,,,,,573,18,Woman,Right,5,27,0.4,2,180,0,0,0.6362088000005315,['y'],1.5110583000005136,1.078,2405.277575100001,,,,,573,18,Woman,Right,
,,,,,,,,,,,,,,,,,573,18,Woman,Right,5,17,0.4,2,0,180,180,0.6772208000002138,['y'],0.3988475999994989,1.092,2409.2442692999994,,,,,573,18,Woman,Right,
,,,,,,,,,,,,,,,,,573,18,Woman,Right,5,76,0.15,1,0,-,180,0.39595879999978933,['y'],0.6629664000010962,1.1520000000000001,2412.427546000001,,,,,573,18,Woman,Right,
,,,,,,,,,,,,,,,,,573,18,Woman,Right,5,11,0.4,2,180,0,0,0.0764366000003065,['y'],0.4229150999999547,1.1520000000000001,2415.0442323000007,,,,,573,18,Woman,Right,
,,,,,,,,,,,,,,,,,573,18,Woman,Right,5,40,0.4,1,0,-,180,0.38343429999986256,['n'],0.719058299999233,1.304,2418.4944644000007,,,,,573,18,Woman,Right,
,,,,,,,,,,,,,,,,,573,18,Woman,Right,5,13,0.4,2,0,180,0,0.016980899999907706,['n'],0.49248550000083924,1.304,2421.210911100001,,,,,573,18,Woman,Right,
,,,,,,,,,,,,,,,,,573,18,Woman,Right,5,52,0.15,1,0,-,0,0.016966099999990547,['y'],0.9570485000003828,1.304,2425.0607495000004,,,,,573,18,Woman,Right,
,,,,,,,,,,,,,,,,,573,18,Woman,Right,5,73,0.15,2,0,180,180,0.32934930000010354,['n'],0.7183919999988575,1.366,2428.2952055999995,,,,,573,18,Woman,Right,
,,,,,,,,,,,,,,,,,573,18,Woman,Right,5,63,0.15,2,180,0,0,0.434393600000476,['y'],0.8152912000005017,1.38,2431.5611155999995,,,,,573,18,Woman,Right,
,,,,,,,,,,,,,,,,,573,18,Woman,Right,5,50,0.15,1,180,-,0,0.27177130000018224,['n'],0.527140899999722,1.38,2434.427439000001,,,,,573,18,Woman,Right,
,,,,,,,,,,,,,,,,,573,18,Woman,Right,5,74,0.15,1,180,-,180,0.5017855000005511,['y'],0.6390305000004446,1.516,2437.6275176,,,,,573,18,Woman,Right,
,,,,,,,,,,,,,,,,,573,18,Woman,Right,5,71,0.15,2,180,0,180,0.5576915000001463,['n'],0.35890780000045197,1.516,2440.8607126000006,,,,,573,18,Woman,Right,
,,,,,,,,,,,,,,,,,573,18,Woman,Right,5,69,0.15,2,0,180,180,0.45174169999881997,['y'],0.6791522999992594,1.6400000000000001,2444.7609011000004,,,,,573,18,Woman,Right,
,,,,,,,,,,,,,,,,,573,18,Woman,Right,5,77,0.15,2,0,180,180,0.14480290000028617,['n'],0.43071640000016487,1.6400000000000001,2448.0773855999996,,,,,573,18,Woman,Right,
,,,,,,,,,,,,,,,,,573,18,Woman,Right,5,15,0.4,2,180,0,180,0.8750371999994968,['n'],1.718957799999771,1.6400000000000001,2453.0274764000005,,,,,573,18,Woman,Right,
,,,,,,,,,,,,,,,,,573,18,Woman,Right,5,0,1,1,0,-,180,0.3432970000012574,['n'],1.8231250999997428,1.6400000000000001,2460.0440799999997,,,,,573,18,Woman,Right,
,,,,,,,,,,,,,,,,,573,18,Woman,Right,5,9,0.4,2,0,180,0,1.309139299999515,['n'],0.7751055000007909,1.6400000000000001,2465.0111462999994,,,,,573,18,Woman,Right,
,,,,,,,,,,,,,,,,,573,18,Woman,Right,5,47,0.15,2,180,0,0,0.39098090000152297,['n'],1.2148997000003874,1.6400000000000001,2469.1109567999993,,,,,573,18,Woman,Right,
,,,,,,,,,,,,,,,,,573,18,Woman,Right,5,10,0.4,1,180,-,180,0.5238571999998385,['y'],0.4787871999997151,1.68,2472.7942390999997,,,,,573,18,Woman,Right,
,,,,,,,,,,,,,,,,,573,18,Woman,Right,5,23,0.4,2,180,0,0,0.3484645000007731,['n'],0.7268865000005462,1.68,2476.0439779000008,,,,,573,18,Woman,Right,
,,,,,,,,,,,,,,,,,573,18,Woman,Right,5,20,0.4,1,0,-,0,0.41666129999975965,['n'],0.43801600000006147,1.68,2480.4107244999996,,,,,573,18,Woman,Right,
,,,,,,,,,,,,,,,,,573,18,Woman,Right,5,8,0.4,1,0,-,0,0.02247910000005504,['n'],0.5431595000009111,1.68,2483.07748,,,,,573,18,Woman,Right,
,,,,,,,,,,,,,,,,,573,18,Woman,Right,5,56,0.15,1,0,-,180,0.3501264999995328,['n'],1.2287219999998342,1.546,2487.1773541000002,,,,,573,18,Woman,Right,
,,,,,,,,,,,,,,,,,573,18,Woman,Right,5,55,0.15,2,180,0,180,1.4232912999996188,['y'],0.31871480000154406,1.176,2491.2273489,,,,,573,18,Woman,Right,
,,,,,,,,,,,,,,,,,573,18,Woman,Right,5,26,0.4,1,180,-,180,1.0208994000004168,['y'],1.0070416999988083,1.176,2491.2273489,,,,,573,18,Woman,Right,
,,,,,,,,,,,,,,,,,573,18,Woman,Right,5,24,0.4,1,0,-,180,0.6204476999992039,['n'],0.423180499999944,1.16,2499.0944001000007,,,,,573,18,Woman,Right,
,,,,,,,,,,,,,,,,,573,18,Woman,Right,5,2,1,1,180,-,180,0.6565047000003688,['n'],0.3513676000002306,1.16,2502.2111208999995,,,,,573,18,Woman,Right,
,,,,,,,,,,,,,,,,,573,18,Woman,Right,5,3,1,2,180,0,0,0.9785035999993852,['y'],0.3432729999985895,1.16,2505.9106893000007,,,,,573,18,Woman,Right,
,,,,,,,,,,,,,,,,,573,18,Woman,Right,5,42,0.4,1,180,-,180,0.7519558000003599,['n'],0.286682899999505,1.16,2509.2772411999995,,,,,573,18,Woman,Right,
,,,,,,,,,,,,,,,,,573,18,Woman,Right,5,60,0.15,1,0,-,0,0.32783199999903445,['n'],0.45524250000016764,1.16,2512.3108764999997,,,,,573,18,Woman,Right,
,,,,,,,,,,,,,,,,,573,18,Woman,Right,5,22,0.4,1,180,-,180,0.031251200000042445,['n'],0.8630941999999777,1.16,2515.777570100001,,,,,573,18,Woman,Right,
,,,,,,,,,,,,,,,,,573,18,Woman,Right,5,34,0.4,1,180,-,180,0.4250996999999188,['y'],0.4311054999998305,1.16,2519.6772098,,,,,573,18,Woman,Right,
,,,,,,,,,,,,,,,,,573,18,Woman,Right,5,67,0.15,2,180,0,180,0.5168911000000662,['y'],1.799005599999873,1.24,2524.410763,,,,,573,18,Woman,Right,
,,,,,,,,,,,,,,,,,573,18,Woman,Right,5,36,0.4,1,0,-,0,0.724399299999277,['n'],0.5590412000001379,1.246,2528.3772546,,,,,573,18,Woman,Right,
,,,,,,,,,,,,,,,,,573,18,Woman,Right,5,19,0.4,2,180,0,180,0.3771543000002566,['y'],0.44691559999955643,1.246,2531.494134300001,,,,,573,18,Woman,Right,
,,,,,,,,,,,,,,,,,573,18,Woman,Right,5,21,0.4,2,0,180,180,0.41565149999951245,"['y', 'n']",0.46336189999965427,1.262,2534.6108719999993,,,,,573,18,Woman,Right,
,,,,,,,,,,,,,,,,,573,18,Woman,Right,5,51,0.15,2,180,0,180,0.2130632999997033,['y'],0.343432000001485,1.262,2537.4114678000005,,,,,573,18,Woman,Right,
,,,,,,,,,,,,,,,,,573,18,Woman,Right,5,64,0.15,1,0,-,0,0.016456599998491583,['n'],0.22645949999969162,1.262,2539.9606439,,,,,573,18,Woman,Right,
,,,,,,,,,,,,,,,,,,,,,,,,,,,,,,,,,65.0,72.5,62.5,2230.0215684999994,,,,,
