p_block,p_section,p_coherence,p_direction1,p_direction2,p_direction_response,p_direction_RT,p_change_response,p_change_RT,p_confidence,p_full_correct,p_without5_correct,p_full_total,p_without5_total,p_full_avg,p_witout5_avg,p_total_time,sub,age,sex,handedness,loop,trial randomization,coherence,condition,direction1,direction2,direction_response,direction_RT,change_response,change_RT,change_confidence,change_confidence_RT,block_direction_avg,block_stable_avg,block_change_avg,total_time,sub,age,sex,handedness,
1,1,1.0,180,-,180,1.115509800001746,-,-,-,,,,,,,,513,20,Woman,Right,,,,,,,,,,,,,,,,,513,20,Woman,Right,
1,1,1.0,180,-,180,0.36085589999856893,-,-,-,,,,,,,,513,20,Woman,Right,,,,,,,,,,,,,,,,,513,20,Woman,Right,
1,1,1.0,0,-,0,0.11743299999943702,-,-,-,,,,,,,,513,20,Woman,Right,,,,,,,,,,,,,,,,,513,20,Woman,Right,
1,1,1.0,0,-,0,0.10813419999612961,-,-,-,,,,,,,,513,20,Woman,Right,,,,,,,,,,,,,,,,,513,20,Woman,Right,
1,1,1.0,0,-,0,5.683737999999721,-,-,-,,,,,,,,513,20,Woman,Right,,,,,,,,,,,,,,,,,513,20,Woman,Right,
1,1,1.0,0,-,0,0.24219089999678545,-,-,-,,,,,,,,513,20,Woman,Right,,,,,,,,,,,,,,,,,513,20,Woman,Right,
1,1,1.0,180,-,180,0.01656580000417307,-,-,-,,,,,,,,513,20,Woman,Right,,,,,,,,,,,,,,,,,513,20,Woman,Right,
1,1,1.0,0,-,0,0.6327992000005906,-,-,-,,,,,,,,513,20,Woman,Right,,,,,,,,,,,,,,,,,513,20,Woman,Right,
1,1,1.0,0,-,0,0.07139029999962077,-,-,-,,,,,,,,513,20,Woman,Right,,,,,,,,,,,,,,,,,513,20,Woman,Right,
1,1,1.0,180,-,180,0.016231300003710203,-,-,-,10,10,10,10,1.0,1.0,,513,20,Woman,Right,,,,,,,,,,,,,,,,,513,20,Woman,Right,
2,1,0.4,180,-,180,0.378601800002798,-,-,-,,,,,,,,513,20,Woman,Right,,,,,,,,,,,,,,,,,513,20,Woman,Right,
2,1,0.4,0,-,0,0.01673039999877801,-,-,-,,,,,,,,513,20,Woman,Right,,,,,,,,,,,,,,,,,513,20,Woman,Right,
2,1,0.4,0,-,0,0.02322950000234414,-,-,-,,,,,,,,513,20,Woman,Right,,,,,,,,,,,,,,,,,513,20,Woman,Right,
2,1,0.15,180,-,180,0.016874599998118356,-,-,-,,,,,,,,513,20,Woman,Right,,,,,,,,,,,,,,,,,513,20,Woman,Right,
2,1,0.15,0,-,0,0.01671820000046864,-,-,-,,,,,,,,513,20,Woman,Right,,,,,,,,,,,,,,,,,513,20,Woman,Right,
2,1,0.4,180,-,180,0.03839030000381172,-,-,-,,,,,,,,513,20,Woman,Right,,,,,,,,,,,,,,,,,513,20,Woman,Right,
2,1,0.4,180,-,0,0.3117074000037974,-,-,-,,,,,,,,513,20,Woman,Right,,,,,,,,,,,,,,,,,513,20,Woman,Right,
2,1,0.15,180,-,180,0.09474529999715742,-,-,-,,,,,,,,513,20,Woman,Right,,,,,,,,,,,,,,,,,513,20,Woman,Right,
2,1,0.4,180,-,180,0.05343469999934314,-,-,-,,,,,,,,513,20,Woman,Right,,,,,,,,,,,,,,,,,513,20,Woman,Right,
2,1,0.4,180,-,180,0.030320000005303882,-,-,-,9,6,10,7,0.9,0.8571428571428571,,513,20,Woman,Right,,,,,,,,,,,,,,,,,513,20,Woman,Right,
3,2,1.0,180,0,180,1.6232526000021608,['y'],6.306813099996361,1.716,,,,,,,,513,20,Woman,Right,,,,,,,,,,,,,,,,,513,20,Woman,Right,
3,2,1.0,180,0,0,0.9916475000063656,['n'],1.9547393999964697,1.312,,,,,,,,513,20,Woman,Right,,,,,,,,,,,,,,,,,513,20,Woman,Right,
3,2,1.0,0,180,0,1.7004919000028167,['y'],1.226342800000566,1.82,,,,,,,,513,20,Woman,Right,,,,,,,,,,,,,,,,,513,20,Woman,Right,
3,2,1.0,0,180,180,2.0910246999992523,['y'],1.4827344000004814,2.0,,,,,,,,513,20,Woman,Right,,,,,,,,,,,,,,,,,513,20,Woman,Right,
3,2,1.0,180,0,0,0.5068231999975978,['y'],1.4655835000012303,2.0,,,,,,,,513,20,Woman,Right,,,,,,,,,,,,,,,,,513,20,Woman,Right,
3,2,1.0,180,0,0,0.3324419999989914,['y'],1.1453335000041989,1.99,,,,,,,,513,20,Woman,Right,,,,,,,,,,,,,,,,,513,20,Woman,Right,
3,2,1.0,0,180,180,0.45616729999892414,['n'],0.9608435999980429,1.98,,,,,,,,513,20,Woman,Right,,,,,,,,,,,,,,,,,513,20,Woman,Right,
3,2,1.0,0,180,180,0.3674634999988484,['y'],1.1063190000058967,2.0,,,,,,,,513,20,Woman,Right,,,,,,,,,,,,,,,,,513,20,Woman,Right,
3,2,1.0,0,180,180,0.5104131999978563,['y'],0.37261669999861624,1.982,,,,,,,,513,20,Woman,Right,,,,,,,,,,,,,,,,,513,20,Woman,Right,
3,2,1.0,180,0,0,0.5418110999962664,['y'],0.4674707000012859,1.978,8,8,10,10,0.8,0.8,,513,20,Woman,Right,,,,,,,,,,,,,,,,,513,20,Woman,Right,
4,2,0.15,180,0,0,1.0164580999989994,['y'],1.2267549999960465,1.99,,,,,,,,513,20,Woman,Right,,,,,,,,,,,,,,,,,513,20,Woman,Right,
4,2,0.4,0,180,180,0.7002978000018629,['y'],1.3076269999946817,1.8980000000000001,,,,,,,,513,20,Woman,Right,,,,,,,,,,,,,,,,,513,20,Woman,Right,
4,2,0.15,180,0,180,0.8505509000024176,['n'],1.2379891999953543,1.206,,,,,,,,513,20,Woman,Right,,,,,,,,,,,,,,,,,513,20,Woman,Right,
4,2,0.4,180,0,0,0.3313627999959863,['y'],0.7208610000016051,1.952,,,,,,,,513,20,Woman,Right,,,,,,,,,,,,,,,,,513,20,Woman,Right,
4,2,0.4,0,180,180,0.3839187999983551,['y'],0.5236278000011225,1.956,,,,,,,,513,20,Woman,Right,,,,,,,,,,,,,,,,,513,20,Woman,Right,
4,2,0.15,180,0,0,0.5907243999972707,['y'],1.5460686000005808,1.914,,,,,,,,513,20,Woman,Right,,,,,,,,,,,,,,,,,513,20,Woman,Right,
4,2,0.4,0,180,180,0.34503720000066096,['y'],0.9735325999936322,1.908,,,,,,,,513,20,Woman,Right,,,,,,,,,,,,,,,,,513,20,Woman,Right,
4,2,0.4,180,0,0,0.3390142999996897,['y'],2.608842800000275,1.928,,,,,,,,513,20,Woman,Right,,,,,,,,,,,,,,,,,513,20,Woman,Right,
4,2,0.4,180,0,0,0.3658551999978954,['y'],1.0566770000004908,2.0,,,,,,,,513,20,Woman,Right,,,,,,,,,,,,,,,,,513,20,Woman,Right,
4,2,0.4,180,0,0,0.3937381999930949,['y'],0.31007580000004964,2.0,9,7,10,7,0.9,1.0,,513,20,Woman,Right,,,,,,,,,,,,,,,,,513,20,Woman,Right,
5,3,0.15,0,-,180,0.6697088000000804,['y'],1.5173462000020663,1.1179999999999999,,,,,,,,513,20,Woman,Right,,,,,,,,,,,,,,,,,513,20,Woman,Right,
5,3,0.4,180,-,0,0.3894274000049336,['n'],0.79082880000351,1.6600000000000001,,,,,,,,513,20,Woman,Right,,,,,,,,,,,,,,,,,513,20,Woman,Right,
5,3,1.0,0,-,0,0.3570802999965963,['n'],0.6896083000028739,1.986,,,,,,,,513,20,Woman,Right,,,,,,,,,,,,,,,,,513,20,Woman,Right,
5,3,1.0,180,-,180,0.35923129999719094,['n'],0.8512646000017412,1.936,,,,,,,,513,20,Woman,Right,,,,,,,,,,,,,,,,,513,20,Woman,Right,
5,3,1.0,0,180,180,0.8763518999985536,['y'],0.3239624000052572,2.0,,,,,,,,513,20,Woman,Right,,,,,,,,,,,,,,,,,513,20,Woman,Right,
5,3,0.4,180,0,0,0.5705121000064537,['y'],0.27732779999496415,1.984,,,,,,,,513,20,Woman,Right,,,,,,,,,,,,,,,,,513,20,Woman,Right,
5,3,0.4,180,0,0,0.49777390000235755,['y'],0.3926662999947439,1.968,,,,,,,,513,20,Woman,Right,,,,,,,,,,,,,,,,,513,20,Woman,Right,
5,3,0.4,0,180,180,0.3513948999971035,['y'],0.7714167000012822,1.984,,,,,,,,513,20,Woman,Right,,,,,,,,,,,,,,,,,513,20,Woman,Right,
5,3,1.0,180,-,180,0.707796499998949,['n'],0.5621234999998705,1.932,,,,,,,,513,20,Woman,Right,,,,,,,,,,,,,,,,,513,20,Woman,Right,
5,3,0.15,180,-,180,0.7487066999965464,['n'],1.241966900000989,1.936,8,7,10,8,0.8,0.875,,513,20,Woman,Right,,,,,,,,,,,,,,,,,513,20,Woman,Right,
,,,,,,,,,,,,,,,,4.29999636253342e-06,513,20,Woman,Right,,,,,,,,,,,,,,,,,513,20,Woman,Right,
,,,,,,,,,,,,,,,,,513,20,Woman,Right,0,32,0.4,1,0,-,0,0.49066450000100303,['n'],2.4161163000026136,1.826,297.76783609999984,,,,,513,20,Woman,Right,
,,,,,,,,,,,,,,,,,513,20,Woman,Right,0,26,0.4,1,180,-,180,0.9801310999973794,['n'],1.407568499998888,1.742,304.15190630000143,,,,,513,20,Woman,Right,
,,,,,,,,,,,,,,,,,513,20,Woman,Right,0,3,1,2,180,0,0,1.101827600003162,['y'],1.2957873999985168,1.916,310.61779229999956,,,,,513,20,Woman,Right,
,,,,,,,,,,,,,,,,,513,20,Woman,Right,0,49,0.15,2,0,180,180,1.0342657000001054,['n'],1.7839286000016727,1.308,318.5519024999958,,,,,513,20,Woman,Right,
,,,,,,,,,,,,,,,,,513,20,Woman,Right,0,60,0.15,1,0,-,0,2.0126075000007404,['n'],1.4314502999986871,1.248,325.6527128000016,,,,,513,20,Woman,Right,
,,,,,,,,,,,,,,,,,513,20,Woman,Right,0,11,0.4,2,180,0,0,0.657603099993139,['y'],1.0550313999992795,1.8,330.50160389999655,,,,,513,20,Woman,Right,
,,,,,,,,,,,,,,,,,513,20,Woman,Right,0,16,0.4,1,0,-,0,0.5230140999992727,['y'],3.11201930000243,1.3479999999999999,337.1678966999971,,,,,513,20,Woman,Right,
,,,,,,,,,,,,,,,,,513,20,Woman,Right,0,62,0.15,1,180,-,180,2.6667591000004904,['n'],1.33758150000358,1.374,344.45203059999767,,,,,513,20,Woman,Right,
,,,,,,,,,,,,,,,,,513,20,Woman,Right,0,50,0.15,1,180,-,180,0.8870116000034614,['n'],2.6800394999954733,1.42,351.15205699999933,,,,,513,20,Woman,Right,
,,,,,,,,,,,,,,,,,513,20,Woman,Right,0,23,0.4,2,180,0,0,0.7302996000071289,['y'],0.9113791999989189,1.696,355.76871799999935,,,,,513,20,Woman,Right,
,,,,,,,,,,,,,,,,,513,20,Woman,Right,0,8,0.4,1,0,-,0,0.6666597000003094,['y'],1.2479338000048301,1.6280000000000001,360.5186070999989,,,,,513,20,Woman,Right,
,,,,,,,,,,,,,,,,,513,20,Woman,Right,0,56,0.15,1,0,-,0,3.269354600000952,['n'],1.2392298000049777,1.412,368.0015545999995,,,,,513,20,Woman,Right,
,,,,,,,,,,,,,,,,,513,20,Woman,Right,0,0,1,1,0,-,0,0.5030131000021356,['n'],1.735549400000309,1.904,374.35130449999997,,,,,513,20,Woman,Right,
,,,,,,,,,,,,,,,,,513,20,Woman,Right,0,33,0.4,2,0,180,180,0.6656588000041666,['y'],1.247837900002196,1.944,380.75193999999465,,,,,513,20,Woman,Right,
,,,,,,,,,,,,,,,,,513,20,Woman,Right,0,25,0.4,2,0,180,180,1.0959750000038184,['y'],1.2317019000038272,1.964,386.20207529999607,,,,,513,20,Woman,Right,
,,,,,,,,,,,,,,,,,513,20,Woman,Right,0,72,0.15,1,0,-,0,1.0580950000003213,['n'],1.0875582999942708,1.452,392.3189345999999,,,,,513,20,Woman,Right,
,,,,,,,,,,,,,,,,,513,20,Woman,Right,0,39,0.4,2,180,0,0,0.631334900004731,['y'],1.0641156000056071,1.866,397.88530609999725,,,,,513,20,Woman,Right,
,,,,,,,,,,,,,,,,,513,20,Woman,Right,0,24,0.4,1,0,-,180,1.9736889999985578,['y'],1.0793568000008236,1.692,403.71888359999866,,,,,513,20,Woman,Right,
,,,,,,,,,,,,,,,,,513,20,Woman,Right,0,20,0.4,1,0,-,0,0.9308487999951467,['n'],1.03945830000157,1.4020000000000001,408.90185550000024,,,,,513,20,Woman,Right,
,,,,,,,,,,,,,,,,,513,20,Woman,Right,0,42,0.4,1,180,-,180,0.8136258999948041,['n'],1.0080846999990172,1.96,413.61900539999624,,,,,513,20,Woman,Right,
,,,,,,,,,,,,,,,,,513,20,Woman,Right,0,19,0.4,2,180,0,0,0.5499880999996094,['y'],1.1118988999951398,1.8599999999999999,418.68528559999686,,,,,513,20,Woman,Right,
,,,,,,,,,,,,,,,,,513,20,Woman,Right,0,65,0.15,2,0,180,180,1.2827730999997584,['y'],1.063371800002642,1.814,424.1186821999945,,,,,513,20,Woman,Right,
,,,,,,,,,,,,,,,,,513,20,Woman,Right,0,4,1,1,0,-,0,2.594289300002856,['n'],2.1276307000007364,1.806,431.4185886999985,,,,,513,20,Woman,Right,
,,,,,,,,,,,,,,,,,513,20,Woman,Right,0,31,0.4,2,180,0,0,0.46980920000351034,['y'],1.0157738999987487,1.93,436.2682649999988,,,,,513,20,Woman,Right,
,,,,,,,,,,,,,,,,,513,20,Woman,Right,0,34,0.4,1,180,-,0,0.8382389000034891,['y'],2.3523076999990735,1.738,442.66785849999724,,,,,513,20,Woman,Right,
,,,,,,,,,,,,,,,,,513,20,Woman,Right,0,76,0.15,1,0,-,180,4.078725700004725,['y'],1.1115596999952686,1.704,451.03466710000066,,,,,513,20,Woman,Right,
,,,,,,,,,,,,,,,,,513,20,Woman,Right,0,18,0.4,1,180,-,180,1.307956100004958,['n'],1.056066400000418,1.6099999999999999,456.41869179999776,,,,,513,20,Woman,Right,
,,,,,,,,,,,,,,,,,513,20,Woman,Right,0,37,0.4,2,0,180,180,1.0821789000037825,['y'],1.0230455000055372,1.824,461.7846376999951,,,,,513,20,Woman,Right,
,,,,,,,,,,,,,,,,,513,20,Woman,Right,0,29,0.4,2,0,180,180,1.2169053000034182,['y'],1.0006260000009206,1.584,467.984701399997,,,,,513,20,Woman,Right,
,,,,,,,,,,,,,,,,,513,20,Woman,Right,0,67,0.15,2,180,0,0,0.8001441000014893,['y'],1.9202187999981106,1.6219999999999999,474.05190589999984,,,,,513,20,Woman,Right,
,,,,,,,,,,,,,,,,,513,20,Woman,Right,0,68,0.15,1,0,-,180,1.0574225999953342,['n'],1.0642313999996986,1.3319999999999999,480.5682945000008,,,,,513,20,Woman,Right,
,,,,,,,,,,,,,,,,,513,20,Woman,Right,0,45,0.15,2,0,180,0,1.100401800002146,['y'],1.4718365000007907,1.426,486.31798649999837,,,,,513,20,Woman,Right,
,,,,,,,,,,,,,,,,,513,20,Woman,Right,0,36,0.4,1,0,-,0,0.8216940999991493,['n'],1.0479508999997051,1.658,491.418651699998,,,,,513,20,Woman,Right,
,,,,,,,,,,,,,,,,,513,20,Woman,Right,0,1,1,2,0,180,180,0.6395858999967459,['y'],0.8958296999990125,2.0,495.96803699999873,,,,,513,20,Woman,Right,
,,,,,,,,,,,,,,,,,513,20,Woman,Right,0,53,0.15,2,0,180,180,1.077447999996366,['y'],2.359470900002634,1.724,502.31806979999965,,,,,513,20,Woman,Right,
,,,,,,,,,,,,,,,,,513,20,Woman,Right,0,12,0.4,1,0,-,0,2.0632587000000058,['n'],0.9684551999962423,1.5939999999999999,508.4180250999998,,,,,513,20,Woman,Right,
,,,,,,,,,,,,,,,,,513,20,Woman,Right,0,74,0.15,1,180,-,0,3.674567499998375,['n'],0.7045059000010951,1.746,515.9181395999985,,,,,513,20,Woman,Right,
,,,,,,,,,,,,,,,,,513,20,Woman,Right,0,35,0.4,2,180,0,0,0.6061594999991939,['y'],0.9599233999979333,1.94,520.3688760000005,,,,,513,20,Woman,Right,
,,,,,,,,,,,,,,,,,513,20,Woman,Right,0,27,0.4,2,180,0,0,0.6004128000058699,['y'],0.9462800000037532,1.892,524.7353212000016,,,,,513,20,Woman,Right,
,,,,,,,,,,,,,,,,,513,20,Woman,Right,0,46,0.15,1,180,-,180,1.0981807999996818,['n'],2.58292259999871,1.3479999999999999,532.118937399995,,,,,513,20,Woman,Right,
,,,,,,,,,,,,,,,,,513,20,Woman,Right,0,58,0.15,1,180,-,180,1.4638431999992463,['n'],0.9836939000015263,1.75,537.2013378999982,,,,,513,20,Woman,Right,
,,,,,,,,,,,,,,,,,513,20,Woman,Right,0,69,0.15,2,0,180,180,2.090970199998992,['n'],1.1512656999984756,1.6280000000000001,543.5514035000015,,,,,513,20,Woman,Right,
,,,,,,,,,,,,,,,,,513,20,Woman,Right,0,17,0.4,2,0,180,180,1.6811018000007607,['y'],1.0476774999988265,1.676,549.0023480999953,,,,,513,20,Woman,Right,
,,,,,,,,,,,,,,,,,513,20,Woman,Right,0,79,0.15,2,180,0,0,0.5922439999994822,['n'],1.4474905000024592,1.748,554.7519226000004,,,,,513,20,Woman,Right,
,,,,,,,,,,,,,,,,,513,20,Woman,Right,0,73,0.15,2,0,180,180,1.8373646000036388,['y'],1.6313933999990695,1.392,561.9354295999947,,,,,513,20,Woman,Right,
,,,,,,,,,,,,,,,,,513,20,Woman,Right,0,9,0.4,2,0,180,180,1.0153934999980265,['n'],5.023575500003062,1.252,571.9181349999999,,,,,513,20,Woman,Right,
,,,,,,,,,,,,,,,,,513,20,Woman,Right,0,57,0.15,2,0,180,0,0.9194688999996288,['n'],0.9995686999973259,1.7,576.768664999996,,,,,513,20,Woman,Right,
,,,,,,,,,,,,,,,,,513,20,Woman,Right,0,5,1,2,0,180,180,0.49653140000009444,['y'],0.7675457000004826,1.968,580.8190468999965,,,,,513,20,Woman,Right,
,,,,,,,,,,,,,,,,,513,20,Woman,Right,0,64,0.15,1,0,-,180,1.8835302000006777,['n'],1.6418431999991299,1.1360000000000001,587.8866765999992,,,,,513,20,Woman,Right,
,,,,,,,,,,,,,,,,,513,20,Woman,Right,0,7,1,2,180,0,0,0.6643167000001995,['y'],0.9671414999975241,1.972,592.3189558999948,,,,,513,20,Woman,Right,
,,,,,,,,,,,,,,,,,513,20,Woman,Right,0,71,0.15,2,180,0,0,1.0092512000046554,['y'],0.7442388999988907,1.722,597.434829400001,,,,,513,20,Woman,Right,
,,,,,,,,,,,,,,,,,513,20,Woman,Right,0,66,0.15,1,180,-,180,0.8391160999963176,['n'],1.0076565999988816,1.592,603.0525256999972,,,,,513,20,Woman,Right,
,,,,,,,,,,,,,,,,,513,20,Woman,Right,0,51,0.15,2,180,0,180,0.7159260999978869,['n'],1.0721571000030963,1.426,607.7189651000008,,,,,513,20,Woman,Right,
,,,,,,,,,,,,,,,,,513,20,Woman,Right,0,14,0.4,1,180,-,180,0.7354486999975052,['n'],1.0553884000037215,1.424,612.5355538000003,,,,,513,20,Woman,Right,
,,,,,,,,,,,,,,,,,513,20,Woman,Right,0,41,0.4,2,0,180,180,1.8429362000024412,['y'],1.0393259999982547,1.74,618.318886699999,,,,,513,20,Woman,Right,
,,,,,,,,,,,,,,,,,513,20,Woman,Right,0,6,1,1,180,-,180,1.7141484000021592,['n'],0.8072279999978491,2.0,624.8350724999982,,,,,513,20,Woman,Right,
,,,,,,,,,,,,,,,,,513,20,Woman,Right,0,75,0.15,2,180,0,0,1.9400898000021698,['n'],2.4004646000030334,1.492,634.0689867999972,,,,,513,20,Woman,Right,
,,,,,,,,,,,,,,,,,513,20,Woman,Right,0,48,0.15,1,0,-,0,0.7020514999967418,['n'],1.0878499999962514,1.292,640.0348807999981,,,,,513,20,Woman,Right,
,,,,,,,,,,,,,,,,,513,20,Woman,Right,0,13,0.4,2,0,180,180,0.8850585999971372,['y'],0.903286399996432,1.97,644.9856502999974,,,,,513,20,Woman,Right,
,,,,,,,,,,,,,,,,,513,20,Woman,Right,0,21,0.4,2,0,180,180,0.6562405000004219,['y'],1.8958937999996124,2.0,650.9848827999958,,,,,513,20,Woman,Right,
,,,,,,,,,,,,,,,,,513,20,Woman,Right,0,43,0.4,2,180,0,0,0.6623961000004783,['y'],0.9514634000006481,1.798,656.0182279,,,,,513,20,Woman,Right,
,,,,,,,,,,,,,,,,,513,20,Woman,Right,0,22,0.4,1,180,-,0,0.632949799997732,['y'],0.775163699996483,1.796,660.2018398,,,,,513,20,Woman,Right,
,,,,,,,,,,,,,,,,,513,20,Woman,Right,0,78,0.15,1,180,-,180,0.8305709999985993,['n'],0.9512165999985882,1.688,664.6182593999984,,,,,513,20,Woman,Right,
,,,,,,,,,,,,,,,,,513,20,Woman,Right,0,2,1,1,180,-,180,1.042322299996158,['n'],1.0718901999935042,1.68,669.6182601999972,,,,,513,20,Woman,Right,
,,,,,,,,,,,,,,,,,513,20,Woman,Right,0,61,0.15,2,0,180,180,1.4377730999985943,['n'],1.2795803999979398,1.214,676.6515775000007,,,,,513,20,Woman,Right,
,,,,,,,,,,,,,,,,,513,20,Woman,Right,0,40,0.4,1,0,-,0,0.7086605000004056,['n'],2.416145000002871,1.876,683.2515172999993,,,,,513,20,Woman,Right,
,,,,,,,,,,,,,,,,,513,20,Woman,Right,0,28,0.4,1,0,-,0,0.7354735000044457,['n'],1.9438449000008404,1.93,689.5190430000002,,,,,513,20,Woman,Right,
,,,,,,,,,,,,,,,,,513,20,Woman,Right,0,70,0.15,1,180,-,180,0.7562513000011677,['n'],1.3592444999958389,1.834,694.6189400000003,,,,,513,20,Woman,Right,
,,,,,,,,,,,,,,,,,513,20,Woman,Right,0,30,0.4,1,180,-,180,0.3818957000039518,['n'],0.9039570999957505,1.858,699.9515331000002,,,,,513,20,Woman,Right,
,,,,,,,,,,,,,,,,,513,20,Woman,Right,0,59,0.15,2,180,0,180,0.35726769999746466,['n'],0.9675860999996075,1.79,704.1015542999958,,,,,513,20,Woman,Right,
,,,,,,,,,,,,,,,,,513,20,Woman,Right,0,63,0.15,2,180,0,180,0.6122474000003422,['n'],1.0868933999954606,1.818,708.4516232999958,,,,,513,20,Woman,Right,
,,,,,,,,,,,,,,,,,513,20,Woman,Right,0,52,0.15,1,0,-,180,1.3406660999971791,['n'],0.9202500000028522,1.3359999999999999,714.1857202999963,,,,,513,20,Woman,Right,
,,,,,,,,,,,,,,,,,513,20,Woman,Right,0,55,0.15,2,180,0,0,0.5980276000045706,['n'],1.327934599998116,1.268,719.2850166999997,,,,,513,20,Woman,Right,
,,,,,,,,,,,,,,,,,513,20,Woman,Right,0,77,0.15,2,0,180,180,0.39311529999395134,['n'],1.3749896000008448,1.3399999999999999,724.134939399999,,,,,513,20,Woman,Right,
,,,,,,,,,,,,,,,,,513,20,Woman,Right,0,15,0.4,2,180,0,0,0.38923890000296524,['n'],0.9039659000045503,1.304,728.235904299996,,,,,513,20,Woman,Right,
,,,,,,,,,,,,,,,,,513,20,Woman,Right,0,54,0.15,1,180,-,180,0.42460059999575606,['n'],1.095799700000498,1.366,732.6689984999975,,,,,513,20,Woman,Right,
,,,,,,,,,,,,,,,,,513,20,Woman,Right,0,47,0.15,2,180,0,180,7.369278499994834,['n'],0.9277930999960518,1.346,743.5859386000011,,,,,513,20,Woman,Right,
,,,,,,,,,,,,,,,,,513,20,Woman,Right,0,44,0.15,1,0,-,0,1.5084825000012643,['n'],1.1357299999945099,1.3399999999999999,749.1520491999981,,,,,513,20,Woman,Right,
,,,,,,,,,,,,,,,,,513,20,Woman,Right,0,10,0.4,1,180,-,180,0.552425800000492,['n'],1.4720334999947227,1.4140000000000001,753.8349598999994,,,,,513,20,Woman,Right,
,,,,,,,,,,,,,,,,,513,20,Woman,Right,0,38,0.4,1,180,-,180,0.3816861000013887,['n'],1.0641150000010384,1.432,757.7691874000011,,,,,513,20,Woman,Right,
,,,,,,,,,,,,,,,,,513,20,Woman,Right,1,67,0.15,2,180,0,180,0.5665480000025127,['n'],1.2467965999967419,1.63,803.6861809999973,82.5,85.0,65.0,,513,20,Woman,Right,
,,,,,,,,,,,,,,,,,513,20,Woman,Right,1,18,0.4,1,180,-,180,0.42572389999986626,['n'],3.351886500000546,1.694,810.5018386000011,,,,,513,20,Woman,Right,
,,,,,,,,,,,,,,,,,513,20,Woman,Right,1,55,0.15,2,180,0,0,1.169888099997479,['y'],1.0073348000005353,1.198,815.6517385999978,,,,,513,20,Woman,Right,
,,,,,,,,,,,,,,,,,513,20,Woman,Right,1,12,0.4,1,0,-,0,0.3771813000057591,['n'],0.8639528999992763,1.784,820.0190711999967,,,,,513,20,Woman,Right,
,,,,,,,,,,,,,,,,,513,20,Woman,Right,1,29,0.4,2,0,180,180,0.5700046000056318,['y'],1.0559745999998995,1.688,824.7683546999979,,,,,513,20,Woman,Right,
,,,,,,,,,,,,,,,,,513,20,Woman,Right,1,60,0.15,1,0,-,180,0.6823480000020936,['n'],0.9675633000006201,1.674,829.1186514000001,,,,,513,20,Woman,Right,
,,,,,,,,,,,,,,,,,513,20,Woman,Right,1,5,1,2,0,180,180,0.9597046999988379,['y'],0.6638019000019995,1.956,834.5019637000005,,,,,513,20,Woman,Right,
,,,,,,,,,,,,,,,,,513,20,Woman,Right,1,76,0.15,1,0,-,180,0.6268695999970078,['n'],0.8791004000013345,1.302,839.9021614000012,,,,,513,20,Woman,Right,
,,,,,,,,,,,,,,,,,513,20,Woman,Right,1,20,0.4,1,0,-,0,0.6708010000002105,['n'],0.8802709999945364,1.726,844.0358292999954,,,,,513,20,Woman,Right,
,,,,,,,,,,,,,,,,,513,20,Woman,Right,1,16,0.4,1,0,-,180,0.7687769999974989,['y'],0.6241024999981164,1.728,847.968635199999,,,,,513,20,Woman,Right,
,,,,,,,,,,,,,,,,,513,20,Woman,Right,1,72,0.15,1,0,-,0,0.5937555999989854,['n'],0.6879496999972616,1.728,851.768470199997,,,,,513,20,Woman,Right,
,,,,,,,,,,,,,,,,,513,20,Woman,Right,1,24,0.4,1,0,-,180,5.7016768000030424,['n'],0.7682512999963365,1.728,860.701754099995,,,,,513,20,Woman,Right,
,,,,,,,,,,,,,,,,,513,20,Woman,Right,1,40,0.4,1,0,-,0,1.073953099999926,['n'],0.8955080000014277,1.728,865.0853930999947,,,,,513,20,Woman,Right,
,,,,,,,,,,,,,,,,,513,20,Woman,Right,1,3,1,2,180,0,0,0.6525856999942334,['y'],1.9196622999952524,1.9060000000000001,870.5858707000007,,,,,513,20,Woman,Right,
,,,,,,,,,,,,,,,,,513,20,Woman,Right,1,38,0.4,1,180,-,180,0.675344800001767,['n'],2.11156270000356,1.8900000000000001,876.9850936000003,,,,,513,20,Woman,Right,
,,,,,,,,,,,,,,,,,513,20,Woman,Right,1,13,0.4,2,0,180,180,0.5511939999996684,['y'],1.0877299999992829,1.76,881.2691397000017,,,,,513,20,Woman,Right,
,,,,,,,,,,,,,,,,,513,20,Woman,Right,1,75,0.15,2,180,0,180,0.6998143000018899,['n'],0.6558233999967342,1.666,885.3018251999965,,,,,513,20,Woman,Right,
,,,,,,,,,,,,,,,,,513,20,Woman,Right,1,50,0.15,1,180,-,180,0.6634073999957764,['n'],2.2237522000068566,1.792,891.1351816999959,,,,,513,20,Woman,Right,
,,,,,,,,,,,,,,,,,513,20,Woman,Right,1,69,0.15,2,0,180,180,0.8779275999986567,['y'],0.8314946000027703,1.768,895.3851624999952,,,,,513,20,Woman,Right,
,,,,,,,,,,,,,,,,,513,20,Woman,Right,1,6,1,1,180,-,180,0.7489664000022458,['n'],1.039312200002314,1.876,899.7858139999953,,,,,513,20,Woman,Right,
,,,,,,,,,,,,,,,,,513,20,Woman,Right,1,9,0.4,2,0,180,180,0.47228780000295956,['y'],0.8801110999993398,1.916,903.9359331000014,,,,,513,20,Woman,Right,
,,,,,,,,,,,,,,,,,513,20,Woman,Right,1,74,0.15,1,180,-,180,0.7121199999965029,['n'],1.9357325000019046,1.9060000000000001,908.9693891999996,,,,,513,20,Woman,Right,
,,,,,,,,,,,,,,,,,513,20,Woman,Right,1,62,0.15,1,180,-,180,0.927667100004328,['n'],1.4716600000028848,1.6280000000000001,913.7351903000017,,,,,513,20,Woman,Right,
,,,,,,,,,,,,,,,,,513,20,Woman,Right,1,31,0.4,2,180,0,0,0.5452263000042876,['y'],1.031596000000718,1.724,919.5360861000008,,,,,513,20,Woman,Right,
,,,,,,,,,,,,,,,,,513,20,Woman,Right,1,52,0.15,1,0,-,0,1.6714026000045124,['n'],0.8479179999994813,1.724,924.8018984000009,,,,,513,20,Woman,Right,
,,,,,,,,,,,,,,,,,513,20,Woman,Right,1,70,0.15,1,180,-,180,0.4852062999998452,['n'],0.7755034000001615,1.724,928.401921699995,,,,,513,20,Woman,Right,
,,,,,,,,,,,,,,,,,513,20,Woman,Right,1,63,0.15,2,180,0,0,1.1909895999997389,['n'],1.0318183999988833,1.3519999999999999,933.3192156000005,,,,,513,20,Woman,Right,
,,,,,,,,,,,,,,,,,513,20,Woman,Right,1,39,0.4,2,180,0,0,1.0555979999990086,['y'],0.8639677000028314,1.672,937.9860188999955,,,,,513,20,Woman,Right,
,,,,,,,,,,,,,,,,,513,20,Woman,Right,1,59,0.15,2,180,0,180,0.8377709999986109,['n'],0.7277170000015758,1.4100000000000001,942.3859502999985,,,,,513,20,Woman,Right,
,,,,,,,,,,,,,,,,,513,20,Woman,Right,1,25,0.4,2,0,180,180,1.2172807000024477,['y'],2.1449255000043195,1.626,948.2685501000014,,,,,513,20,Woman,Right,
,,,,,,,,,,,,,,,,,513,20,Woman,Right,1,1,1,2,0,180,180,0.5508605000068201,['y'],2.1996351999987382,1.968,954.2018576999981,,,,,513,20,Woman,Right,
,,,,,,,,,,,,,,,,,513,20,Woman,Right,1,47,0.15,2,180,0,0,0.9406754999945406,['y'],1.391732799995225,1.572,960.6685308000015,,,,,513,20,Woman,Right,
,,,,,,,,,,,,,,,,,513,20,Woman,Right,1,43,0.4,2,180,0,0,0.3692936000006739,['y'],1.6159627000015462,1.63,965.851995099998,,,,,513,20,Woman,Right,
,,,,,,,,,,,,,,,,,513,20,Woman,Right,1,73,0.15,2,0,180,0,0.8157143999997061,['y'],1.103736700002628,1.442,971.6859389999954,,,,,513,20,Woman,Right,
,,,,,,,,,,,,,,,,,513,20,Woman,Right,1,53,0.15,2,0,180,180,1.5778239999999641,['n'],1.0795618999982253,1.204,978.3860905999973,,,,,513,20,Woman,Right,
,,,,,,,,,,,,,,,,,513,20,Woman,Right,1,4,1,1,0,-,0,0.7058659999966039,['n'],1.8154781999983243,1.968,983.7362055999984,,,,,513,20,Woman,Right,
,,,,,,,,,,,,,,,,,513,20,Woman,Right,1,37,0.4,2,0,180,180,0.880861300000106,['y'],0.8801782999944407,1.826,988.1019516000015,,,,,513,20,Woman,Right,
,,,,,,,,,,,,,,,,,513,20,Woman,Right,1,7,1,2,180,0,0,1.0054995999962557,['y'],0.847830899998371,1.942,992.8518990000011,,,,,513,20,Woman,Right,
,,,,,,,,,,,,,,,,,513,20,Woman,Right,1,44,0.15,1,0,-,180,1.0940394999997807,['n'],0.9431597000002512,1.9,997.7019346000016,,,,,513,20,Woman,Right,
,,,,,,,,,,,,,,,,,513,20,Woman,Right,1,71,0.15,2,180,0,180,0.908768000001146,['n'],0.8714981000011903,1.9,1002.1692136999991,,,,,513,20,Woman,Right,
,,,,,,,,,,,,,,,,,513,20,Woman,Right,1,30,0.4,1,180,-,180,1.2169069000010495,['n'],1.3916468000024906,1.9,1007.2186231999949,,,,,513,20,Woman,Right,
,,,,,,,,,,,,,,,,,513,20,Woman,Right,1,58,0.15,1,180,-,180,5.138183700000809,['n'],0.599569199999678,1.9,1015.4019617000013,,,,,513,20,Woman,Right,
,,,,,,,,,,,,,,,,,513,20,Woman,Right,1,51,0.15,2,180,0,180,0.4608483000047272,['n'],1.375377500000468,1.326,1020.5353563999961,,,,,513,20,Woman,Right,
,,,,,,,,,,,,,,,,,513,20,Woman,Right,1,23,0.4,2,180,0,0,0.6028997999965213,['y'],0.8238952999963658,1.662,1024.4519163000004,,,,,513,20,Woman,Right,
,,,,,,,,,,,,,,,,,513,20,Woman,Right,1,19,0.4,2,180,0,0,0.8179440000021714,['y'],0.73516770000424,1.688,1028.8855994999976,,,,,513,20,Woman,Right,
,,,,,,,,,,,,,,,,,513,20,Woman,Right,1,11,0.4,2,180,0,0,2.9173492999980226,['n'],1.0162597999951686,1.264,1036.2520661000017,,,,,513,20,Woman,Right,
,,,,,,,,,,,,,,,,,513,20,Woman,Right,1,33,0.4,2,0,180,180,1.3820156000001589,['n'],2.0477347999985795,1.684,1042.6868457999954,,,,,513,20,Woman,Right,
,,,,,,,,,,,,,,,,,513,20,Woman,Right,1,77,0.15,2,0,180,180,0.7108537999956752,['y'],0.9596768999981578,1.244,1048.6186942999993,,,,,513,20,Woman,Right,
,,,,,,,,,,,,,,,,,513,20,Woman,Right,1,36,0.4,1,0,-,180,0.5800529999978608,['y'],0.9030085000049439,1.306,1052.9519217999987,,,,,513,20,Woman,Right,
,,,,,,,,,,,,,,,,,513,20,Woman,Right,1,78,0.15,1,180,-,0,0.7078392000039457,['n'],0.7032833999983268,1.6440000000000001,1057.0859415000014,,,,,513,20,Woman,Right,
,,,,,,,,,,,,,,,,,513,20,Woman,Right,1,61,0.15,2,0,180,180,0.5837030999973649,['n'],1.0006629999988945,1.646,1061.4195346999986,,,,,513,20,Woman,Right,
,,,,,,,,,,,,,,,,,513,20,Woman,Right,1,64,0.15,1,0,-,180,0.451656199998979,['n'],0.720281400004751,1.646,1066.0020593000008,,,,,513,20,Woman,Right,
,,,,,,,,,,,,,,,,,513,20,Woman,Right,1,35,0.4,2,180,0,0,0.9533555000016349,['y'],0.8725156000000425,1.708,1070.336088600001,,,,,513,20,Woman,Right,
,,,,,,,,,,,,,,,,,513,20,Woman,Right,1,41,0.4,2,0,180,180,1.7298975999947288,['y'],0.7835924999963026,1.71,1075.7186296,,,,,513,20,Woman,Right,
,,,,,,,,,,,,,,,,,513,20,Woman,Right,1,17,0.4,2,0,180,180,0.5441433000014513,['y'],1.1917362999956822,1.6480000000000001,1080.9022884000005,,,,,513,20,Woman,Right,
,,,,,,,,,,,,,,,,,513,20,Woman,Right,1,26,0.4,1,180,-,180,0.6338353999963147,['n'],0.9194983999987016,1.642,1085.568649199995,,,,,513,20,Woman,Right,
,,,,,,,,,,,,,,,,,513,20,Woman,Right,1,54,0.15,1,180,-,180,0.9383862000031513,['n'],0.8075571000008495,1.6520000000000001,1089.7693557999955,,,,,513,20,Woman,Right,
,,,,,,,,,,,,,,,,,513,20,Woman,Right,1,14,0.4,1,180,-,180,1.5869517000028281,['n'],0.7924830999982078,1.6520000000000001,1094.5868598000015,,,,,513,20,Woman,Right,
,,,,,,,,,,,,,,,,,513,20,Woman,Right,1,15,0.4,2,180,0,0,0.3797913999951561,['y'],0.8960022000028403,1.654,1098.386037999997,,,,,513,20,Woman,Right,
,,,,,,,,,,,,,,,,,513,20,Woman,Right,1,32,0.4,1,0,-,0,0.6792384000000311,['n'],0.8317330999998376,1.68,1102.652459799996,,,,,513,20,Woman,Right,
,,,,,,,,,,,,,,,,,513,20,Woman,Right,1,2,1,1,180,-,180,1.1077594000016688,['n'],1.3836958999963826,1.928,1108.2694151999967,,,,,513,20,Woman,Right,
,,,,,,,,,,,,,,,,,513,20,Woman,Right,1,49,0.15,2,0,180,0,0.45901620000222465,['n'],1.943381600001885,1.918,1113.9520889999985,,,,,513,20,Woman,Right,
,,,,,,,,,,,,,,,,,513,20,Woman,Right,1,8,0.4,1,0,-,180,1.7010516000009375,['n'],0.9356040000056964,1.212,1119.4853737000012,,,,,513,20,Woman,Right,
,,,,,,,,,,,,,,,,,513,20,Woman,Right,1,28,0.4,1,0,-,0,0.4600034999966738,['n'],3.6966181000025244,1.836,1126.1357653999949,,,,,513,20,Woman,Right,
,,,,,,,,,,,,,,,,,513,20,Woman,Right,1,10,0.4,1,180,-,180,0.46706360000098357,['n'],1.8251154000026872,1.782,1131.1520767999973,,,,,513,20,Woman,Right,
,,,,,,,,,,,,,,,,,513,20,Woman,Right,1,27,0.4,2,180,0,0,1.1556634000007762,['y'],0.8476302999988548,1.806,1135.6693975000017,,,,,513,20,Woman,Right,
,,,,,,,,,,,,,,,,,513,20,Woman,Right,1,79,0.15,2,180,0,180,0.620262600001297,['n'],1.3607743000029586,1.8,1140.2860834999956,,,,,513,20,Woman,Right,
,,,,,,,,,,,,,,,,,513,20,Woman,Right,1,57,0.15,2,0,180,180,1.1996132999993279,['y'],0.9600307000000612,1.6,1145.886053999995,,,,,513,20,Woman,Right,
,,,,,,,,,,,,,,,,,513,20,Woman,Right,1,66,0.15,1,180,-,180,0.7675742999999784,['n'],4.448112699996273,1.38,1154.269752799999,,,,,513,20,Woman,Right,
,,,,,,,,,,,,,,,,,513,20,Woman,Right,1,42,0.4,1,180,-,180,0.4884834000040428,['n'],1.1679845999969984,1.452,1158.8521955999968,,,,,513,20,Woman,Right,
,,,,,,,,,,,,,,,,,513,20,Woman,Right,1,68,0.15,1,0,-,180,0.5845405000000028,['n'],2.2564610999979777,1.4,1164.7856322000007,,,,,513,20,Woman,Right,
,,,,,,,,,,,,,,,,,513,20,Woman,Right,1,0,1,1,0,-,0,0.3918162999980268,['n'],0.976235900001484,1.978,1169.5194152999975,,,,,513,20,Woman,Right,
,,,,,,,,,,,,,,,,,513,20,Woman,Right,1,21,0.4,2,0,180,180,0.598850800000946,['y'],0.8719373999992968,1.832,1173.7022714999985,,,,,513,20,Woman,Right,
,,,,,,,,,,,,,,,,,513,20,Woman,Right,1,34,0.4,1,180,-,180,0.4979700999974739,['n'],0.831988400001137,1.57,1179.3530070999986,,,,,513,20,Woman,Right,
,,,,,,,,,,,,,,,,,513,20,Woman,Right,1,45,0.15,2,0,180,0,0.3094734000042081,['n'],1.9348852999974042,1.742,1184.2355750999996,,,,,513,20,Woman,Right,
,,,,,,,,,,,,,,,,,513,20,Woman,Right,1,48,0.15,1,0,-,0,1.9339212999984738,['n'],0.7938246999983676,1.744,1189.3020778999999,,,,,513,20,Woman,Right,
,,,,,,,,,,,,,,,,,513,20,Woman,Right,1,65,0.15,2,0,180,180,1.4318570000032196,['y'],0.7833800999942468,1.3319999999999999,1194.5361495999969,,,,,513,20,Woman,Right,
,,,,,,,,,,,,,,,,,513,20,Woman,Right,1,22,0.4,1,180,-,180,0.43408869999984745,['n'],1.1995678000021144,1.3599999999999999,1198.7024571000002,,,,,513,20,Woman,Right,
,,,,,,,,,,,,,,,,,513,20,Woman,Right,1,46,0.15,1,180,-,0,0.46436860000540037,['n'],0.9106462999989162,1.612,1202.8187510999996,,,,,513,20,Woman,Right,
,,,,,,,,,,,,,,,,,513,20,Woman,Right,1,56,0.15,1,0,-,180,1.1034916999997222,['y'],1.072096000003512,1.0979999999999999,1208.5522214000011,,,,,513,20,Woman,Right,
,,,,,,,,,,,,,,,,,513,20,Woman,Right,2,21,0.4,2,0,180,180,1.0999321999988751,['y'],0.5276459000015166,1.836,1238.819024999997,73.75,92.5,67.5,,513,20,Woman,Right,
,,,,,,,,,,,,,,,,,513,20,Woman,Right,2,52,0.15,1,0,-,180,1.1004307000039262,['n'],0.9116512000036892,1.802,1243.3190069999982,,,,,513,20,Woman,Right,
,,,,,,,,,,,,,,,,,513,20,Woman,Right,2,11,0.4,2,180,0,0,0.75635340000008,['y'],0.5916816999961156,1.77,1248.2359863999955,,,,,513,20,Woman,Right,
,,,,,,,,,,,,,,,,,513,20,Woman,Right,2,39,0.4,2,180,0,0,0.38613079999777256,['y'],0.8557674000039697,1.764,1252.0690928999975,,,,,513,20,Woman,Right,
,,,,,,,,,,,,,,,,,513,20,Woman,Right,2,46,0.15,1,180,-,180,0.8226137000019662,['n'],0.47979230000055395,1.764,1255.8525840000002,,,,,513,20,Woman,Right,
,,,,,,,,,,,,,,,,,513,20,Woman,Right,2,30,0.4,1,180,-,180,1.5048319999987143,['n'],0.9197232000005897,1.754,1262.4192033,,,,,513,20,Woman,Right,
,,,,,,,,,,,,,,,,,513,20,Woman,Right,2,50,0.15,1,180,-,180,0.8641688000061549,['n'],1.4798396000041976,1.74,1267.319031799998,,,,,513,20,Woman,Right,
,,,,,,,,,,,,,,,,,513,20,Woman,Right,2,66,0.15,1,180,-,180,0.9550909999961732,['n'],0.5999891999963438,1.26,1272.252375199998,,,,,513,20,Woman,Right,
,,,,,,,,,,,,,,,,,513,20,Woman,Right,2,56,0.15,1,0,-,0,0.7245650999975624,['n'],0.5438164000006509,1.328,1276.2023561999958,,,,,513,20,Woman,Right,
,,,,,,,,,,,,,,,,,513,20,Woman,Right,2,78,0.15,1,180,-,180,1.5179176000019652,['n'],0.9517822999987402,1.3940000000000001,1281.4190448000008,,,,,513,20,Woman,Right,
,,,,,,,,,,,,,,,,,513,20,Woman,Right,2,6,1,1,180,-,180,0.6185671000057482,['n'],0.5037150999996811,1.876,1286.2524040999997,,,,,513,20,Woman,Right,
,,,,,,,,,,,,,,,,,513,20,Woman,Right,2,64,0.15,1,0,-,0,1.4645231000031345,['n'],0.6237251000056858,1.124,1291.3190297999972,,,,,513,20,Woman,Right,
,,,,,,,,,,,,,,,,,513,20,Woman,Right,2,33,0.4,2,0,180,180,2.2405392000000575,['y'],0.8558259000055841,1.6400000000000001,1297.770246,,,,,513,20,Woman,Right,
,,,,,,,,,,,,,,,,,513,20,Woman,Right,2,9,0.4,2,0,180,180,1.2060975000058534,['n'],2.1760349000032875,1.0939999999999999,1305.7524044999955,,,,,513,20,Woman,Right,
,,,,,,,,,,,,,,,,,513,20,Woman,Right,2,47,0.15,2,180,0,0,1.5680378999968525,['n'],4.800870899998699,1.3940000000000001,1315.0521819999994,,,,,513,20,Woman,Right,
,,,,,,,,,,,,,,,,,513,20,Woman,Right,2,79,0.15,2,180,0,0,1.6479347999993479,['n'],0.7114146000021719,1.3940000000000001,1320.2860078000012,,,,,513,20,Woman,Right,
,,,,,,,,,,,,,,,,,513,20,Woman,Right,2,19,0.4,2,180,0,0,1.2859438000014052,['y'],0.7360001999986707,1.6440000000000001,1325.3187593999974,,,,,513,20,Woman,Right,
,,,,,,,,,,,,,,,,,513,20,Woman,Right,2,23,0.4,2,180,0,0,0.4652891000005184,['y'],0.7923319999972591,1.6440000000000001,1329.1191413999986,,,,,513,20,Woman,Right,
,,,,,,,,,,,,,,,,,513,20,Woman,Right,2,43,0.4,2,180,0,0,0.5083115000015823,['y'],1.1596303000042099,1.6440000000000001,1333.9362102999949,,,,,513,20,Woman,Right,
,,,,,,,,,,,,,,,,,513,20,Woman,Right,2,16,0.4,1,0,-,0,0.5451052000062191,['n'],0.6807273999947938,1.684,1339.4855040999973,,,,,513,20,Woman,Right,
,,,,,,,,,,,,,,,,,513,20,Woman,Right,2,42,0.4,1,180,-,180,0.3062960999959614,['n'],1.2079180000000633,1.684,1343.435536099998,,,,,513,20,Woman,Right,
,,,,,,,,,,,,,,,,,513,20,Woman,Right,2,17,0.4,2,0,180,180,0.5291486999994959,['y'],0.8311021999979857,1.704,1347.8355994999947,,,,,513,20,Woman,Right,
,,,,,,,,,,,,,,,,,513,20,Woman,Right,2,4,1,1,0,-,0,0.5235843999980716,['n'],0.8792049000039697,2.0,1351.7696748000017,,,,,513,20,Woman,Right,
,,,,,,,,,,,,,,,,,513,20,Woman,Right,2,31,0.4,2,180,0,0,0.5712400999982492,['y'],0.9109649000019999,2.0,1355.8521881999986,,,,,513,20,Woman,Right,
,,,,,,,,,,,,,,,,,513,20,Woman,Right,2,41,0.4,2,0,180,180,0.4925433000025805,['y'],1.9594476000056602,1.924,1361.5189575999975,,,,,513,20,Woman,Right,
,,,,,,,,,,,,,,,,,513,20,Woman,Right,2,71,0.15,2,180,0,0,1.030873399999109,['y'],1.2478265999961877,1.924,1366.2021832999962,,,,,513,20,Woman,Right,
,,,,,,,,,,,,,,,,,513,20,Woman,Right,2,24,0.4,1,0,-,0,0.6321609000005992,['n'],0.694428800001333,1.924,1369.7862591999947,,,,,513,20,Woman,Right,
,,,,,,,,,,,,,,,,,513,20,Woman,Right,2,68,0.15,1,0,-,180,1.5766657999993186,['n'],0.9685298999975203,1.262,1375.4022753999961,,,,,513,20,Woman,Right,
,,,,,,,,,,,,,,,,,513,20,Woman,Right,2,74,0.15,1,180,-,0,1.7438528000056976,['y'],1.184372199997597,1.362,1381.5862534999978,,,,,513,20,Woman,Right,
,,,,,,,,,,,,,,,,,513,20,Woman,Right,2,28,0.4,1,0,-,0,0.7598863000021083,['n'],0.7441900999983773,1.6019999999999999,1385.736278299999,,,,,513,20,Woman,Right,
,,,,,,,,,,,,,,,,,513,20,Woman,Right,2,2,1,1,180,-,180,0.5311968000023626,['n'],1.416048500002944,1.6019999999999999,1391.7696394000013,,,,,513,20,Woman,Right,
,,,,,,,,,,,,,,,,,513,20,Woman,Right,2,32,0.4,1,0,-,0,0.30915319999621715,['n'],1.7596435000014026,1.6280000000000001,1397.3195897999976,,,,,513,20,Woman,Right,
,,,,,,,,,,,,,,,,,513,20,Woman,Right,2,54,0.15,1,180,-,0,0.6225606999942102,['n'],0.6077513999989606,1.638,1402.669656099999,,,,,513,20,Woman,Right,
,,,,,,,,,,,,,,,,,513,20,Woman,Right,2,61,0.15,2,0,180,180,1.338576699999976,['n'],0.7200191000010818,1.274,1407.5527354000005,,,,,513,20,Woman,Right,
,,,,,,,,,,,,,,,,,513,20,Woman,Right,2,20,0.4,1,0,-,0,0.4230688999959966,['n'],0.9041758000021218,1.6520000000000001,1411.8022519000006,,,,,513,20,Woman,Right,
,,,,,,,,,,,,,,,,,513,20,Woman,Right,2,35,0.4,2,180,0,0,0.5123351000002003,['y'],0.799220000000787,1.626,1415.6863697000008,,,,,513,20,Woman,Right,
,,,,,,,,,,,,,,,,,513,20,Woman,Right,2,1,1,2,0,180,180,0.5939389999984996,['y'],0.6400310999961221,1.996,1419.919589899997,,,,,513,20,Woman,Right,
,,,,,,,,,,,,,,,,,513,20,Woman,Right,2,44,0.15,1,0,-,0,2.341821900001378,['n'],0.4633350999938557,1.6320000000000001,1426.2689486000017,,,,,513,20,Woman,Right,
,,,,,,,,,,,,,,,,,513,20,Woman,Right,2,10,0.4,1,180,-,180,1.683532400005788,['n'],0.7204488999996101,1.376,1431.5522624000005,,,,,513,20,Woman,Right,
,,,,,,,,,,,,,,,,,513,20,Woman,Right,2,26,0.4,1,180,-,180,0.7739744999998948,['n'],0.9756547999932081,1.79,1436.6189316999953,,,,,513,20,Woman,Right,
,,,,,,,,,,,,,,,,,513,20,Woman,Right,2,7,1,2,180,0,0,0.44801749999896856,['y'],0.4957533000051626,2.0,1440.3356516999993,,,,,513,20,Woman,Right,
,,,,,,,,,,,,,,,,,513,20,Woman,Right,2,69,0.15,2,0,180,180,0.7776540999984718,['n'],0.743182699996396,1.428,1445.2522685000004,,,,,513,20,Woman,Right,
,,,,,,,,,,,,,,,,,513,20,Woman,Right,2,62,0.15,1,180,-,180,0.44475360000069486,['n'],0.6872633000020869,1.28,1448.9856461000018,,,,,513,20,Woman,Right,
,,,,,,,,,,,,,,,,,513,20,Woman,Right,2,72,0.15,1,0,-,0,0.8076153000001796,['n'],0.5676080999983242,1.306,1453.3022543999978,,,,,513,20,Woman,Right,
,,,,,,,,,,,,,,,,,513,20,Woman,Right,2,45,0.15,2,0,180,0,0.7034398000032525,['n'],0.5835533000063151,1.274,1457.2690497000003,,,,,513,20,Woman,Right,
,,,,,,,,,,,,,,,,,513,20,Woman,Right,2,27,0.4,2,180,0,180,0.6957427000015741,['n'],4.944755299999088,1.308,1467.919836000001,,,,,513,20,Woman,Right,
,,,,,,,,,,,,,,,,,513,20,Woman,Right,2,8,0.4,1,0,-,0,0.4589514999970561,['n'],1.087404099998821,1.3719999999999999,1472.4363285,,,,,513,20,Woman,Right,
,,,,,,,,,,,,,,,,,513,20,Woman,Right,2,57,0.15,2,0,180,0,0.48229519999586046,['n'],1.5279526000012993,1.624,1476.985680699996,,,,,513,20,Woman,Right,
,,,,,,,,,,,,,,,,,513,20,Woman,Right,2,3,1,2,180,0,0,0.4223738999935449,['y'],0.5355497000055038,2.0,1480.8363186999995,,,,,513,20,Woman,Right,
,,,,,,,,,,,,,,,,,513,20,Woman,Right,2,67,0.15,2,180,0,180,0.6028337999960058,['n'],0.4635742000027676,1.93,1484.7523608999982,,,,,513,20,Woman,Right,
,,,,,,,,,,,,,,,,,513,20,Woman,Right,2,38,0.4,1,180,-,180,0.5838323000061791,['n'],1.9597982999985106,1.742,1489.9033397999956,,,,,513,20,Woman,Right,
,,,,,,,,,,,,,,,,,513,20,Woman,Right,2,22,0.4,1,180,-,0,0.8195321000021067,['n'],0.9281646000017645,1.262,1494.586343199997,,,,,513,20,Woman,Right,
,,,,,,,,,,,,,,,,,513,20,Woman,Right,2,58,0.15,1,180,-,180,0.7596912999943015,['n'],0.9430261000015889,1.326,1499.3526472999947,,,,,513,20,Woman,Right,
,,,,,,,,,,,,,,,,,513,20,Woman,Right,2,53,0.15,2,0,180,0,1.6558590999993612,['n'],1.2159013999989838,1.5979999999999999,1505.0190279000017,,,,,513,20,Woman,Right,
,,,,,,,,,,,,,,,,,513,20,Woman,Right,2,40,0.4,1,0,-,0,1.0099716999975499,['n'],1.2796519999974407,1.294,1510.1022078999958,,,,,513,20,Woman,Right,
,,,,,,,,,,,,,,,,,513,20,Woman,Right,2,5,1,2,0,180,180,1.147064999997383,['y'],0.6640566000060062,1.996,1515.2863684999975,,,,,513,20,Woman,Right,
,,,,,,,,,,,,,,,,,513,20,Woman,Right,2,18,0.4,1,180,-,180,0.5170799999978044,['n'],0.5919174000009662,1.326,1519.3196323999946,,,,,513,20,Woman,Right,
,,,,,,,,,,,,,,,,,513,20,Woman,Right,2,29,0.4,2,0,180,180,1.0334794000009424,['y'],0.6628139999957057,1.726,1523.9364000999994,,,,,513,20,Woman,Right,
,,,,,,,,,,,,,,,,,513,20,Woman,Right,2,76,0.15,1,0,-,0,0.8031397000013385,['n'],0.5754046000001836,1.708,1527.8524644999998,,,,,513,20,Woman,Right,
,,,,,,,,,,,,,,,,,513,20,Woman,Right,2,0,1,1,0,-,0,0.5678167000005487,['n'],0.6717454000026919,2.0,1531.902401899999,,,,,513,20,Woman,Right,
,,,,,,,,,,,,,,,,,513,20,Woman,Right,2,25,0.4,2,0,180,180,1.5393796999996994,['y'],0.6563544999953592,1.5739999999999998,1537.937440099995,,,,,513,20,Woman,Right,
,,,,,,,,,,,,,,,,,513,20,Woman,Right,2,63,0.15,2,180,0,0,0.9181420000022626,['y'],0.6231639999969047,1.74,1542.069718300001,,,,,513,20,Woman,Right,
,,,,,,,,,,,,,,,,,513,20,Woman,Right,2,13,0.4,2,0,180,180,0.7202028999963659,['y'],0.672174500003166,1.736,1546.1023665999965,,,,,513,20,Woman,Right,
,,,,,,,,,,,,,,,,,513,20,Woman,Right,2,60,0.15,1,0,-,180,0.516575899993768,['y'],1.05195530000492,1.734,1551.1198908000006,,,,,513,20,Woman,Right,
,,,,,,,,,,,,,,,,,513,20,Woman,Right,2,14,0.4,1,180,-,180,0.7859498000034364,['n'],0.6951677999968524,1.728,1555.3698867999992,,,,,513,20,Woman,Right,
,,,,,,,,,,,,,,,,,513,20,Woman,Right,2,59,0.15,2,180,0,180,0.600127199999406,['n'],0.8436814000015147,1.276,1560.1365814999954,,,,,513,20,Woman,Right,
,,,,,,,,,,,,,,,,,513,20,Woman,Right,2,75,0.15,2,180,0,180,0.7533094000027631,['n'],0.7515456000037375,1.276,1564.5191829999967,,,,,513,20,Woman,Right,
,,,,,,,,,,,,,,,,,513,20,Woman,Right,2,70,0.15,1,180,-,0,0.9025388000009116,['n'],0.8075767999980599,1.312,1568.9364592999991,,,,,513,20,Woman,Right,
,,,,,,,,,,,,,,,,,513,20,Woman,Right,2,73,0.15,2,0,180,0,0.5744984999982989,['n'],0.5524395000029472,1.312,1572.7198671000006,,,,,513,20,Woman,Right,
,,,,,,,,,,,,,,,,,513,20,Woman,Right,2,55,0.15,2,180,0,0,0.5002762000003713,['n'],0.9214035999975749,1.312,1576.5199231000006,,,,,513,20,Woman,Right,
,,,,,,,,,,,,,,,,,513,20,Woman,Right,2,49,0.15,2,0,180,0,1.3681419999993523,['n'],0.9199521999980789,1.312,1581.4365111000006,,,,,513,20,Woman,Right,
,,,,,,,,,,,,,,,,,513,20,Woman,Right,2,36,0.4,1,0,-,0,0.5221229999951902,['n'],0.6240812999967602,1.736,1585.4876588999978,,,,,513,20,Woman,Right,
,,,,,,,,,,,,,,,,,513,20,Woman,Right,2,51,0.15,2,180,0,180,0.9246655000024475,['n'],0.6873569000017596,1.1520000000000001,1589.8524077999973,,,,,513,20,Woman,Right,
,,,,,,,,,,,,,,,,,513,20,Woman,Right,2,37,0.4,2,0,180,180,0.8098605999985011,['y'],0.6635514000008698,1.6139999999999999,1593.9858329999988,,,,,513,20,Woman,Right,
,,,,,,,,,,,,,,,,,513,20,Woman,Right,2,77,0.15,2,0,180,0,0.6458836000019801,['n'],0.6475740000023507,1.6139999999999999,1597.8038592000012,,,,,513,20,Woman,Right,
,,,,,,,,,,,,,,,,,513,20,Woman,Right,2,65,0.15,2,0,180,0,0.5513043000028119,['n'],0.6159254000012879,1.6139999999999999,1601.3864665,,,,,513,20,Woman,Right,
,,,,,,,,,,,,,,,,,513,20,Woman,Right,2,12,0.4,1,0,-,0,0.5545714000036241,['n'],0.5033506999970996,1.6139999999999999,1604.7690854999964,,,,,513,20,Woman,Right,
,,,,,,,,,,,,,,,,,513,20,Woman,Right,2,48,0.15,1,0,-,0,1.4649639999988722,['n'],1.127881200001866,1.6139999999999999,1609.820784399999,,,,,513,20,Woman,Right,
,,,,,,,,,,,,,,,,,513,20,Woman,Right,2,34,0.4,1,180,-,0,0.8006107000037446,['n'],0.464231000005384,1.6139999999999999,1613.6364419999954,,,,,513,20,Woman,Right,
,,,,,,,,,,,,,,,,,513,20,Woman,Right,2,15,0.4,2,180,0,0,0.49510079999890877,['y'],0.535973500002001,1.6139999999999999,1617.0865583999985,,,,,513,20,Woman,Right,
,,,,,,,,,,,,,,,,,513,20,Woman,Right,3,10,0.4,1,180,-,180,0.77237750000495,['n'],1.1115788000024622,1.674,1647.1192611000006,75.0,95.0,55.0,,513,20,Woman,Right,
,,,,,,,,,,,,,,,,,513,20,Woman,Right,3,8,0.4,1,0,-,0,0.48665169999731006,['n'],0.8559881999972276,1.674,1650.8197796999957,,,,,513,20,Woman,Right,
,,,,,,,,,,,,,,,,,513,20,Woman,Right,3,32,0.4,1,0,-,0,0.5015141000039876,['n'],0.5596881999954348,1.674,1654.4365380000017,,,,,513,20,Woman,Right,
,,,,,,,,,,,,,,,,,513,20,Woman,Right,3,73,0.15,2,0,180,0,0.6773006000003079,['n'],0.7753307000020868,1.1179999999999999,1658.8698984000002,,,,,513,20,Woman,Right,
,,,,,,,,,,,,,,,,,513,20,Woman,Right,3,35,0.4,2,180,0,0,0.5051260000036564,['y'],0.5437411999955657,1.6280000000000001,1662.6025194999966,,,,,513,20,Woman,Right,
,,,,,,,,,,,,,,,,,513,20,Woman,Right,3,67,0.15,2,180,0,0,0.3762003999945591,['y'],1.176467400000547,1.576,1666.3524217999948,,,,,513,20,Woman,Right,
,,,,,,,,,,,,,,,,,513,20,Woman,Right,3,39,0.4,2,180,0,0,0.5007335999980569,['y'],0.6479884999935166,1.58,1671.7198101999966,,,,,513,20,Woman,Right,
,,,,,,,,,,,,,,,,,513,20,Woman,Right,3,21,0.4,2,0,180,180,0.4451532999955816,['y'],0.5680902999956743,1.782,1675.4525613000005,,,,,513,20,Woman,Right,
,,,,,,,,,,,,,,,,,513,20,Woman,Right,3,53,0.15,2,0,180,0,0.828549900004873,['y'],2.783388700001524,1.616,1681.9358820999987,,,,,513,20,Woman,Right,
,,,,,,,,,,,,,,,,,513,20,Woman,Right,3,11,0.4,2,180,0,0,0.4899151999998139,['y'],0.6879811999970116,1.616,1685.5365869000016,,,,,513,20,Woman,Right,
,,,,,,,,,,,,,,,,,513,20,Woman,Right,3,34,0.4,1,180,-,180,2.341519399997196,['n'],0.8557722999976249,1.616,1691.0193016999983,,,,,513,20,Woman,Right,
,,,,,,,,,,,,,,,,,513,20,Woman,Right,3,19,0.4,2,180,0,0,0.4909287999980734,['y'],0.7365804000000935,1.616,1694.7191492999991,,,,,513,20,Woman,Right,
,,,,,,,,,,,,,,,,,513,20,Woman,Right,3,66,0.15,1,180,-,180,0.698077100001683,['n'],0.9918913000001339,1.616,1699.135867799996,,,,,513,20,Woman,Right,
,,,,,,,,,,,,,,,,,513,20,Woman,Right,3,43,0.4,2,180,0,0,0.6484838999967906,['n'],8.664688199998636,1.2,1711.5367736999979,,,,,513,20,Woman,Right,
,,,,,,,,,,,,,,,,,513,20,Woman,Right,3,69,0.15,2,0,180,0,0.5895747999966261,['n'],2.05562479999935,1.662,1717.1692169999951,,,,,513,20,Woman,Right,
,,,,,,,,,,,,,,,,,513,20,Woman,Right,3,7,1,2,180,0,0,0.4183975999985705,['y'],0.5046125000008033,1.97,1721.4866148,,,,,513,20,Woman,Right,
,,,,,,,,,,,,,,,,,513,20,Woman,Right,3,9,0.4,2,0,180,180,0.5964036000004853,['n'],0.8311699999976554,1.3900000000000001,1726.6524948000006,,,,,513,20,Woman,Right,
,,,,,,,,,,,,,,,,,513,20,Woman,Right,3,17,0.4,2,0,180,180,1.417088900001545,['y'],0.5153118999951403,1.786,1731.2358822999959,,,,,513,20,Woman,Right,
,,,,,,,,,,,,,,,,,513,20,Woman,Right,3,37,0.4,2,0,180,180,0.4735852000012528,['y'],0.471066800004337,1.728,1734.8358876999991,,,,,513,20,Woman,Right,
,,,,,,,,,,,,,,,,,513,20,Woman,Right,3,41,0.4,2,0,180,180,0.41981630000373116,['y'],1.2713495999996667,1.728,1739.370130299998,,,,,513,20,Woman,Right,
,,,,,,,,,,,,,,,,,513,20,Woman,Right,3,42,0.4,1,180,-,180,0.6394589000046835,['n'],1.4241153999973903,1.728,1743.8695598999984,,,,,513,20,Woman,Right,
,,,,,,,,,,,,,,,,,513,20,Woman,Right,3,54,0.15,1,180,-,0,1.8784232000034535,['n'],0.8879105000014533,1.728,1748.9367028999986,,,,,513,20,Woman,Right,
,,,,,,,,,,,,,,,,,513,20,Woman,Right,3,26,0.4,1,180,-,180,0.5677192000002833,['n'],0.9685227000009036,1.3399999999999999,1753.3026736999964,,,,,513,20,Woman,Right,
,,,,,,,,,,,,,,,,,513,20,Woman,Right,3,64,0.15,1,0,-,0,2.519998800002213,['n'],0.9038652000017464,1.584,1760.9525901000015,,,,,513,20,Woman,Right,
,,,,,,,,,,,,,,,,,513,20,Woman,Right,3,1,1,2,0,180,180,1.209046899995883,['y'],1.7759146999960649,2.0,1766.7869540999964,,,,,513,20,Woman,Right,
,,,,,,,,,,,,,,,,,513,20,Woman,Right,3,52,0.15,1,0,-,180,1.7297647999948822,['y'],0.7596775999991223,1.3780000000000001,1772.3525459000011,,,,,513,20,Woman,Right,
,,,,,,,,,,,,,,,,,513,20,Woman,Right,3,60,0.15,1,0,-,0,0.5287382999958936,['y'],2.735633600001165,1.592,1782.0367514999962,,,,,513,20,Woman,Right,
,,,,,,,,,,,,,,,,,513,20,Woman,Right,3,25,0.4,2,0,180,180,0.7115680999995675,['y'],0.7755567999993218,1.744,1786.7862793999957,,,,,513,20,Woman,Right,
,,,,,,,,,,,,,,,,,513,20,Woman,Right,3,44,0.15,1,0,-,0,0.7833193000042229,['n'],0.766897000001336,1.722,1790.9865912999958,,,,,513,20,Woman,Right,
,,,,,,,,,,,,,,,,,513,20,Woman,Right,3,62,0.15,1,180,-,180,0.6568163999982062,['n'],0.808220099999744,1.316,1795.3526188999967,,,,,513,20,Woman,Right,
,,,,,,,,,,,,,,,,,513,20,Woman,Right,3,46,0.15,1,180,-,0,0.7657862999985809,['n'],0.9113127000018721,1.246,1799.4866089999996,,,,,513,20,Woman,Right,
,,,,,,,,,,,,,,,,,513,20,Woman,Right,3,0,1,1,0,-,0,0.6316798000043491,['n'],1.19178649999958,1.964,1803.736606499995,,,,,513,20,Woman,Right,
,,,,,,,,,,,,,,,,,513,20,Woman,Right,3,75,0.15,2,180,0,180,2.2629966999957105,['y'],0.9193460000024061,1.256,1809.6201318999956,,,,,513,20,Woman,Right,
,,,,,,,,,,,,,,,,,513,20,Woman,Right,3,30,0.4,1,180,-,180,0.37229159999697004,['n'],1.7602508999989368,1.304,1814.752673899995,,,,,513,20,Woman,Right,
,,,,,,,,,,,,,,,,,513,20,Woman,Right,3,40,0.4,1,0,-,0,0.4596843999970588,['n'],0.8632833000010578,1.984,1818.5200321000011,,,,,513,20,Woman,Right,
,,,,,,,,,,,,,,,,,513,20,Woman,Right,3,78,0.15,1,180,-,180,1.0704724000024726,['y'],1.4153057000003173,1.126,1823.786717199997,,,,,513,20,Woman,Right,
,,,,,,,,,,,,,,,,,513,20,Woman,Right,3,13,0.4,2,0,180,180,0.6108636999997543,['y'],0.8402879999994184,1.57,1827.7526300999962,,,,,513,20,Woman,Right,
,,,,,,,,,,,,,,,,,513,20,Woman,Right,3,79,0.15,2,180,0,0,0.6848376999987522,['n'],0.7758504999947036,1.312,1831.736641399999,,,,,513,20,Woman,Right,
,,,,,,,,,,,,,,,,,513,20,Woman,Right,3,36,0.4,1,0,-,0,0.37662779999664053,['n'],1.9280085999998846,1.548,1836.8366625999988,,,,,513,20,Woman,Right,
,,,,,,,,,,,,,,,,,513,20,Woman,Right,3,23,0.4,2,180,0,0,0.6252731999993557,['y'],0.7993321999965701,1.692,1840.7526568999965,,,,,513,20,Woman,Right,
,,,,,,,,,,,,,,,,,513,20,Woman,Right,3,4,1,1,0,-,0,0.3721979000038118,['n'],1.3439782000059495,1.78,1844.9693100000004,,,,,513,20,Woman,Right,
,,,,,,,,,,,,,,,,,513,20,Woman,Right,3,15,0.4,2,180,0,0,0.4144083999999566,['y'],1.5127627999972901,1.78,1849.3700234999997,,,,,513,20,Woman,Right,
,,,,,,,,,,,,,,,,,513,20,Woman,Right,3,63,0.15,2,180,0,180,0.7001596999980393,['n'],0.7994749999998021,1.78,1853.4033542999969,,,,,513,20,Woman,Right,
,,,,,,,,,,,,,,,,,513,20,Woman,Right,3,47,0.15,2,180,0,0,0.43553650000103517,['y'],1.28769530000136,1.588,1858.1860178999996,,,,,513,20,Woman,Right,
,,,,,,,,,,,,,,,,,513,20,Woman,Right,3,2,1,1,180,-,180,0.40279410000221105,['n'],0.8388516999984859,1.962,1862.386634800001,,,,,513,20,Woman,Right,
,,,,,,,,,,,,,,,,,513,20,Woman,Right,3,45,0.15,2,0,180,180,0.5314577000026475,['n'],0.6398603999987245,2.0,1866.3699603999994,,,,,513,20,Woman,Right,
,,,,,,,,,,,,,,,,,513,20,Woman,Right,3,51,0.15,2,180,0,0,0.500128699997731,['y'],0.7681000000011409,1.604,1870.119649799999,,,,,513,20,Woman,Right,
,,,,,,,,,,,,,,,,,513,20,Woman,Right,3,29,0.4,2,0,180,180,0.45679589999781456,['y'],1.4877904000022681,1.77,1874.5028397999995,,,,,513,20,Woman,Right,
,,,,,,,,,,,,,,,,,513,20,Woman,Right,3,71,0.15,2,180,0,0,0.7500269000011031,['n'],1.032184599993343,1.726,1878.6526520999978,,,,,513,20,Woman,Right,
,,,,,,,,,,,,,,,,,513,20,Woman,Right,3,70,0.15,1,180,-,0,0.5949304000023403,['n'],0.8076594000012847,1.724,1882.3366381000014,,,,,513,20,Woman,Right,
,,,,,,,,,,,,,,,,,513,20,Woman,Right,3,18,0.4,1,180,-,180,0.5856676999974297,['y'],0.8318362999998499,1.724,1886.8526586000007,,,,,513,20,Woman,Right,
,,,,,,,,,,,,,,,,,513,20,Woman,Right,3,72,0.15,1,0,-,0,0.38973819999955595,['n'],1.0320206000033068,1.71,1890.6526960999981,,,,,513,20,Woman,Right,
,,,,,,,,,,,,,,,,,513,20,Woman,Right,3,38,0.4,1,180,-,180,0.43031580000388203,['n'],2.1113865000006626,1.71,1895.969382999996,,,,,513,20,Woman,Right,
,,,,,,,,,,,,,,,,,513,20,Woman,Right,3,48,0.15,1,0,-,0,0.425035400003253,['n'],0.6390758999987156,1.762,1900.6527048999997,,,,,513,20,Woman,Right,
,,,,,,,,,,,,,,,,,513,20,Woman,Right,3,6,1,1,180,-,180,0.7104166999997688,['n'],0.6886012000031769,1.766,1904.336819199998,,,,,513,20,Woman,Right,
,,,,,,,,,,,,,,,,,513,20,Woman,Right,3,74,0.15,1,180,-,0,0.7452815000069677,['n'],0.5433171999975457,1.768,1907.9029066000003,,,,,513,20,Woman,Right,
,,,,,,,,,,,,,,,,,513,20,Woman,Right,3,27,0.4,2,180,0,0,0.6681158999999752,['y'],0.511898900003871,1.768,1911.3860084999978,,,,,513,20,Woman,Right,
,,,,,,,,,,,,,,,,,513,20,Woman,Right,3,65,0.15,2,0,180,180,1.2106690000000526,['y'],0.5678110000008019,1.768,1915.369449400001,,,,,513,20,Woman,Right,
,,,,,,,,,,,,,,,,,513,20,Woman,Right,3,59,0.15,2,180,0,0,0.5608761999974377,['n'],0.6080522000047495,1.768,1918.870194899995,,,,,513,20,Woman,Right,
,,,,,,,,,,,,,,,,,513,20,Woman,Right,3,57,0.15,2,0,180,180,0.5530956000002334,['n'],0.6156193999995594,1.768,1922.4198913,,,,,513,20,Woman,Right,
,,,,,,,,,,,,,,,,,513,20,Woman,Right,3,28,0.4,1,0,-,180,2.209994500000903,['n'],0.760527300000831,1.1059999999999999,1927.920164999996,,,,,513,20,Woman,Right,
,,,,,,,,,,,,,,,,,513,20,Woman,Right,3,68,0.15,1,0,-,180,1.39323819999845,['n'],0.8563429000059841,1.4140000000000001,1933.4028102999946,,,,,513,20,Woman,Right,
,,,,,,,,,,,,,,,,,513,20,Woman,Right,3,31,0.4,2,180,0,0,0.5436248000041815,['y'],0.5278309999994235,1.62,1936.9701561999973,,,,,513,20,Woman,Right,
,,,,,,,,,,,,,,,,,513,20,Woman,Right,3,76,0.15,1,0,-,180,0.7951422999976785,['n'],0.5281831999964197,1.35,1940.8527929999982,,,,,513,20,Woman,Right,
,,,,,,,,,,,,,,,,,513,20,Woman,Right,3,12,0.4,1,0,-,0,4.752386400003161,['n'],0.5836710999938077,1.4,1948.9701528000005,,,,,513,20,Woman,Right,
,,,,,,,,,,,,,,,,,513,20,Woman,Right,3,55,0.15,2,180,0,0,0.8997885999997379,['y'],0.7121093999958248,1.572,1953.0694390999997,,,,,513,20,Woman,Right,
,,,,,,,,,,,,,,,,,513,20,Woman,Right,3,56,0.15,1,0,-,180,0.39578019999316894,['y'],0.7035622999974294,1.282,1957.0202047999992,,,,,513,20,Woman,Right,
,,,,,,,,,,,,,,,,,513,20,Woman,Right,3,14,0.4,1,180,-,180,0.349362499997369,['n'],0.9354557000042405,1.716,1961.3193896999946,,,,,513,20,Woman,Right,
,,,,,,,,,,,,,,,,,513,20,Woman,Right,3,49,0.15,2,0,180,180,0.42243900000175927,['n'],1.432018400002562,1.658,1966.4027687999987,,,,,513,20,Woman,Right,
,,,,,,,,,,,,,,,,,513,20,Woman,Right,3,33,0.4,2,0,180,180,0.6378545999978087,['y'],0.5193132999993395,1.702,1970.052772899995,,,,,513,20,Woman,Right,
,,,,,,,,,,,,,,,,,513,20,Woman,Right,3,58,0.15,1,180,-,180,0.3503740999949514,['n'],1.085398700000951,1.434,1974.9707619999972,,,,,513,20,Woman,Right,
,,,,,,,,,,,,,,,,,513,20,Woman,Right,3,3,1,2,180,0,0,0.4639121999935014,['y'],0.4724516999995103,1.676,1978.3866361999972,,,,,513,20,Woman,Right,
,,,,,,,,,,,,,,,,,513,20,Woman,Right,3,50,0.15,1,180,-,180,0.5623119000010774,['n'],0.8798076000020956,1.672,1982.3364980999977,,,,,513,20,Woman,Right,
,,,,,,,,,,,,,,,,,513,20,Woman,Right,3,20,0.4,1,0,-,0,0.4987450999979046,['n'],0.6399166000046534,1.672,1985.9695804000003,,,,,513,20,Woman,Right,
,,,,,,,,,,,,,,,,,513,20,Woman,Right,3,5,1,2,0,180,180,0.577981299997191,['y'],0.8640402999953949,1.83,1989.9861990999998,,,,,513,20,Woman,Right,
,,,,,,,,,,,,,,,,,513,20,Woman,Right,3,61,0.15,2,0,180,0,0.8713349000026938,['n'],0.6082746999964002,1.624,1994.1702412999948,,,,,513,20,Woman,Right,
,,,,,,,,,,,,,,,,,513,20,Woman,Right,3,24,0.4,1,0,-,0,0.5813572000042768,['n'],0.4954570000045351,1.6219999999999999,1997.6861502999964,,,,,513,20,Woman,Right,
,,,,,,,,,,,,,,,,,513,20,Woman,Right,3,77,0.15,2,0,180,180,0.39669160000630654,['n'],1.2158244000020204,1.6219999999999999,2002.002835399995,,,,,513,20,Woman,Right,
,,,,,,,,,,,,,,,,,513,20,Woman,Right,3,22,0.4,1,180,-,180,0.5470110000023851,['n'],3.4800049000041327,1.74,2008.6195709999956,,,,,513,20,Woman,Right,
,,,,,,,,,,,,,,,,,513,20,Woman,Right,3,16,0.4,1,0,-,0,0.4347140000027139,['n'],0.6314189999975497,1.752,2011.9869481999995,,,,,513,20,Woman,Right,
,,,,,,,,,,,,,,,,,513,20,Woman,Right,4,48,0.15,1,0,-,0,0.29232710000360385,['n'],0.3745055000035791,1.8,2030.1862169000015,81.25,87.5,67.5,,513,20,Woman,Right,
,,,,,,,,,,,,,,,,,513,20,Woman,Right,4,53,0.15,2,0,180,180,0.43313920000218786,['y'],0.8442665000038687,1.8,2033.769473799999,,,,,513,20,Woman,Right,
,,,,,,,,,,,,,,,,,513,20,Woman,Right,4,25,0.4,2,0,180,180,0.5759853999988991,['y'],0.5440842000025441,1.608,2038.7028524999987,,,,,513,20,Woman,Right,
,,,,,,,,,,,,,,,,,513,20,Woman,Right,4,31,0.4,2,180,0,0,0.4326285999995889,['n'],0.703596599996672,1.6059999999999999,2043.1028589999987,,,,,513,20,Woman,Right,
,,,,,,,,,,,,,,,,,513,20,Woman,Right,4,70,0.15,1,180,-,180,0.34603490000154125,['n'],0.5196558000025107,1.592,2046.2868929999968,,,,,513,20,Woman,Right,
,,,,,,,,,,,,,,,,,513,20,Woman,Right,4,77,0.15,2,0,180,180,1.3893371000012849,['y'],0.5997043999959715,1.592,2050.569494299998,,,,,513,20,Woman,Right,
,,,,,,,,,,,,,,,,,513,20,Woman,Right,4,8,0.4,1,0,-,0,0.4660221000012825,['n'],1.3287780000027851,1.592,2055.319542899997,,,,,513,20,Woman,Right,
,,,,,,,,,,,,,,,,,513,20,Woman,Right,4,34,0.4,1,180,-,180,0.879028000003018,['n'],1.072547100004158,1.312,2059.602857400001,,,,,513,20,Woman,Right,
,,,,,,,,,,,,,,,,,513,20,Woman,Right,4,1,1,2,0,180,180,0.4923274000029778,['y'],0.49606759999733185,1.84,2063.7528345999963,,,,,513,20,Woman,Right,
,,,,,,,,,,,,,,,,,513,20,Woman,Right,4,75,0.15,2,180,0,0,0.5069841000004089,['y'],0.5435959999958868,1.646,2068.3702851999988,,,,,513,20,Woman,Right,
,,,,,,,,,,,,,,,,,513,20,Woman,Right,4,12,0.4,1,0,-,180,0.4963770999966073,['n'],0.7517938000019058,1.646,2071.9869896999953,,,,,513,20,Woman,Right,
,,,,,,,,,,,,,,,,,513,20,Woman,Right,4,15,0.4,2,180,0,0,0.3317382000022917,['y'],0.520355999993626,1.646,2075.2029066999967,,,,,513,20,Woman,Right,
,,,,,,,,,,,,,,,,,513,20,Woman,Right,4,50,0.15,1,180,-,180,1.2769337999998243,['n'],0.5760112999996636,1.646,2079.369531199998,,,,,513,20,Woman,Right,
,,,,,,,,,,,,,,,,,513,20,Woman,Right,4,63,0.15,2,180,0,0,0.8691728000048897,['n'],1.1122190999958548,1.3359999999999999,2084.0195499999973,,,,,513,20,Woman,Right,
,,,,,,,,,,,,,,,,,513,20,Woman,Right,4,20,0.4,1,0,-,0,0.4860513000021456,['n'],1.0082229999970878,1.392,2094.4029101999986,,,,,513,20,Woman,Right,
,,,,,,,,,,,,,,,,,513,20,Woman,Right,4,13,0.4,2,0,180,180,0.6046252000014647,['y'],0.6960254000005079,1.616,2098.7361657,,,,,513,20,Woman,Right,
,,,,,,,,,,,,,,,,,513,20,Woman,Right,4,43,0.4,2,180,0,0,0.36994870000489755,['y'],0.5916704999981448,1.616,2101.936990800001,,,,,513,20,Woman,Right,
,,,,,,,,,,,,,,,,,513,20,Woman,Right,4,54,0.15,1,180,-,180,0.6172208000061801,['n'],0.6714146000012988,1.6680000000000001,2106.3028868999972,,,,,513,20,Woman,Right,
,,,,,,,,,,,,,,,,,513,20,Woman,Right,4,71,0.15,2,180,0,180,0.7262296999979299,['n'],1.1754412000009324,1.258,2111.3703215999994,,,,,513,20,Woman,Right,
,,,,,,,,,,,,,,,,,513,20,Woman,Right,4,65,0.15,2,0,180,0,0.4001882000011392,['n'],0.723684399999911,1.3679999999999999,2114.836712600001,,,,,513,20,Woman,Right,
,,,,,,,,,,,,,,,,,513,20,Woman,Right,4,5,1,2,0,180,180,0.7191849000009825,['y'],0.6712047000037273,1.958,2118.936884099996,,,,,513,20,Woman,Right,
,,,,,,,,,,,,,,,,,513,20,Woman,Right,4,16,0.4,1,0,-,0,0.45395730000018375,['n'],0.583781799999997,1.784,2122.4029224999977,,,,,513,20,Woman,Right,
,,,,,,,,,,,,,,,,,513,20,Woman,Right,4,3,1,2,180,0,0,0.34695519999513635,['y'],0.6000887999980478,1.784,2125.720273699997,,,,,513,20,Woman,Right,
,,,,,,,,,,,,,,,,,513,20,Woman,Right,4,27,0.4,2,180,0,0,0.45730689999618335,['y'],0.6080971999981557,1.974,2129.453152999995,,,,,513,20,Woman,Right,
,,,,,,,,,,,,,,,,,513,20,Woman,Right,4,66,0.15,1,180,-,180,0.9458751999991364,['n'],0.6802511999994749,1.744,2133.753125999996,,,,,513,20,Woman,Right,
,,,,,,,,,,,,,,,,,513,20,Woman,Right,4,46,0.15,1,180,-,0,0.7921902000016416,['n'],0.9758329000032973,1.722,2137.7368905999974,,,,,513,20,Woman,Right,
,,,,,,,,,,,,,,,,,513,20,Woman,Right,4,72,0.15,1,0,-,0,0.33325409999815747,['n'],0.48786809999728575,1.696,2141.920436399996,,,,,513,20,Woman,Right,
,,,,,,,,,,,,,,,,,513,20,Woman,Right,4,51,0.15,2,180,0,180,0.32948810000380035,['n'],0.8960023999970872,1.672,2146.136749599995,,,,,513,20,Woman,Right,
,,,,,,,,,,,,,,,,,513,20,Woman,Right,4,55,0.15,2,180,0,180,0.3119823000015458,['n'],1.2564531000025454,1.67,2150.3862467,,,,,513,20,Woman,Right,
,,,,,,,,,,,,,,,,,513,20,Woman,Right,4,4,1,1,0,-,0,0.2836421000029077,['n'],1.387987999994948,1.67,2154.370411600001,,,,,513,20,Woman,Right,
,,,,,,,,,,,,,,,,,513,20,Woman,Right,4,40,0.4,1,0,-,0,0.1370660999964457,['n'],0.6398472000000766,1.802,2157.8533331,,,,,513,20,Woman,Right,
,,,,,,,,,,,,,,,,,513,20,Woman,Right,4,14,0.4,1,180,-,180,0.22833389999868814,['n'],0.6956518000006326,1.82,2161.7029244000005,,,,,513,20,Woman,Right,
,,,,,,,,,,,,,,,,,513,20,Woman,Right,4,78,0.15,1,180,-,0,0.7604248999996344,['n'],0.4872745000029681,1.824,2165.487103499996,,,,,513,20,Woman,Right,
,,,,,,,,,,,,,,,,,513,20,Woman,Right,4,73,0.15,2,0,180,180,0.40481110000109766,['n'],0.7115956000052392,1.3940000000000001,2180.9371152999956,,,,,513,20,Woman,Right,
,,,,,,,,,,,,,,,,,513,20,Woman,Right,4,30,0.4,1,180,-,180,0.48844139999710023,['n'],1.0153749999954016,1.5979999999999999,2190.6198978999964,,,,,513,20,Woman,Right,
,,,,,,,,,,,,,,,,,513,20,Woman,Right,4,49,0.15,2,0,180,0,1.3861718000043766,['n'],0.9363538999969023,1.78,2195.419687499998,,,,,513,20,Woman,Right,
,,,,,,,,,,,,,,,,,513,20,Woman,Right,4,33,0.4,2,0,180,180,0.49657270000170683,['y'],0.5600215999947977,1.92,2199.0204574000018,,,,,513,20,Woman,Right,
,,,,,,,,,,,,,,,,,513,20,Woman,Right,4,47,0.15,2,180,0,180,0.8656688000046415,['n'],0.8549020999998902,1.204,2203.852957999996,,,,,513,20,Woman,Right,
,,,,,,,,,,,,,,,,,513,20,Woman,Right,4,24,0.4,1,0,-,0,0.3557548999961,['n'],0.8399035999973421,1.9060000000000001,2207.4714963000006,,,,,513,20,Woman,Right,
,,,,,,,,,,,,,,,,,513,20,Woman,Right,4,76,0.15,1,0,-,180,0.4990888999964227,['n'],0.8555780000024242,1.236,2211.3863156000007,,,,,513,20,Woman,Right,
,,,,,,,,,,,,,,,,,513,20,Woman,Right,4,68,0.15,1,0,-,0,0.3591946000015014,['n'],0.824089499998081,1.3319999999999999,2215.0030375999995,,,,,513,20,Woman,Right,
,,,,,,,,,,,,,,,,,513,20,Woman,Right,4,37,0.4,2,0,180,180,0.4776869000052102,['y'],0.8403296000033151,1.6640000000000001,2219.2530214,,,,,513,20,Woman,Right,
,,,,,,,,,,,,,,,,,513,20,Woman,Right,4,18,0.4,1,180,-,180,0.7951556999978493,['n'],0.7436993000010261,1.6560000000000001,2223.1704563999956,,,,,513,20,Woman,Right,
,,,,,,,,,,,,,,,,,513,20,Woman,Right,4,44,0.15,1,0,-,0,0.5675119000006816,['n'],0.6967592000000877,1.296,2228.087133000001,,,,,513,20,Woman,Right,
,,,,,,,,,,,,,,,,,513,20,Woman,Right,4,7,1,2,180,0,0,0.4261726999975508,['y'],0.6235843999966164,1.952,2232.003028399995,,,,,513,20,Woman,Right,
,,,,,,,,,,,,,,,,,513,20,Woman,Right,4,23,0.4,2,180,0,0,0.3666144999951939,['y'],1.808845300001849,1.842,2237.6363985999997,,,,,513,20,Woman,Right,
,,,,,,,,,,,,,,,,,513,20,Woman,Right,4,74,0.15,1,180,-,180,0.6565284000025713,['n'],0.7032286000030581,1.774,2241.2529907999997,,,,,513,20,Woman,Right,
,,,,,,,,,,,,,,,,,513,20,Woman,Right,4,41,0.4,2,0,180,180,0.3992376999958651,['y'],0.48836630000005243,1.774,2244.3701421000005,,,,,513,20,Woman,Right,
,,,,,,,,,,,,,,,,,513,20,Woman,Right,4,17,0.4,2,0,180,180,0.4028092000007746,['y'],0.4156879000001936,1.774,2247.4363921999975,,,,,513,20,Woman,Right,
,,,,,,,,,,,,,,,,,513,20,Woman,Right,4,11,0.4,2,180,0,0,0.3072544000024209,['y'],0.4079243000014685,1.774,2250.8530625999992,,,,,513,20,Woman,Right,
,,,,,,,,,,,,,,,,,513,20,Woman,Right,4,60,0.15,1,0,-,180,0.5517755999971996,['n'],0.5841331000046921,1.758,2254.5198220999955,,,,,513,20,Woman,Right,
,,,,,,,,,,,,,,,,,513,20,Woman,Right,4,69,0.15,2,0,180,0,1.0559056999991299,['n'],1.4393940000009025,1.88,2259.7377615000005,,,,,513,20,Woman,Right,
,,,,,,,,,,,,,,,,,513,20,Woman,Right,4,9,0.4,2,0,180,180,0.5665768999970169,['y'],0.5037261999968905,1.932,2263.553172699998,,,,,513,20,Woman,Right,
,,,,,,,,,,,,,,,,,513,20,Woman,Right,4,42,0.4,1,180,-,180,0.46556950000376673,['n'],0.6316189999997732,1.9,2267.303257200001,,,,,513,20,Woman,Right,
,,,,,,,,,,,,,,,,,513,20,Woman,Right,4,39,0.4,2,180,0,0,0.6227161000060732,['n'],0.5830523000040557,1.22,2272.3031214000002,,,,,513,20,Woman,Right,
,,,,,,,,,,,,,,,,,513,20,Woman,Right,4,62,0.15,1,180,-,0,0.4310728999989806,['n'],0.551481700000295,1.776,2276.237211200001,,,,,513,20,Woman,Right,
,,,,,,,,,,,,,,,,,513,20,Woman,Right,4,2,1,1,180,-,180,0.44544779999705497,['n'],1.879715999995824,2.0,2281.369758199995,,,,,513,20,Woman,Right,
,,,,,,,,,,,,,,,,,513,20,Woman,Right,4,6,1,1,180,-,180,0.18297690000326838,['n'],1.0636154000021634,1.998,2285.604034799995,,,,,513,20,Woman,Right,
,,,,,,,,,,,,,,,,,513,20,Woman,Right,4,56,0.15,1,0,-,180,0.5425057999964338,['n'],0.6635555999964708,1.15,2289.7534665999992,,,,,513,20,Woman,Right,
,,,,,,,,,,,,,,,,,513,20,Woman,Right,4,36,0.4,1,0,-,0,0.2578143999999156,['n'],0.6234715999962646,1.19,2293.3205199000004,,,,,513,20,Woman,Right,
,,,,,,,,,,,,,,,,,513,20,Woman,Right,4,19,0.4,2,180,0,0,0.5943791000026977,['y'],0.5831735000028857,1.708,2297.0209139,,,,,513,20,Woman,Right,
,,,,,,,,,,,,,,,,,513,20,Woman,Right,4,45,0.15,2,0,180,0,0.5118157999968389,['n'],0.6071797999975388,1.712,2301.0204308999964,,,,,513,20,Woman,Right,
,,,,,,,,,,,,,,,,,513,20,Woman,Right,4,61,0.15,2,0,180,0,0.591003699999419,['n'],0.5037442999964696,1.712,2305.0374994000013,,,,,513,20,Woman,Right,
,,,,,,,,,,,,,,,,,513,20,Woman,Right,4,22,0.4,1,180,-,180,0.834351899997273,['n'],0.8951945000007981,1.338,2309.704034399998,,,,,513,20,Woman,Right,
,,,,,,,,,,,,,,,,,513,20,Woman,Right,4,0,1,1,0,-,0,0.31049540000094566,['n'],0.9285526000021491,1.972,2313.587155000001,,,,,513,20,Woman,Right,
,,,,,,,,,,,,,,,,,513,20,Woman,Right,4,57,0.15,2,0,180,0,0.7243824000033783,['n'],1.5995867000019643,1.658,2318.453101799998,,,,,513,20,Woman,Right,
,,,,,,,,,,,,,,,,,513,20,Woman,Right,4,35,0.4,2,180,0,0,0.35486200000013923,['y'],1.1681372999955784,1.974,2322.7705403,,,,,513,20,Woman,Right,
,,,,,,,,,,,,,,,,,513,20,Woman,Right,4,26,0.4,1,180,-,180,0.4346891000022879,['n'],1.0243812999979127,1.696,2326.5364087999988,,,,,513,20,Woman,Right,
,,,,,,,,,,,,,,,,,513,20,Woman,Right,4,10,0.4,1,180,-,180,0.47063279999565566,['n'],0.7594757999977446,1.696,2329.9874692999947,,,,,513,20,Woman,Right,
,,,,,,,,,,,,,,,,,513,20,Woman,Right,4,59,0.15,2,180,0,180,0.6870892000006279,['n'],0.8238248999987263,1.704,2334.4540951000017,,,,,513,20,Woman,Right,
,,,,,,,,,,,,,,,,,513,20,Woman,Right,4,29,0.4,2,0,180,180,0.544144999999844,['y'],0.6799069000044256,1.704,2338.0367947999985,,,,,513,20,Woman,Right,
,,,,,,,,,,,,,,,,,513,20,Woman,Right,4,64,0.15,1,0,-,180,0.5219295999995666,['n'],0.4146424999998999,1.708,2341.203267699995,,,,,513,20,Woman,Right,
,,,,,,,,,,,,,,,,,513,20,Woman,Right,4,32,0.4,1,0,-,180,1.4061085000066669,['n'],0.6874969999989844,1.71,2345.8199275000006,,,,,513,20,Woman,Right,
,,,,,,,,,,,,,,,,,513,20,Woman,Right,4,67,0.15,2,180,0,0,0.47963139999774285,['n'],1.1843622000014875,1.71,2349.9033185000008,,,,,513,20,Woman,Right,
,,,,,,,,,,,,,,,,,513,20,Woman,Right,4,79,0.15,2,180,0,0,0.42834769999899436,['n'],0.5442292999941856,1.166,2354.0872646999997,,,,,513,20,Woman,Right,
,,,,,,,,,,,,,,,,,513,20,Woman,Right,4,28,0.4,1,0,-,0,0.49926160000177333,['n'],0.43928040000173496,1.87,2357.4871922999955,,,,,513,20,Woman,Right,
,,,,,,,,,,,,,,,,,513,20,Woman,Right,4,52,0.15,1,0,-,180,1.5646545000054175,['y'],0.5513189000048442,1.29,2362.2039412000013,,,,,513,20,Woman,Right,
,,,,,,,,,,,,,,,,,513,20,Woman,Right,4,21,0.4,2,0,180,0,2.48105879999639,['y'],0.6796728000044823,1.6680000000000001,2367.8206699,,,,,513,20,Woman,Right,
,,,,,,,,,,,,,,,,,513,20,Woman,Right,4,58,0.15,1,180,-,0,0.4097202000048128,['n'],0.6393244999999297,1.6480000000000001,2371.8707424999957,,,,,513,20,Woman,Right,
,,,,,,,,,,,,,,,,,513,20,Woman,Right,4,38,0.4,1,180,-,180,0.7048953999983496,['n'],0.839425600002869,1.6480000000000001,2375.6374451999945,,,,,513,20,Woman,Right,
,,,,,,,,,,,,,,,,,513,20,Woman,Right,5,52,0.15,1,0,-,0,0.9434318999992684,['n'],0.687088999999105,1.35,2392.7865729999976,71.25,97.5,57.5,,513,20,Woman,Right,
,,,,,,,,,,,,,,,,,513,20,Woman,Right,5,37,0.4,2,0,180,180,0.6613914000045042,['y'],0.5513856000034139,1.686,2396.503217599995,,,,,513,20,Woman,Right,
,,,,,,,,,,,,,,,,,513,20,Woman,Right,5,43,0.4,2,180,0,0,0.34671849999722326,['y'],0.48030930000095395,1.674,2399.5534902,,,,,513,20,Woman,Right,
,,,,,,,,,,,,,,,,,513,20,Woman,Right,5,61,0.15,2,0,180,180,0.48432380000303965,['n'],0.9286071999958949,1.674,2403.271543099996,,,,,513,20,Woman,Right,
,,,,,,,,,,,,,,,,,513,20,Woman,Right,5,57,0.15,2,0,180,180,1.0285137000028044,['y'],0.4800025000004098,1.674,2406.9368117999984,,,,,513,20,Woman,Right,
,,,,,,,,,,,,,,,,,513,20,Woman,Right,5,21,0.4,2,0,180,180,0.40936779999901773,['y'],0.38435690000187606,1.674,2409.9372317000016,,,,,513,20,Woman,Right,
,,,,,,,,,,,,,,,,,513,20,Woman,Right,5,77,0.15,2,0,180,180,0.3467000999953598,['n'],0.43901269999332726,1.672,2412.9205838999987,,,,,513,20,Woman,Right,
,,,,,,,,,,,,,,,,,513,20,Woman,Right,5,48,0.15,1,0,-,0,1.916562200000044,['n'],0.6383177000025171,1.672,2417.870747699999,,,,,513,20,Woman,Right,
,,,,,,,,,,,,,,,,,513,20,Woman,Right,5,19,0.4,2,180,0,0,0.8610555999985081,['y'],0.6955345000023954,1.672,2421.803231799997,,,,,513,20,Woman,Right,
,,,,,,,,,,,,,,,,,513,20,Woman,Right,5,40,0.4,1,0,-,0,0.6007797999991453,['n'],0.6879339000006439,1.672,2425.7206645999977,,,,,513,20,Woman,Right,
,,,,,,,,,,,,,,,,,513,20,Woman,Right,5,42,0.4,1,180,-,180,0.4301883000007365,['n'],1.9117803999979515,1.672,2430.3032382999954,,,,,513,20,Woman,Right,
,,,,,,,,,,,,,,,,,513,20,Woman,Right,5,1,1,2,0,180,180,0.4677462999970885,['y'],0.5119491000004928,1.84,2433.6872642000017,,,,,513,20,Woman,Right,
,,,,,,,,,,,,,,,,,513,20,Woman,Right,5,38,0.4,1,180,-,180,0.44212530000368133,['n'],1.143460100000084,1.808,2438.2535811999987,,,,,513,20,Woman,Right,
,,,,,,,,,,,,,,,,,513,20,Woman,Right,5,14,0.4,1,180,-,180,0.37758839999878546,['n'],0.6477163000017754,1.912,2441.6873579999956,,,,,513,20,Woman,Right,
,,,,,,,,,,,,,,,,,513,20,Woman,Right,5,17,0.4,2,0,180,180,0.735601400003361,['y'],0.7844361000024946,1.876,2445.5033003999997,,,,,513,20,Woman,Right,
,,,,,,,,,,,,,,,,,513,20,Woman,Right,5,33,0.4,2,0,180,180,0.34390069999790285,['y'],0.5040069000024232,1.874,2448.6373497999957,,,,,513,20,Woman,Right,
,,,,,,,,,,,,,,,,,513,20,Woman,Right,5,64,0.15,1,0,-,180,0.37884659999690484,['n'],0.471934200002579,1.822,2451.7366064000016,,,,,513,20,Woman,Right,
,,,,,,,,,,,,,,,,,513,20,Woman,Right,5,51,0.15,2,180,0,180,1.460961500000849,['n'],0.6311244999960763,1.3319999999999999,2456.669937599996,,,,,513,20,Woman,Right,
,,,,,,,,,,,,,,,,,513,20,Woman,Right,5,70,0.15,1,180,-,0,0.394543700000213,['n'],1.423885899996094,1.554,2460.720085299996,,,,,513,20,Woman,Right,
,,,,,,,,,,,,,,,,,513,20,Woman,Right,5,7,1,2,180,0,0,0.368047399999341,['y'],1.0963357000000542,2.0,2465.8199327999973,,,,,513,20,Woman,Right,
,,,,,,,,,,,,,,,,,513,20,Woman,Right,5,23,0.4,2,180,0,0,0.45396939999773167,['y'],0.4958538999999291,1.762,2469.6874390999947,,,,,513,20,Woman,Right,
,,,,,,,,,,,,,,,,,513,20,Woman,Right,5,75,0.15,2,180,0,180,0.3996194999999716,['n'],0.6952090000049793,1.718,2473.6540363999957,,,,,513,20,Woman,Right,
,,,,,,,,,,,,,,,,,513,20,Woman,Right,5,25,0.4,2,0,180,180,0.5967654999985825,['y'],0.48745449999842094,1.6139999999999999,2477.3373708,,,,,513,20,Woman,Right,
,,,,,,,,,,,,,,,,,513,20,Woman,Right,5,32,0.4,1,0,-,0,0.6191790000011679,['n'],0.47217190000083065,1.658,2480.937364599995,,,,,513,20,Woman,Right,
,,,,,,,,,,,,,,,,,513,20,Woman,Right,5,60,0.15,1,0,-,0,0.32925930000055814,['n'],0.45553329999529524,1.334,2484.3866949000003,,,,,513,20,Woman,Right,
,,,,,,,,,,,,,,,,,513,20,Woman,Right,5,45,0.15,2,0,180,0,0.26590130000113277,['n'],1.1519423999998253,1.052,2488.2867965999976,,,,,513,20,Woman,Right,
,,,,,,,,,,,,,,,,,513,20,Woman,Right,5,74,0.15,1,180,-,0,0.34567409999726806,['n'],0.6237955999968108,1.654,2491.903602599996,,,,,513,20,Woman,Right,
,,,,,,,,,,,,,,,,,513,20,Woman,Right,5,24,0.4,1,0,-,0,0.2690474000046379,['n'],0.5919853000013973,1.35,2495.8034319,,,,,513,20,Woman,Right,
,,,,,,,,,,,,,,,,,513,20,Woman,Right,5,54,0.15,1,180,-,180,1.431877999995777,['n'],0.5270839000004344,1.464,2500.404221699995,,,,,513,20,Woman,Right,
,,,,,,,,,,,,,,,,,513,20,Woman,Right,5,2,1,1,180,-,180,0.35821190000569914,['n'],0.6481417999966652,1.966,2504.3198993999977,,,,,513,20,Woman,Right,
,,,,,,,,,,,,,,,,,513,20,Woman,Right,5,55,0.15,2,180,0,180,0.5201556000029086,['n'],0.39969510000082664,1.638,2508.1200656,,,,,513,20,Woman,Right,
,,,,,,,,,,,,,,,,,513,20,Woman,Right,5,56,0.15,1,0,-,180,1.4484112999998615,['y'],1.2885920999979135,1.744,2513.1373020999963,,,,,513,20,Woman,Right,
,,,,,,,,,,,,,,,,,513,20,Woman,Right,5,68,0.15,1,0,-,180,0.4667602000045008,['n'],0.4506675000011455,1.6600000000000001,2517.6866947000017,,,,,513,20,Woman,Right,
,,,,,,,,,,,,,,,,,513,20,Woman,Right,5,35,0.4,2,180,0,0,0.5045605000050273,['y'],0.47946760000195354,1.704,2521.1369306999986,,,,,513,20,Woman,Right,
,,,,,,,,,,,,,,,,,513,20,Woman,Right,5,63,0.15,2,180,0,0,0.644102300000668,['y'],0.48722030000499217,1.688,2525.036687299995,,,,,513,20,Woman,Right,
,,,,,,,,,,,,,,,,,513,20,Woman,Right,5,69,0.15,2,0,180,0,0.34054160000232514,['n'],0.631977499993809,1.688,2528.203448399996,,,,,513,20,Woman,Right,
,,,,,,,,,,,,,,,,,513,20,Woman,Right,5,26,0.4,1,180,-,180,0.34298959999432554,['n'],0.9594473000033759,1.688,2532.2036946000007,,,,,513,20,Woman,Right,
,,,,,,,,,,,,,,,,,513,20,Woman,Right,5,6,1,1,180,-,180,0.4057068000038271,['n'],0.9600749000019277,1.684,2535.970413700001,,,,,513,20,Woman,Right,
,,,,,,,,,,,,,,,,,513,20,Woman,Right,5,71,0.15,2,180,0,180,0.1601308999961475,['n'],0.5673425000059069,1.1560000000000001,2539.6700885999962,,,,,513,20,Woman,Right,
,,,,,,,,,,,,,,,,,513,20,Woman,Right,5,11,0.4,2,180,0,0,0.4867302999991807,['y'],0.4557557000007364,1.832,2542.8533742,,,,,513,20,Woman,Right,
,,,,,,,,,,,,,,,,,513,20,Woman,Right,5,31,0.4,2,180,0,0,0.27681690000463277,['y'],0.45608390000415966,1.828,2548.7204391999985,,,,,513,20,Woman,Right,
,,,,,,,,,,,,,,,,,513,20,Woman,Right,5,9,0.4,2,0,180,180,0.4142072999966331,['y'],0.5598519999985001,1.828,2552.5034578999985,,,,,513,20,Woman,Right,
,,,,,,,,,,,,,,,,,513,20,Woman,Right,5,78,0.15,1,180,-,0,0.5366433000017423,['n'],1.240228599999682,1.828,2556.7705898999993,,,,,513,20,Woman,Right,
,,,,,,,,,,,,,,,,,513,20,Woman,Right,5,18,0.4,1,180,-,180,0.47679190000053495,['n'],0.40826709999964805,1.828,2560.6202067999984,,,,,513,20,Woman,Right,
,,,,,,,,,,,,,,,,,513,20,Woman,Right,5,30,0.4,1,180,-,180,0.438509100000374,['n'],1.303256600003806,1.698,2565.070764199998,,,,,513,20,Woman,Right,
,,,,,,,,,,,,,,,,,513,20,Woman,Right,5,27,0.4,2,180,0,0,0.33299909999914235,['y'],0.512698200000159,1.74,2568.3533972000005,,,,,513,20,Woman,Right,
,,,,,,,,,,,,,,,,,513,20,Woman,Right,5,39,0.4,2,180,0,0,0.406758400000399,['n'],0.7275062000044272,1.74,2571.7368156999946,,,,,513,20,Woman,Right,
,,,,,,,,,,,,,,,,,513,20,Woman,Right,5,4,1,1,0,-,0,0.2518262999947183,['y'],1.0396435000002384,1.74,2575.437738499997,,,,,513,20,Woman,Right,
,,,,,,,,,,,,,,,,,513,20,Woman,Right,5,15,0.4,2,180,0,0,0.42079910000029486,['y'],0.7197406999985105,1.74,2579.670778599997,,,,,513,20,Woman,Right,
,,,,,,,,,,,,,,,,,513,20,Woman,Right,5,29,0.4,2,0,180,180,0.7222313999955077,['y'],0.6956404000011389,1.734,2583.5208478999994,,,,,513,20,Woman,Right,
,,,,,,,,,,,,,,,,,513,20,Woman,Right,5,59,0.15,2,180,0,0,1.6867761999965296,['n'],0.6402524000004632,1.734,2588.337599899998,,,,,513,20,Woman,Right,
,,,,,,,,,,,,,,,,,513,20,Woman,Right,5,22,0.4,1,180,-,0,0.5765969999993104,['n'],1.0236691999962204,1.734,2592.453418199999,,,,,513,20,Woman,Right,
,,,,,,,,,,,,,,,,,513,20,Woman,Right,5,53,0.15,2,0,180,180,0.41673550000268733,['n'],0.7569185000029393,1.734,2596.0533976000006,,,,,513,20,Woman,Right,
,,,,,,,,,,,,,,,,,513,20,Woman,Right,5,66,0.15,1,180,-,180,0.36781429999973625,['n'],2.359913799999049,1.734,2601.2039288000014,,,,,513,20,Woman,Right,
,,,,,,,,,,,,,,,,,513,20,Woman,Right,5,49,0.15,2,0,180,180,0.7552563999997801,['n'],0.7512635999955819,1.734,2604.920105899997,,,,,513,20,Woman,Right,
,,,,,,,,,,,,,,,,,513,20,Woman,Right,5,62,0.15,1,180,-,180,0.542143999999098,['n'],0.9596437000000151,1.734,2608.570169999999,,,,,513,20,Woman,Right,
,,,,,,,,,,,,,,,,,513,20,Woman,Right,5,16,0.4,1,0,-,180,0.1559112000031746,['n'],0.9834851000050548,1.734,2612.1035166,,,,,513,20,Woman,Right,
,,,,,,,,,,,,,,,,,513,20,Woman,Right,5,10,0.4,1,180,-,180,0.6135610000055749,['n'],1.0158823000019765,1.944,2617.1210498,,,,,513,20,Woman,Right,
,,,,,,,,,,,,,,,,,513,20,Woman,Right,5,0,1,1,0,-,0,0.15668330000335118,['n'],0.8556643999982043,1.954,2620.5213263999976,,,,,513,20,Woman,Right,
,,,,,,,,,,,,,,,,,513,20,Woman,Right,5,67,0.15,2,180,0,180,0.645488000001933,['n'],0.664224699998158,1.274,2625.1534306999965,,,,,513,20,Woman,Right,
,,,,,,,,,,,,,,,,,513,20,Woman,Right,5,65,0.15,2,0,180,0,0.5276121999995667,['n'],1.4075769999981276,1.17,2629.687604300001,,,,,513,20,Woman,Right,
,,,,,,,,,,,,,,,,,513,20,Woman,Right,5,8,0.4,1,0,-,180,0.18595759999880102,['n'],1.2233428999970783,1.092,2633.5872230999958,,,,,513,20,Woman,Right,
,,,,,,,,,,,,,,,,,513,20,Woman,Right,5,76,0.15,1,0,-,180,0.29127259999950184,['n'],1.1600854999996955,1.242,2637.453497800001,,,,,513,20,Woman,Right,
,,,,,,,,,,,,,,,,,513,20,Woman,Right,5,20,0.4,1,0,-,0,0.38254919999599224,['n'],0.8877721000026213,1.262,2641.570864399997,,,,,513,20,Woman,Right,
,,,,,,,,,,,,,,,,,513,20,Woman,Right,5,72,0.15,1,0,-,0,0.28200289999949746,['n'],0.7044596999985515,1.296,2645.1209667000003,,,,,513,20,Woman,Right,
,,,,,,,,,,,,,,,,,513,20,Woman,Right,5,44,0.15,1,0,-,180,1.0357904999982566,['n'],0.7202625999998418,1.28,2649.3035015999994,,,,,513,20,Woman,Right,
,,,,,,,,,,,,,,,,,513,20,Woman,Right,5,28,0.4,1,0,-,0,0.18764050000027055,['n'],1.1765608999994583,1.274,2653.6710553999947,,,,,513,20,Woman,Right,
,,,,,,,,,,,,,,,,,513,20,Woman,Right,5,5,1,2,0,180,180,1.1062773000012385,['y'],0.6473956999980146,1.97,2658.0201877,,,,,513,20,Woman,Right,
,,,,,,,,,,,,,,,,,513,20,Woman,Right,5,47,0.15,2,180,0,0,0.5371488000018871,['y'],0.8639700999992783,1.626,2662.5369090999957,,,,,513,20,Woman,Right,
,,,,,,,,,,,,,,,,,513,20,Woman,Right,5,79,0.15,2,180,0,0,0.25811650000105146,['y'],0.9118044999995618,1.724,2666.187618799995,,,,,513,20,Woman,Right,
,,,,,,,,,,,,,,,,,513,20,Woman,Right,5,12,0.4,1,0,-,0,0.4776205000016489,['n'],0.8633154999988619,1.796,2669.670261399995,,,,,513,20,Woman,Right,
,,,,,,,,,,,,,,,,,513,20,Woman,Right,5,3,1,2,180,0,0,0.31161550000251736,['y'],0.6399882999976398,1.992,2672.920241699998,,,,,513,20,Woman,Right,
,,,,,,,,,,,,,,,,,513,20,Woman,Right,5,73,0.15,2,0,180,180,0.6668950000021141,['y'],0.7522953999941819,1.768,2676.737585199997,,,,,513,20,Woman,Right,
,,,,,,,,,,,,,,,,,513,20,Woman,Right,5,41,0.4,2,0,180,180,0.47856380000303034,['y'],0.6791652000028989,1.816,2680.2374367999946,,,,,513,20,Woman,Right,
,,,,,,,,,,,,,,,,,513,20,Woman,Right,5,13,0.4,2,0,180,180,0.27550479999626987,['y'],0.7195069000008516,1.818,2683.5535593999957,,,,,513,20,Woman,Right,
,,,,,,,,,,,,,,,,,513,20,Woman,Right,5,50,0.15,1,180,-,180,0.3189063999961945,['n'],0.6479107000050135,1.3940000000000001,2686.970962899999,,,,,513,20,Woman,Right,
,,,,,,,,,,,,,,,,,513,20,Woman,Right,5,36,0.4,1,0,-,0,0.1912309000035748,['n'],1.1756557999979123,1.784,2690.5535576999973,,,,,513,20,Woman,Right,
,,,,,,,,,,,,,,,,,513,20,Woman,Right,5,46,0.15,1,180,-,0,0.2623396999988472,['n'],0.5278334000031464,1.75,2694.1702579999983,,,,,513,20,Woman,Right,
,,,,,,,,,,,,,,,,,513,20,Woman,Right,5,58,0.15,1,180,-,180,0.6668199999985518,['n'],0.6917236000008415,1.6219999999999999,2698.4701579999964,,,,,513,20,Woman,Right,
,,,,,,,,,,,,,,,,,513,20,Woman,Right,5,34,0.4,1,180,-,180,0.3801945000013802,['n'],1.6875688000000082,1.3359999999999999,2703.2879250999977,,,,,513,20,Woman,Right,
,,,,,,,,,,,,,,,,,,,,,,,,,,,,,,,,,75.0,95.0,65.0,2419.9864013999977,,,,,
