p_block,p_section,p_coherence,p_direction1,p_direction2,p_direction_response,p_direction_RT,p_change_response,p_change_RT,p_confidence,p_full_correct,p_without5_correct,p_full_total,p_without5_total,p_full_avg,p_witout5_avg,p_total_time,sub,age,sex,handedness,loop,trial randomization,coherence,condition,direction1,direction2,direction_response,direction_RT,change_response,change_RT,change_confidence,change_confidence_RT,block_direction_avg,block_stable_avg,block_change_avg,total_time,sub,age,sex,handedness,
1,1,1.0,0,-,0,1.8097739000004367,-,-,-,,,,,,,,511,19,Woman,Right,,,,,,,,,,,,,,,,,511,19,Woman,Right,
1,1,1.0,0,-,0,0.2592778000034741,-,-,-,,,,,,,,511,19,Woman,Right,,,,,,,,,,,,,,,,,511,19,Woman,Right,
1,1,1.0,180,-,180,0.13142830000288086,-,-,-,,,,,,,,511,19,Woman,Right,,,,,,,,,,,,,,,,,511,19,Woman,Right,
1,1,1.0,0,-,0,0.017474599997512996,-,-,-,,,,,,,,511,19,Woman,Right,,,,,,,,,,,,,,,,,511,19,Woman,Right,
1,1,1.0,180,-,180,0.20373500000278,-,-,-,,,,,,,,511,19,Woman,Right,,,,,,,,,,,,,,,,,511,19,Woman,Right,
1,1,1.0,0,-,0,0.02144640000187792,-,-,-,,,,,,,,511,19,Woman,Right,,,,,,,,,,,,,,,,,511,19,Woman,Right,
1,1,1.0,180,-,180,0.14311759999691276,-,-,-,,,,,,,,511,19,Woman,Right,,,,,,,,,,,,,,,,,511,19,Woman,Right,
1,1,1.0,180,-,180,0.2438964000029955,-,-,-,,,,,,,,511,19,Woman,Right,,,,,,,,,,,,,,,,,511,19,Woman,Right,
1,1,1.0,180,-,180,0.021302799999830313,-,-,-,,,,,,,,511,19,Woman,Right,,,,,,,,,,,,,,,,,511,19,Woman,Right,
1,1,1.0,180,-,180,0.016431299998657778,-,-,-,10,10,10,10,1.0,1.0,,511,19,Woman,Right,,,,,,,,,,,,,,,,,511,19,Woman,Right,
2,1,0.4,0,-,0,0.5181093999999575,-,-,-,,,,,,,,511,19,Woman,Right,,,,,,,,,,,,,,,,,511,19,Woman,Right,
2,1,0.15,0,-,0,0.6527860999995028,-,-,-,,,,,,,,511,19,Woman,Right,,,,,,,,,,,,,,,,,511,19,Woman,Right,
2,1,0.15,0,-,180,0.08423820000462001,-,-,-,,,,,,,,511,19,Woman,Right,,,,,,,,,,,,,,,,,511,19,Woman,Right,
2,1,0.15,0,-,0,0.15421210000204155,-,-,-,,,,,,,,511,19,Woman,Right,,,,,,,,,,,,,,,,,511,19,Woman,Right,
2,1,0.15,180,-,180,0.23857159999897704,-,-,-,,,,,,,,511,19,Woman,Right,,,,,,,,,,,,,,,,,511,19,Woman,Right,
2,1,0.4,180,-,180,0.15174439999827882,-,-,-,,,,,,,,511,19,Woman,Right,,,,,,,,,,,,,,,,,511,19,Woman,Right,
2,1,0.15,180,-,180,0.3236146999988705,-,-,-,,,,,,,,511,19,Woman,Right,,,,,,,,,,,,,,,,,511,19,Woman,Right,
2,1,0.15,180,-,180,0.24884430000383873,-,-,-,,,,,,,,511,19,Woman,Right,,,,,,,,,,,,,,,,,511,19,Woman,Right,
2,1,0.15,0,-,0,0.13849770000524586,-,-,-,,,,,,,,511,19,Woman,Right,,,,,,,,,,,,,,,,,511,19,Woman,Right,
2,1,0.4,180,-,180,0.0625274999983958,-,-,-,9,3,10,3,0.9,1.0,,511,19,Woman,Right,,,,,,,,,,,,,,,,,511,19,Woman,Right,
3,2,1.0,180,0,180,0.2473485000009532,['y'],4.335436600005778,1.686,,,,,,,,511,19,Woman,Right,,,,,,,,,,,,,,,,,511,19,Woman,Right,
3,2,1.0,0,180,180,0.9985816000043997,['y'],2.5132912999979453,1.922,,,,,,,,511,19,Woman,Right,,,,,,,,,,,,,,,,,511,19,Woman,Right,
3,2,1.0,0,180,180,0.36748030000308063,['y'],2.9241966000045068,1.914,,,,,,,,511,19,Woman,Right,,,,,,,,,,,,,,,,,511,19,Woman,Right,
3,2,1.0,0,180,180,1.4817777999996906,['y'],0.9956545000022743,1.912,,,,,,,,511,19,Woman,Right,,,,,,,,,,,,,,,,,511,19,Woman,Right,
3,2,1.0,0,180,180,1.8712610000002314,['y'],1.387449599998945,1.76,,,,,,,,511,19,Woman,Right,,,,,,,,,,,,,,,,,511,19,Woman,Right,
3,2,1.0,0,180,180,1.1542731000008644,['y'],1.5008433000039076,1.696,,,,,,,,511,19,Woman,Right,,,,,,,,,,,,,,,,,511,19,Woman,Right,
3,2,1.0,0,180,180,1.1842157999999472,['y'],1.017116499999247,1.972,,,,,,,,511,19,Woman,Right,,,,,,,,,,,,,,,,,511,19,Woman,Right,
3,2,1.0,0,180,180,0.7277082000000519,['y'],1.3173699999970268,1.87,,,,,,,,511,19,Woman,Right,,,,,,,,,,,,,,,,,511,19,Woman,Right,
3,2,1.0,0,180,180,1.3774109999940265,['y'],0.9893241999961901,1.9,,,,,,,,511,19,Woman,Right,,,,,,,,,,,,,,,,,511,19,Woman,Right,
3,2,1.0,180,0,0,0.8774817000012263,['y'],0.872735199998715,1.896,9,9,10,10,0.9,0.9,,511,19,Woman,Right,,,,,,,,,,,,,,,,,511,19,Woman,Right,
4,2,0.4,180,0,180,2.0263057999982266,['y'],1.5436802000040188,1.6640000000000001,,,,,,,,511,19,Woman,Right,,,,,,,,,,,,,,,,,511,19,Woman,Right,
4,2,0.4,180,0,0,0.9306524000057834,['y'],1.830755200004205,1.766,,,,,,,,511,19,Woman,Right,,,,,,,,,,,,,,,,,511,19,Woman,Right,
4,2,0.4,0,180,180,0.7404376999984379,['y'],1.1996846000038204,1.918,,,,,,,,511,19,Woman,Right,,,,,,,,,,,,,,,,,511,19,Woman,Right,
4,2,0.15,0,180,0,3.1940861999974004,['n'],1.055002000000968,1.634,,,,,,,,511,19,Woman,Right,,,,,,,,,,,,,,,,,511,19,Woman,Right,
4,2,0.15,0,180,180,0.7616863000002922,['y'],0.9590567999985069,1.82,,,,,,,,511,19,Woman,Right,,,,,,,,,,,,,,,,,511,19,Woman,Right,
4,2,0.15,180,0,180,0.749983699999575,['y'],1.541903799996362,1.82,,,,,,,,511,19,Woman,Right,,,,,,,,,,,,,,,,,511,19,Woman,Right,
4,2,0.4,180,0,0,0.539503899999545,['y'],1.3487394000039785,1.76,,,,,,,,511,19,Woman,Right,,,,,,,,,,,,,,,,,511,19,Woman,Right,
4,2,0.4,0,180,180,0.4420391999956337,['y'],1.3524302000005264,1.934,,,,,,,,511,19,Woman,Right,,,,,,,,,,,,,,,,,511,19,Woman,Right,
4,2,0.4,0,180,180,0.566917399999511,['y'],0.5845493000015267,1.784,,,,,,,,511,19,Woman,Right,,,,,,,,,,,,,,,,,511,19,Woman,Right,
4,2,0.15,180,0,180,0.5354245999988052,['y'],1.6113362999967649,1.6019999999999999,6,5,10,6,0.6,0.8333333333333334,,511,19,Woman,Right,,,,,,,,,,,,,,,,,511,19,Woman,Right,
5,3,0.15,180,-,180,0.4380144000024302,['y'],1.3454775999998674,1.92,,,,,,,,511,19,Woman,Right,,,,,,,,,,,,,,,,,511,19,Woman,Right,
5,3,0.4,0,-,180,0.5089150999992853,['y'],2.7444106999973883,1.79,,,,,,,,511,19,Woman,Right,,,,,,,,,,,,,,,,,511,19,Woman,Right,
5,3,0.15,0,-,0,0.5263208000033046,['y'],1.2803996000002371,1.6600000000000001,,,,,,,,511,19,Woman,Right,,,,,,,,,,,,,,,,,511,19,Woman,Right,
5,3,0.15,0,-,180,0.3583520999964094,['n'],1.5698039999988396,1.68,,,,,,,,511,19,Woman,Right,,,,,,,,,,,,,,,,,511,19,Woman,Right,
5,3,0.15,180,-,0,0.4020287000021199,['n'],2.2922752000013134,1.68,,,,,,,,511,19,Woman,Right,,,,,,,,,,,,,,,,,511,19,Woman,Right,
5,3,0.4,180,-,180,0.5710223999994923,['n'],0.9768484000014723,1.68,,,,,,,,511,19,Woman,Right,,,,,,,,,,,,,,,,,511,19,Woman,Right,
5,3,0.15,0,180,0,0.5346426000032807,['n'],1.5099176000003354,1.984,,,,,,,,511,19,Woman,Right,,,,,,,,,,,,,,,,,511,19,Woman,Right,
5,3,0.15,0,-,0,0.7158281000010902,['y'],0.8282159000009415,1.6440000000000001,,,,,,,,511,19,Woman,Right,,,,,,,,,,,,,,,,,511,19,Woman,Right,
5,3,1.0,180,-,180,0.4176785000017844,['y'],0.847054300000309,1.798,,,,,,,,511,19,Woman,Right,,,,,,,,,,,,,,,,,511,19,Woman,Right,
5,3,0.4,0,180,180,0.9314349999986007,['y'],3.550941100002092,1.792,,,,,,,,511,19,Woman,Right,,,,,,,,,,,,,,,,,511,19,Woman,Right,
5,3,0.15,180,0,0,0.8616459999975632,['y'],1.2840732999975444,1.966,,,,,,,,511,19,Woman,Right,,,,,,,,,,,,,,,,,511,19,Woman,Right,
5,3,0.15,0,180,180,0.9726271000035922,['n'],1.0170404000018607,1.854,,,,,,,,511,19,Woman,Right,,,,,,,,,,,,,,,,,511,19,Woman,Right,
5,3,0.4,180,0,0,0.41041260000201873,['y'],0.8289822000006097,1.8559999999999999,,,,,,,,511,19,Woman,Right,,,,,,,,,,,,,,,,,511,19,Woman,Right,
5,3,1.0,0,180,180,0.4670516000041971,['y'],0.9413236999971559,1.994,,,,,,,,511,19,Woman,Right,,,,,,,,,,,,,,,,,511,19,Woman,Right,
5,3,0.15,0,180,0,0.5664558999997098,['y'],1.5176422000004095,1.744,,,,,,,,511,19,Woman,Right,,,,,,,,,,,,,,,,,511,19,Woman,Right,
5,3,0.15,0,180,0,0.548398899998574,['y'],1.9085849000039161,1.812,,,,,,,,511,19,Woman,Right,,,,,,,,,,,,,,,,,511,19,Woman,Right,
5,3,0.4,180,0,0,0.4649483999965014,['y'],0.8539688000018941,1.994,,,,,,,,511,19,Woman,Right,,,,,,,,,,,,,,,,,511,19,Woman,Right,
5,3,1.0,180,0,0,0.5338843999998062,['y'],1.2525995000032708,1.83,,,,,,,,511,19,Woman,Right,,,,,,,,,,,,,,,,,511,19,Woman,Right,
5,3,1.0,180,0,0,0.7102958000032231,['y'],0.5234192999996594,1.968,,,,,,,,511,19,Woman,Right,,,,,,,,,,,,,,,,,511,19,Woman,Right,
5,3,0.4,0,-,0,0.8755627999998978,['y'],1.0998141999953077,1.922,8,6,10,6,0.8,1.0,,511,19,Woman,Right,,,,,,,,,,,,,,,,,511,19,Woman,Right,
,,,,,,,,,,,,,,,,4.800000169780105e-06,511,19,Woman,Right,,,,,,,,,,,,,,,,,511,19,Woman,Right,
,,,,,,,,,,,,,,,,,511,19,Woman,Right,0,33,0.4,2,0,180,180,0.5513157999957912,['y'],2.581200600005104,1.944,409.31672110000363,,,,,511,19,Woman,Right,
,,,,,,,,,,,,,,,,,511,19,Woman,Right,0,35,0.4,2,180,0,0,0.3818565000037779,['y'],1.5259482999972533,1.92,414.3165383000014,,,,,511,19,Woman,Right,
,,,,,,,,,,,,,,,,,511,19,Woman,Right,0,24,0.4,1,0,-,180,1.4172486999959801,['n'],1.5438686999987112,1.916,420.49920750000456,,,,,511,19,Woman,Right,
,,,,,,,,,,,,,,,,,511,19,Woman,Right,0,49,0.15,2,0,180,0,0.5724554999978864,['n'],1.5441455999971367,1.754,426.5002841000023,,,,,511,19,Woman,Right,
,,,,,,,,,,,,,,,,,511,19,Woman,Right,0,13,0.4,2,0,180,180,0.48394910000206437,['y'],1.3680458000017097,1.736,432.5491592000035,,,,,511,19,Woman,Right,
,,,,,,,,,,,,,,,,,511,19,Woman,Right,0,79,0.15,2,180,0,0,0.6034414000023389,['n'],1.289408699994965,1.862,437.46670980000636,,,,,511,19,Woman,Right,
,,,,,,,,,,,,,,,,,511,19,Woman,Right,0,54,0.15,1,180,-,0,1.0283272000015131,['y'],1.8336546999998973,1.8599999999999999,443.166346900005,,,,,511,19,Woman,Right,
,,,,,,,,,,,,,,,,,511,19,Woman,Right,0,76,0.15,1,0,-,0,0.7167311000011978,['n'],1.7397042000011425,1.8599999999999999,448.76641850000306,,,,,511,19,Woman,Right,
,,,,,,,,,,,,,,,,,511,19,Woman,Right,0,39,0.4,2,180,0,0,0.5122122000029776,['y'],1.187880600002245,1.978,453.7661257,,,,,511,19,Woman,Right,
,,,,,,,,,,,,,,,,,511,19,Woman,Right,0,75,0.15,2,180,0,0,0.44926919999852544,['y'],1.7390903000050457,1.87,459.1991560000024,,,,,511,19,Woman,Right,
,,,,,,,,,,,,,,,,,511,19,Woman,Right,0,29,0.4,2,0,180,180,0.3126207999957842,['y'],1.0927607999983593,1.988,464.29975820000254,,,,,511,19,Woman,Right,
,,,,,,,,,,,,,,,,,511,19,Woman,Right,0,73,0.15,2,0,180,180,0.4449687000014819,['n'],1.405651900000521,1.804,469.3997109000047,,,,,511,19,Woman,Right,
,,,,,,,,,,,,,,,,,511,19,Woman,Right,0,72,0.15,1,0,-,0,1.1118620999986888,['n'],1.1258035999999265,1.6400000000000001,474.6999466000052,,,,,511,19,Woman,Right,
,,,,,,,,,,,,,,,,,511,19,Woman,Right,0,34,0.4,1,180,-,0,0.6087113000030513,['n'],1.4468619999970542,1.6520000000000001,479.7498210000049,,,,,511,19,Woman,Right,
,,,,,,,,,,,,,,,,,511,19,Woman,Right,0,8,0.4,1,0,-,180,0.45508239999617217,['y'],1.8870498000032967,1.74,485.5657111000037,,,,,511,19,Woman,Right,
,,,,,,,,,,,,,,,,,511,19,Woman,Right,0,46,0.15,1,180,-,0,0.6948543999969843,['y'],2.896198700000241,1.62,493.08241710000584,,,,,511,19,Woman,Right,
,,,,,,,,,,,,,,,,,511,19,Woman,Right,0,78,0.15,1,180,-,180,0.8845492000036757,['n'],1.5212266000016825,1.6320000000000001,499.2491975000012,,,,,511,19,Woman,Right,
,,,,,,,,,,,,,,,,,511,19,Woman,Right,0,9,0.4,2,0,180,180,0.38894620000064606,['y'],1.2812927999984822,1.912,504.4999104000017,,,,,511,19,Woman,Right,
,,,,,,,,,,,,,,,,,511,19,Woman,Right,0,62,0.15,1,180,-,180,0.8291176999991876,['n'],1.2348516999991261,1.762,510.265656100004,,,,,511,19,Woman,Right,
,,,,,,,,,,,,,,,,,511,19,Woman,Right,0,1,1,2,0,180,180,0.5264850000021397,['y'],1.291155599996273,1.982,516.5660319000017,,,,,511,19,Woman,Right,
,,,,,,,,,,,,,,,,,511,19,Woman,Right,0,52,0.15,1,0,-,0,0.8142315000004601,['y'],1.2280666999940877,1.72,521.5162400000045,,,,,511,19,Woman,Right,
,,,,,,,,,,,,,,,,,511,19,Woman,Right,0,69,0.15,2,0,180,0,0.435086899997259,['n'],1.0364663000000292,1.822,526.1156451000061,,,,,511,19,Woman,Right,
,,,,,,,,,,,,,,,,,511,19,Woman,Right,0,17,0.4,2,0,180,180,0.5890090999964741,['y'],1.0135223000033875,1.888,531.5156209000052,,,,,511,19,Woman,Right,
,,,,,,,,,,,,,,,,,511,19,Woman,Right,0,56,0.15,1,0,-,0,0.9253692999991472,['n'],1.2624058000001241,1.82,537.4993551000007,,,,,511,19,Woman,Right,
,,,,,,,,,,,,,,,,,511,19,Woman,Right,0,22,0.4,1,180,-,0,1.4397778999991715,['n'],1.3834254999965196,1.71,543.9494161000039,,,,,511,19,Woman,Right,
,,,,,,,,,,,,,,,,,511,19,Woman,Right,0,18,0.4,1,180,-,0,0.4430947000000742,['y'],1.4159227999989525,1.726,548.8489562000032,,,,,511,19,Woman,Right,
,,,,,,,,,,,,,,,,,511,19,Woman,Right,0,71,0.15,2,180,0,0,3.8125829999989946,['n'],1.3134983999989345,1.714,557.3822486000063,,,,,511,19,Woman,Right,
,,,,,,,,,,,,,,,,,511,19,Woman,Right,0,6,1,1,180,-,180,0.9168438999986392,['y'],1.0870608999975957,1.912,563.1154862000039,,,,,511,19,Woman,Right,
,,,,,,,,,,,,,,,,,511,19,Woman,Right,0,60,0.15,1,0,-,0,0.6896455000023707,['n'],1.0667004000060842,1.804,568.1489307000011,,,,,511,19,Woman,Right,
,,,,,,,,,,,,,,,,,511,19,Woman,Right,0,25,0.4,2,0,180,180,0.38380570000299485,['y'],1.3150879000022542,1.804,572.6494783000016,,,,,511,19,Woman,Right,
,,,,,,,,,,,,,,,,,511,19,Woman,Right,0,37,0.4,2,0,180,0,1.1482442999986233,['y'],1.5480663000053028,1.854,578.6488756000035,,,,,511,19,Woman,Right,
,,,,,,,,,,,,,,,,,511,19,Woman,Right,0,16,0.4,1,0,-,0,0.8674976999973296,['n'],1.4919836000044597,1.7,584.6664128000048,,,,,511,19,Woman,Right,
,,,,,,,,,,,,,,,,,511,19,Woman,Right,0,19,0.4,2,180,0,0,0.4475956000023871,['y'],1.1012549000006402,1.916,589.4662028000021,,,,,511,19,Woman,Right,
,,,,,,,,,,,,,,,,,511,19,Woman,Right,0,48,0.15,1,0,-,0,0.6407179000016185,['n'],1.1902562000032049,1.91,594.0154659000036,,,,,511,19,Woman,Right,
,,,,,,,,,,,,,,,,,511,19,Woman,Right,0,70,0.15,1,180,-,180,0.775286900003266,['y'],1.3663792000006652,1.646,599.9328636000064,,,,,511,19,Woman,Right,
,,,,,,,,,,,,,,,,,511,19,Woman,Right,0,45,0.15,2,0,180,0,0.5848903999940376,['n'],1.159306599998672,1.702,605.0163997000054,,,,,511,19,Woman,Right,
,,,,,,,,,,,,,,,,,511,19,Woman,Right,0,67,0.15,2,180,0,180,1.2624560999975074,['n'],1.376938000001246,1.702,610.3660318000038,,,,,511,19,Woman,Right,
,,,,,,,,,,,,,,,,,511,19,Woman,Right,0,11,0.4,2,180,0,0,0.9704092999963905,['y'],1.2575128999960725,1.948,615.749688200005,,,,,511,19,Woman,Right,
,,,,,,,,,,,,,,,,,511,19,Woman,Right,0,20,0.4,1,0,-,180,0.5204008000000613,['y'],1.4332177999967826,1.996,620.816032200004,,,,,511,19,Woman,Right,
,,,,,,,,,,,,,,,,,511,19,Woman,Right,0,14,0.4,1,180,-,180,0.6336494999995921,['n'],0.934030199998233,1.84,626.1161043000029,,,,,511,19,Woman,Right,
,,,,,,,,,,,,,,,,,511,19,Woman,Right,0,51,0.15,2,180,0,0,0.4118101999993087,['n'],1.2747893999985536,1.6480000000000001,631.6986781000014,,,,,511,19,Woman,Right,
,,,,,,,,,,,,,,,,,511,19,Woman,Right,0,58,0.15,1,180,-,180,0.5516764999993029,['n'],1.0510769999964396,1.8559999999999999,636.3994015999997,,,,,511,19,Woman,Right,
,,,,,,,,,,,,,,,,,511,19,Woman,Right,0,59,0.15,2,180,0,180,1.7310121999980765,['y'],1.324588200004655,1.928,642.998543200003,,,,,511,19,Woman,Right,
,,,,,,,,,,,,,,,,,511,19,Woman,Right,0,0,1,1,0,-,0,0.47128109999903245,['n'],1.4933497000019997,1.914,647.9660141999993,,,,,511,19,Woman,Right,
,,,,,,,,,,,,,,,,,511,19,Woman,Right,0,44,0.15,1,0,-,180,2.5004106999986107,['n'],1.2134003000028315,1.748,655.1160237000004,,,,,511,19,Woman,Right,
,,,,,,,,,,,,,,,,,511,19,Woman,Right,0,66,0.15,1,180,-,0,0.7456424000047264,['y'],1.1348920000018552,1.804,659.5660067999997,,,,,511,19,Woman,Right,
,,,,,,,,,,,,,,,,,511,19,Woman,Right,0,23,0.4,2,180,0,0,0.6674581000042963,['y'],0.943099500000244,1.994,664.2664420000001,,,,,511,19,Woman,Right,
,,,,,,,,,,,,,,,,,511,19,Woman,Right,0,27,0.4,2,180,0,0,0.6795007999971858,['y'],0.9996309999987716,1.966,668.4660402000009,,,,,511,19,Woman,Right,
,,,,,,,,,,,,,,,,,511,19,Woman,Right,0,57,0.15,2,0,180,180,0.4239037000006647,['y'],1.097199299998465,1.88,673.2660619000017,,,,,511,19,Woman,Right,
,,,,,,,,,,,,,,,,,511,19,Woman,Right,0,53,0.15,2,0,180,0,0.25933100000111153,['y'],1.601201099998434,1.88,678.2993306000062,,,,,511,19,Woman,Right,
,,,,,,,,,,,,,,,,,511,19,Woman,Right,0,26,0.4,1,180,-,0,0.34856280000531115,['n'],1.6010246000005282,1.788,682.9985452000037,,,,,511,19,Woman,Right,
,,,,,,,,,,,,,,,,,511,19,Woman,Right,0,4,1,1,0,-,0,1.6957185999999638,['n'],1.1220275000014226,1.74,688.8991603000031,,,,,511,19,Woman,Right,
,,,,,,,,,,,,,,,,,511,19,Woman,Right,0,2,1,1,180,-,180,0.3881894000005559,['n'],2.9160304000033648,1.746,695.2818733000022,,,,,511,19,Woman,Right,
,,,,,,,,,,,,,,,,,511,19,Woman,Right,0,32,0.4,1,0,-,0,0.7946846000049845,['n'],1.4040654999989783,1.8900000000000001,701.2318545000016,,,,,511,19,Woman,Right,
,,,,,,,,,,,,,,,,,511,19,Woman,Right,0,68,0.15,1,0,-,180,0.5649320000011357,['n'],1.381225800003449,1.8900000000000001,705.6318256000013,,,,,511,19,Woman,Right,
,,,,,,,,,,,,,,,,,511,19,Woman,Right,0,40,0.4,1,0,-,0,0.31465079999907175,['n'],1.0299863999971421,1.958,711.2151873000039,,,,,511,19,Woman,Right,
,,,,,,,,,,,,,,,,,511,19,Woman,Right,0,3,1,2,180,0,0,0.5348459000015282,['y'],1.222173299996939,1.956,715.8317779999998,,,,,511,19,Woman,Right,
,,,,,,,,,,,,,,,,,511,19,Woman,Right,0,5,1,2,0,180,180,0.30986879999545636,['y'],2.8076845000032336,1.956,721.6484851999994,,,,,511,19,Woman,Right,
,,,,,,,,,,,,,,,,,511,19,Woman,Right,0,41,0.4,2,0,180,180,0.2777487999992445,['y'],1.015719999995781,1.956,725.4490453000035,,,,,511,19,Woman,Right,
,,,,,,,,,,,,,,,,,511,19,Woman,Right,0,43,0.4,2,180,0,0,0.25174759999936214,['y'],0.9680574000012712,1.996,730.1492765000003,,,,,511,19,Woman,Right,
,,,,,,,,,,,,,,,,,511,19,Woman,Right,0,12,0.4,1,0,-,0,0.7695994000023347,['n'],1.113056599999254,1.892,735.4156949000026,,,,,511,19,Woman,Right,
,,,,,,,,,,,,,,,,,511,19,Woman,Right,0,28,0.4,1,0,-,0,0.4595869999975548,['y'],1.977103299999726,1.9,740.4816939000011,,,,,511,19,Woman,Right,
,,,,,,,,,,,,,,,,,511,19,Woman,Right,0,55,0.15,2,180,0,0,0.5447753999978886,['y'],1.0022366999983205,1.97,745.9654743000065,,,,,511,19,Woman,Right,
,,,,,,,,,,,,,,,,,511,19,Woman,Right,0,77,0.15,2,0,180,0,0.31596189999982016,['n'],1.0427415000012843,1.968,750.9156504000057,,,,,511,19,Woman,Right,
,,,,,,,,,,,,,,,,,511,19,Woman,Right,0,36,0.4,1,0,-,0,0.34815339999477146,['n'],1.4513615000032587,1.984,755.5484400000059,,,,,511,19,Woman,Right,
,,,,,,,,,,,,,,,,,511,19,Woman,Right,0,64,0.15,1,0,-,0,0.3626296000002185,['y'],1.2922019999969052,1.8559999999999999,759.8316532000026,,,,,511,19,Woman,Right,
,,,,,,,,,,,,,,,,,511,19,Woman,Right,0,15,0.4,2,180,0,0,0.41615230000024894,['y'],1.2446792999980971,2.0,765.1325622000004,,,,,511,19,Woman,Right,
,,,,,,,,,,,,,,,,,511,19,Woman,Right,0,30,0.4,1,180,-,180,0.3232378000029712,['n'],1.0684331999946153,1.63,770.315692300006,,,,,511,19,Woman,Right,
,,,,,,,,,,,,,,,,,511,19,Woman,Right,0,61,0.15,2,0,180,0,0.34261749999859603,['y'],1.9257027999992715,1.896,776.9983501000024,,,,,511,19,Woman,Right,
,,,,,,,,,,,,,,,,,511,19,Woman,Right,0,47,0.15,2,180,0,180,1.544669700000668,['n'],0.9991365999958361,1.814,783.5316041000042,,,,,511,19,Woman,Right,
,,,,,,,,,,,,,,,,,511,19,Woman,Right,0,21,0.4,2,0,180,180,0.5731491999977152,['y'],0.9441376000031596,1.942,787.8816049000015,,,,,511,19,Woman,Right,
,,,,,,,,,,,,,,,,,511,19,Woman,Right,0,31,0.4,2,180,0,0,0.38966870000149356,['y'],1.0004199000031804,1.93,791.7148794000022,,,,,511,19,Woman,Right,
,,,,,,,,,,,,,,,,,511,19,Woman,Right,0,65,0.15,2,0,180,180,1.8149263000013889,['n'],0.9293247000023257,1.596,799.3315082000045,,,,,511,19,Woman,Right,
,,,,,,,,,,,,,,,,,511,19,Woman,Right,0,63,0.15,2,180,0,180,1.6000303000037093,['n'],0.8746049999972456,1.6480000000000001,806.2989175000039,,,,,511,19,Woman,Right,
,,,,,,,,,,,,,,,,,511,19,Woman,Right,0,10,0.4,1,180,-,180,0.8526735999985249,['y'],2.3712747000026866,1.74,813.465580600001,,,,,511,19,Woman,Right,
,,,,,,,,,,,,,,,,,511,19,Woman,Right,0,50,0.15,1,180,-,180,0.34848020000208635,['n'],0.8838582000025781,1.6640000000000001,817.9817045000018,,,,,511,19,Woman,Right,
,,,,,,,,,,,,,,,,,511,19,Woman,Right,0,74,0.15,1,180,-,0,2.0621444000062183,['n'],3.461211199995887,1.422,826.8981784000061,,,,,511,19,Woman,Right,
,,,,,,,,,,,,,,,,,511,19,Woman,Right,0,38,0.4,1,180,-,180,0.4567410999952699,['y'],1.678217599997879,1.694,833.7815170000031,,,,,511,19,Woman,Right,
,,,,,,,,,,,,,,,,,511,19,Woman,Right,0,7,1,2,180,0,0,0.4185810000053607,['y'],1.1348836999968626,1.98,838.4815356000036,,,,,511,19,Woman,Right,
,,,,,,,,,,,,,,,,,511,19,Woman,Right,0,42,0.4,1,180,-,180,0.32497139999759383,['y'],1.4631021999957738,1.748,843.5652456000025,,,,,511,19,Woman,Right,
,,,,,,,,,,,,,,,,,511,19,Woman,Right,1,2,1,1,180,-,180,0.6087544999973034,['y'],1.145684800001618,1.6280000000000001,865.5983081000013,70.0,65.0,70.0,,511,19,Woman,Right,
,,,,,,,,,,,,,,,,,511,19,Woman,Right,1,55,0.15,2,180,0,180,0.38448439999774564,['y'],2.050431199997547,1.562,871.4487731000045,,,,,511,19,Woman,Right,
,,,,,,,,,,,,,,,,,511,19,Woman,Right,1,58,0.15,1,180,-,180,0.34517829999822425,['n'],1.0600928000058047,1.5819999999999999,876.9490886000058,,,,,511,19,Woman,Right,
,,,,,,,,,,,,,,,,,511,19,Woman,Right,1,15,0.4,2,180,0,0,0.4129287999967346,['y'],1.2680752999949618,1.8940000000000001,881.7154043000046,,,,,511,19,Woman,Right,
,,,,,,,,,,,,,,,,,511,19,Woman,Right,1,67,0.15,2,180,0,0,0.35098850000213133,['y'],1.1326496999972733,1.8860000000000001,885.8147706000018,,,,,511,19,Woman,Right,
,,,,,,,,,,,,,,,,,511,19,Woman,Right,1,63,0.15,2,180,0,180,0.44840950000070734,['y'],1.101817700000538,1.416,890.8480278999996,,,,,511,19,Woman,Right,
,,,,,,,,,,,,,,,,,511,19,Woman,Right,1,28,0.4,1,0,-,0,0.7238719999950263,['n'],1.2458990999948583,1.566,896.2486791000047,,,,,511,19,Woman,Right,
,,,,,,,,,,,,,,,,,511,19,Woman,Right,1,39,0.4,2,180,0,0,0.2840338000023621,['y'],1.1507277000055183,1.716,900.581306,,,,,511,19,Woman,Right,
,,,,,,,,,,,,,,,,,511,19,Woman,Right,1,33,0.4,2,0,180,180,0.4495065999944927,['y'],1.079300700002932,1.716,904.7146415000025,,,,,511,19,Woman,Right,
,,,,,,,,,,,,,,,,,511,19,Woman,Right,1,76,0.15,1,0,-,0,0.7620456000004197,['y'],1.5052058000001125,1.6400000000000001,910.1313574000014,,,,,511,19,Woman,Right,
,,,,,,,,,,,,,,,,,511,19,Woman,Right,1,79,0.15,2,180,0,0,0.2860614000019268,['n'],1.3206970000028377,1.6219999999999999,914.1982076000058,,,,,511,19,Woman,Right,
,,,,,,,,,,,,,,,,,511,19,Woman,Right,1,13,0.4,2,0,180,180,0.4685317999974359,['y'],1.1294164999999339,1.8980000000000001,918.5145841000049,,,,,511,19,Woman,Right,
,,,,,,,,,,,,,,,,,511,19,Woman,Right,1,75,0.15,2,180,0,0,0.8328131000016583,['y'],1.9535242000056314,1.3820000000000001,924.7146445000035,,,,,511,19,Woman,Right,
,,,,,,,,,,,,,,,,,511,19,Woman,Right,1,57,0.15,2,0,180,180,0.6495156999953906,['n'],0.9220035000034841,1.568,930.6985266000047,,,,,511,19,Woman,Right,
,,,,,,,,,,,,,,,,,511,19,Woman,Right,1,61,0.15,2,0,180,0,1.7745942000037758,['y'],1.7952330999978585,1.568,936.7311747000058,,,,,511,19,Woman,Right,
,,,,,,,,,,,,,,,,,511,19,Woman,Right,1,36,0.4,1,0,-,0,0.7611065000019153,['y'],0.9563393999997061,1.73,941.5978471000053,,,,,511,19,Woman,Right,
,,,,,,,,,,,,,,,,,511,19,Woman,Right,1,12,0.4,1,0,-,180,0.8418093000000226,['y'],1.1168628000013996,1.686,946.248803800001,,,,,511,19,Woman,Right,
,,,,,,,,,,,,,,,,,511,19,Woman,Right,1,69,0.15,2,0,180,0,1.299721600000339,['y'],1.053577500002575,1.686,950.9491873000006,,,,,511,19,Woman,Right,
,,,,,,,,,,,,,,,,,511,19,Woman,Right,1,11,0.4,2,180,0,0,0.3662696000028518,['y'],1.254147899999225,1.686,954.9483534000028,,,,,511,19,Woman,Right,
,,,,,,,,,,,,,,,,,511,19,Woman,Right,1,26,0.4,1,180,-,180,0.9987198000017088,['n'],0.622339199995622,1.558,960.4311562000003,,,,,511,19,Woman,Right,
,,,,,,,,,,,,,,,,,511,19,Woman,Right,1,25,0.4,2,0,180,180,0.3546734999981709,['y'],1.1668414000014309,1.678,965.0984094000014,,,,,511,19,Woman,Right,
,,,,,,,,,,,,,,,,,511,19,Woman,Right,1,23,0.4,2,180,0,0,0.44028679999610176,['y'],1.3363339999996242,1.678,969.1151595000047,,,,,511,19,Woman,Right,
,,,,,,,,,,,,,,,,,511,19,Woman,Right,1,64,0.15,1,0,-,180,1.7235660000005737,['n'],1.4971733999991557,1.672,974.9820003999994,,,,,511,19,Woman,Right,
,,,,,,,,,,,,,,,,,511,19,Woman,Right,1,0,1,1,0,-,180,1.81000689999928,['n'],1.2888043999992078,1.268,983.8810741000052,,,,,511,19,Woman,Right,
,,,,,,,,,,,,,,,,,511,19,Woman,Right,1,62,0.15,1,180,-,0,0.6393290999985766,['y'],0.9227870999966399,1.634,988.1978942999995,,,,,511,19,Woman,Right,
,,,,,,,,,,,,,,,,,511,19,Woman,Right,1,78,0.15,1,180,-,180,0.339004900000873,['n'],0.7957322000002023,1.5819999999999999,992.1151078000039,,,,,511,19,Woman,Right,
,,,,,,,,,,,,,,,,,511,19,Woman,Right,1,54,0.15,1,180,-,180,0.838018499998725,['y'],1.2995425000044634,1.584,997.3979427000013,,,,,511,19,Woman,Right,
,,,,,,,,,,,,,,,,,511,19,Woman,Right,1,56,0.15,1,0,-,0,0.3133340999993379,['n'],1.0363050000014482,1.762,1001.2810269000038,,,,,511,19,Woman,Right,
,,,,,,,,,,,,,,,,,511,19,Woman,Right,1,42,0.4,1,180,-,180,2.8150924000001396,['y'],1.4364071000018157,1.762,1007.847725700005,,,,,511,19,Woman,Right,
,,,,,,,,,,,,,,,,,511,19,Woman,Right,1,10,0.4,1,180,-,180,0.7410164000029908,['y'],0.9824385000028997,1.762,1012.0650246000005,,,,,511,19,Woman,Right,
,,,,,,,,,,,,,,,,,511,19,Woman,Right,1,9,0.4,2,0,180,180,1.3848183000009158,['y'],1.1018378999942797,1.722,1017.5812387000042,,,,,511,19,Woman,Right,
,,,,,,,,,,,,,,,,,511,19,Woman,Right,1,5,1,2,0,180,180,0.4498048000023118,['y'],0.9827006999985315,1.932,1021.9651292000053,,,,,511,19,Woman,Right,
,,,,,,,,,,,,,,,,,511,19,Woman,Right,1,68,0.15,1,0,-,180,1.0536906999986968,['n'],1.8713468999994802,1.82,1027.4809550000064,,,,,511,19,Woman,Right,
,,,,,,,,,,,,,,,,,511,19,Woman,Right,1,73,0.15,2,0,180,0,0.6092856000032043,['y'],1.2801995999980136,1.812,1031.9144245999996,,,,,511,19,Woman,Right,
,,,,,,,,,,,,,,,,,511,19,Woman,Right,1,14,0.4,1,180,-,0,0.8527004999996279,['y'],2.097114500000316,1.85,1037.8809158000004,,,,,511,19,Woman,Right,
,,,,,,,,,,,,,,,,,511,19,Woman,Right,1,22,0.4,1,180,-,0,0.34122779999597697,['y'],1.0977541000029305,1.592,1042.4809488000028,,,,,511,19,Woman,Right,
,,,,,,,,,,,,,,,,,511,19,Woman,Right,1,51,0.15,2,180,0,180,1.6328931000025477,['y'],0.9381429000059143,1.5899999999999999,1047.6308805000008,,,,,511,19,Woman,Right,
,,,,,,,,,,,,,,,,,511,19,Woman,Right,1,27,0.4,2,180,0,0,0.40841070000169566,['y'],1.299264100001892,1.8519999999999999,1052.5981406000064,,,,,511,19,Woman,Right,
,,,,,,,,,,,,,,,,,511,19,Woman,Right,1,37,0.4,2,0,180,0,0.8308296999966842,['y'],0.9316450999976951,1.846,1057.098523700006,,,,,511,19,Woman,Right,
,,,,,,,,,,,,,,,,,511,19,Woman,Right,1,32,0.4,1,0,-,180,0.44561049999902025,['y'],0.9795517000020482,1.8439999999999999,1061.4311495000002,,,,,511,19,Woman,Right,
,,,,,,,,,,,,,,,,,511,19,Woman,Right,1,59,0.15,2,180,0,0,0.5547061000033864,['y'],1.293330300002708,1.604,1066.1148837,,,,,511,19,Woman,Right,
,,,,,,,,,,,,,,,,,511,19,Woman,Right,1,53,0.15,2,0,180,180,0.18013849999988452,['y'],1.3649084999997285,1.6019999999999999,1070.4809195000053,,,,,511,19,Woman,Right,
,,,,,,,,,,,,,,,,,511,19,Woman,Right,1,60,0.15,1,0,-,180,0.21535099999891827,['y'],1.1661957999967854,1.696,1074.380797100006,,,,,511,19,Woman,Right,
,,,,,,,,,,,,,,,,,511,19,Woman,Right,1,30,0.4,1,180,-,180,0.6793455000006361,['y'],1.029956400001538,1.698,1078.6974747999993,,,,,511,19,Woman,Right,
,,,,,,,,,,,,,,,,,511,19,Woman,Right,1,4,1,1,0,-,0,0.39626139999745646,['y'],1.5113996000000043,1.8820000000000001,1083.7482178999999,,,,,511,19,Woman,Right,
,,,,,,,,,,,,,,,,,511,19,Woman,Right,1,38,0.4,1,180,-,0,0.40508309999859193,['n'],1.1363060000003316,1.8820000000000001,1087.5146082000065,,,,,511,19,Woman,Right,
,,,,,,,,,,,,,,,,,511,19,Woman,Right,1,1,1,2,0,180,180,0.3218533000035677,['y'],1.1366022000001976,1.788,1092.9148640000058,,,,,511,19,Woman,Right,
,,,,,,,,,,,,,,,,,511,19,Woman,Right,1,47,0.15,2,180,0,0,0.945517899999686,['y'],1.2567818000025,1.734,1098.0141121000051,,,,,511,19,Woman,Right,
,,,,,,,,,,,,,,,,,511,19,Woman,Right,1,19,0.4,2,180,0,0,0.4174286999987089,['y'],1.1459222999983467,1.982,1102.8483622999993,,,,,511,19,Woman,Right,
,,,,,,,,,,,,,,,,,511,19,Woman,Right,1,20,0.4,1,0,-,0,0.3986581999997725,['y'],0.9540116999996826,1.63,1107.1648506000056,,,,,511,19,Woman,Right,
,,,,,,,,,,,,,,,,,511,19,Woman,Right,1,77,0.15,2,0,180,180,0.5761505999980727,['y'],1.499458999998751,1.588,1113.0649768000003,,,,,511,19,Woman,Right,
,,,,,,,,,,,,,,,,,511,19,Woman,Right,1,50,0.15,1,180,-,0,0.19371859999955632,['y'],1.6994349000015063,1.608,1117.7150980000006,,,,,511,19,Woman,Right,
,,,,,,,,,,,,,,,,,511,19,Woman,Right,1,17,0.4,2,0,180,0,0.35118570000486216,['y'],1.7077493000033428,1.654,1122.9653837000005,,,,,511,19,Woman,Right,
,,,,,,,,,,,,,,,,,511,19,Woman,Right,1,70,0.15,1,180,-,180,0.6691619000048377,['y'],1.0368900000030408,1.6520000000000001,1127.1972299000045,,,,,511,19,Woman,Right,
,,,,,,,,,,,,,,,,,511,19,Woman,Right,1,74,0.15,1,180,-,180,0.31660009999905014,['y'],1.477288399997633,1.412,1132.8973365000056,,,,,511,19,Woman,Right,
,,,,,,,,,,,,,,,,,511,19,Woman,Right,1,3,1,2,180,0,0,0.4646043999964604,['y'],1.03846020000492,1.948,1137.4640694000045,,,,,511,19,Woman,Right,
,,,,,,,,,,,,,,,,,511,19,Woman,Right,1,21,0.4,2,0,180,180,0.42406430000119144,['y'],0.9030119000017294,1.9020000000000001,1141.3806522000014,,,,,511,19,Woman,Right,
,,,,,,,,,,,,,,,,,511,19,Woman,Right,1,31,0.4,2,180,0,0,0.3650312000027043,['y'],1.2955428999994183,1.884,1146.1307063000058,,,,,511,19,Woman,Right,
,,,,,,,,,,,,,,,,,511,19,Woman,Right,1,29,0.4,2,0,180,180,0.5155357999974512,['y'],1.1037320000032196,1.812,1151.3806544000036,,,,,511,19,Woman,Right,
,,,,,,,,,,,,,,,,,511,19,Woman,Right,1,52,0.15,1,0,-,180,1.846168399999442,['n'],1.2562771999946563,1.62,1158.3972366000016,,,,,511,19,Woman,Right,
,,,,,,,,,,,,,,,,,511,19,Woman,Right,1,6,1,1,180,-,180,0.5326732999965316,['y'],0.9941827000002377,1.722,1162.4141971999998,,,,,511,19,Woman,Right,
,,,,,,,,,,,,,,,,,511,19,Woman,Right,1,34,0.4,1,180,-,180,0.4175267000027816,['n'],1.6077403000017512,1.722,1166.9646740000026,,,,,511,19,Woman,Right,
,,,,,,,,,,,,,,,,,511,19,Woman,Right,1,66,0.15,1,180,-,0,1.5605721999963862,['n'],1.4593724999940605,1.908,1172.5810016000032,,,,,511,19,Woman,Right,
,,,,,,,,,,,,,,,,,511,19,Woman,Right,1,46,0.15,1,180,-,180,0.7806334999986575,['n'],1.5632174999991548,1.92,1177.3983337000027,,,,,511,19,Woman,Right,
,,,,,,,,,,,,,,,,,511,19,Woman,Right,1,18,0.4,1,180,-,180,0.3360209999955259,['n'],1.243795800000953,1.8639999999999999,1181.8645354000037,,,,,511,19,Woman,Right,
,,,,,,,,,,,,,,,,,511,19,Woman,Right,1,44,0.15,1,0,-,0,1.0135928000017884,['n'],0.7401532000003499,1.746,1186.1472334999999,,,,,511,19,Woman,Right,
,,,,,,,,,,,,,,,,,511,19,Woman,Right,1,45,0.15,2,0,180,0,0.7725561999977799,['n'],0.9338845000020228,1.764,1190.1645325000063,,,,,511,19,Woman,Right,
,,,,,,,,,,,,,,,,,511,19,Woman,Right,1,8,0.4,1,0,-,0,0.44309570000041276,['n'],1.4775917000006302,1.78,1194.4137518000061,,,,,511,19,Woman,Right,
,,,,,,,,,,,,,,,,,511,19,Woman,Right,1,72,0.15,1,0,-,0,0.18874720000167144,['n'],1.2781074999948032,1.788,1198.4304768000002,,,,,511,19,Woman,Right,
,,,,,,,,,,,,,,,,,511,19,Woman,Right,1,43,0.4,2,180,0,180,1.057587400006014,['y'],1.6627650000009453,1.786,1203.5646095000047,,,,,511,19,Woman,Right,
,,,,,,,,,,,,,,,,,511,19,Woman,Right,1,24,0.4,1,0,-,0,0.6174941999997827,['y'],1.071257699994021,1.784,1207.7138642999998,,,,,511,19,Woman,Right,
,,,,,,,,,,,,,,,,,511,19,Woman,Right,1,48,0.15,1,0,-,180,0.44026840000151424,['y'],1.7123990999971284,1.796,1212.3811451000001,,,,,511,19,Woman,Right,
,,,,,,,,,,,,,,,,,511,19,Woman,Right,1,65,0.15,2,0,180,0,0.5637803999998141,['n'],0.9922413000022061,1.8,1216.197599900006,,,,,511,19,Woman,Right,
,,,,,,,,,,,,,,,,,511,19,Woman,Right,1,71,0.15,2,180,0,0,1.3322554000042146,['y'],0.9371520999993663,1.8,1221.4473483000038,,,,,511,19,Woman,Right,
,,,,,,,,,,,,,,,,,511,19,Woman,Right,1,35,0.4,2,180,0,0,0.35052770000038436,['y'],1.1414167000039015,2.0,1226.2471251000024,,,,,511,19,Woman,Right,
,,,,,,,,,,,,,,,,,511,19,Woman,Right,1,7,1,2,180,0,0,0.2911393999966094,['y'],0.947377399999823,1.992,1230.264359300003,,,,,511,19,Woman,Right,
,,,,,,,,,,,,,,,,,511,19,Woman,Right,1,16,0.4,1,0,-,0,0.5790606000009575,['y'],1.3464488000026904,1.3780000000000001,1235.3806488000046,,,,,511,19,Woman,Right,
,,,,,,,,,,,,,,,,,511,19,Woman,Right,1,41,0.4,2,0,180,180,0.34760210000240477,['y'],0.9069797999982256,1.93,1239.647160600005,,,,,511,19,Woman,Right,
,,,,,,,,,,,,,,,,,511,19,Woman,Right,1,49,0.15,2,0,180,180,1.4906907999975374,['y'],2.860254699997313,1.822,1246.8137499000004,,,,,511,19,Woman,Right,
,,,,,,,,,,,,,,,,,511,19,Woman,Right,1,40,0.4,1,0,-,0,0.6939147000011872,['n'],1.5011295999938739,1.834,1251.6308141000045,,,,,511,19,Woman,Right,
,,,,,,,,,,,,,,,,,511,19,Woman,Right,2,47,0.15,2,180,0,180,0.36588669999764534,['y'],1.1207569999969564,1.696,1274.6136227000025,68.75,45.0,90.0,,511,19,Woman,Right,
,,,,,,,,,,,,,,,,,511,19,Woman,Right,2,40,0.4,1,0,-,0,0.07616089999646647,['y'],1.1924318000019412,1.694,1278.1969616999995,,,,,511,19,Woman,Right,
,,,,,,,,,,,,,,,,,511,19,Woman,Right,2,54,0.15,1,180,-,180,0.36399119999987306,['n'],0.9616775999966194,1.694,1281.9142348000023,,,,,511,19,Woman,Right,
,,,,,,,,,,,,,,,,,511,19,Woman,Right,2,57,0.15,2,0,180,180,0.6667206999991322,['n'],0.667746500002977,1.88,1285.7974443999992,,,,,511,19,Woman,Right,
,,,,,,,,,,,,,,,,,511,19,Woman,Right,2,75,0.15,2,180,0,180,1.4591007999988506,['y'],0.8985651999973925,1.8900000000000001,1290.3972874000028,,,,,511,19,Woman,Right,
,,,,,,,,,,,,,,,,,511,19,Woman,Right,2,7,1,2,180,0,0,0.20031160000507953,['y'],0.9879543999995803,1.924,1293.9640412000008,,,,,511,19,Woman,Right,
,,,,,,,,,,,,,,,,,511,19,Woman,Right,2,56,0.15,1,0,-,180,0.37179180000384804,['n'],0.8915902000007918,1.924,1293.9640412000008,,,,,511,19,Woman,Right,
,,,,,,,,,,,,,,,,,511,19,Woman,Right,2,71,0.15,2,180,0,0,0.19581399999879068,['y'],0.9961152000032598,1.616,1301.8138770000005,,,,,511,19,Woman,Right,
,,,,,,,,,,,,,,,,,511,19,Woman,Right,2,68,0.15,1,0,-,0,0.3699564000053215,['y'],2.4127527000018745,1.6139999999999999,1307.213857200004,,,,,511,19,Woman,Right,
,,,,,,,,,,,,,,,,,511,19,Woman,Right,2,16,0.4,1,0,-,0,0.5312549999944167,['n'],0.6216608000031556,1.6139999999999999,1310.8971100000053,,,,,511,19,Woman,Right,
,,,,,,,,,,,,,,,,,511,19,Woman,Right,2,41,0.4,2,0,180,180,0.382177599996794,['y'],0.822098199998436,1.8900000000000001,1314.6970641000007,,,,,511,19,Woman,Right,
,,,,,,,,,,,,,,,,,511,19,Woman,Right,2,30,0.4,1,180,-,180,0.9325606999991578,['y'],2.126509299996542,1.232,1321.9470428000059,,,,,511,19,Woman,Right,
,,,,,,,,,,,,,,,,,511,19,Woman,Right,2,11,0.4,2,180,0,0,0.17505220000020927,['y'],0.9193355999959749,1.9020000000000001,1325.697073000003,,,,,511,19,Woman,Right,
,,,,,,,,,,,,,,,,,511,19,Woman,Right,2,9,0.4,2,0,180,180,0.31863570000132313,['y'],0.9201007000010577,1.9,1329.397383800002,,,,,511,19,Woman,Right,
,,,,,,,,,,,,,,,,,511,19,Woman,Right,2,51,0.15,2,180,0,0,0.24887489999673562,['y'],1.1366665000023204,1.8599999999999999,1333.3303169000064,,,,,511,19,Woman,Right,
,,,,,,,,,,,,,,,,,511,19,Woman,Right,2,26,0.4,1,180,-,0,0.2674687000035192,['n'],1.0491652999990038,1.8599999999999999,1336.8805209000056,,,,,511,19,Woman,Right,
,,,,,,,,,,,,,,,,,511,19,Woman,Right,2,52,0.15,1,0,-,180,0.37242990000231657,['n'],0.6892838999992819,1.858,1340.2971905000013,,,,,511,19,Woman,Right,
,,,,,,,,,,,,,,,,,511,19,Woman,Right,2,77,0.15,2,0,180,0,0.18340159999934258,['n'],0.9700815999967745,1.858,1343.6803172,,,,,511,19,Woman,Right,
,,,,,,,,,,,,,,,,,511,19,Woman,Right,2,38,0.4,1,180,-,180,0.08691560000443133,['y'],0.8825251000016578,1.858,1346.9636524000016,,,,,511,19,Woman,Right,
,,,,,,,,,,,,,,,,,511,19,Woman,Right,2,22,0.4,1,180,-,180,0.6489702000035322,['n'],1.2989551999999094,1.858,1351.363742900001,,,,,511,19,Woman,Right,
,,,,,,,,,,,,,,,,,511,19,Woman,Right,2,67,0.15,2,180,0,0,0.3271686000007321,['y'],2.731420399999479,1.854,1356.7971765000038,,,,,511,19,Woman,Right,
,,,,,,,,,,,,,,,,,511,19,Woman,Right,2,28,0.4,1,0,-,0,0.5371149999991758,['n'],1.4841440000018338,1.832,1361.8301278,,,,,511,19,Woman,Right,
,,,,,,,,,,,,,,,,,511,19,Woman,Right,2,13,0.4,2,0,180,180,0.48256839999521617,['y'],0.908609099999012,1.838,1365.8801722999997,,,,,511,19,Woman,Right,
,,,,,,,,,,,,,,,,,511,19,Woman,Right,2,45,0.15,2,0,180,0,0.4848528000002261,['n'],0.7327871000015875,1.84,1369.513396500006,,,,,511,19,Woman,Right,
,,,,,,,,,,,,,,,,,511,19,Woman,Right,2,35,0.4,2,180,0,0,0.3734265000020969,['y'],0.8693739000009373,1.84,1373.046853300002,,,,,511,19,Woman,Right,
,,,,,,,,,,,,,,,,,511,19,Woman,Right,2,69,0.15,2,0,180,180,0.9537130000026082,['n'],0.6862222999989172,1.5859999999999999,1378.7966637999998,,,,,511,19,Woman,Right,
,,,,,,,,,,,,,,,,,511,19,Woman,Right,2,79,0.15,2,180,0,180,1.6928723999953945,['n'],1.3916451999975834,1.608,1384.4139228000058,,,,,511,19,Woman,Right,
,,,,,,,,,,,,,,,,,511,19,Woman,Right,2,17,0.4,2,0,180,180,0.40927779999765335,['y'],0.8795436000000336,1.81,1388.4142049000002,,,,,511,19,Woman,Right,
,,,,,,,,,,,,,,,,,511,19,Woman,Right,2,70,0.15,1,180,-,0,0.2928458000023966,['y'],1.023782799995388,1.81,1391.8641913000029,,,,,511,19,Woman,Right,
,,,,,,,,,,,,,,,,,511,19,Woman,Right,2,2,1,1,180,-,180,1.544278099994699,['y'],1.3851289000012912,1.81,1397.080204400001,,,,,511,19,Woman,Right,
,,,,,,,,,,,,,,,,,511,19,Woman,Right,2,73,0.15,2,0,180,180,2.927393199999642,['y'],1.7135179000033531,1.808,1404.596731000005,,,,,511,19,Woman,Right,
,,,,,,,,,,,,,,,,,511,19,Woman,Right,2,25,0.4,2,0,180,180,1.500903100000869,['y'],0.6741876000014599,1.828,1409.8135315000036,,,,,511,19,Woman,Right,
,,,,,,,,,,,,,,,,,511,19,Woman,Right,2,46,0.15,1,180,-,180,0.6111522999999579,['n'],0.7066515999977128,1.6280000000000001,1414.6299193000013,,,,,511,19,Woman,Right,
,,,,,,,,,,,,,,,,,511,19,Woman,Right,2,53,0.15,2,0,180,0,0.922015600001032,['n'],0.9395468000002438,1.432,1419.8980875000052,,,,,511,19,Woman,Right,
,,,,,,,,,,,,,,,,,511,19,Woman,Right,2,74,0.15,1,180,-,0,0.7310797000027378,['y'],1.2359906999990926,1.726,1424.6641928000026,,,,,511,19,Woman,Right,
,,,,,,,,,,,,,,,,,511,19,Woman,Right,2,1,1,2,0,180,180,0.6644451000029221,['y'],1.3576300999993691,1.726,1428.9634484000053,,,,,511,19,Woman,Right,
,,,,,,,,,,,,,,,,,511,19,Woman,Right,2,44,0.15,1,0,-,0,0.47427430000243476,['n'],0.6700364999996964,1.724,1432.3639189000023,,,,,511,19,Woman,Right,
,,,,,,,,,,,,,,,,,511,19,Woman,Right,2,60,0.15,1,0,-,180,0.42432069999631494,['n'],0.7583918000018457,1.724,1435.8298214000024,,,,,511,19,Woman,Right,
,,,,,,,,,,,,,,,,,511,19,Woman,Right,2,58,0.15,1,180,-,180,1.3204381999967154,['n'],0.8223300999961793,1.722,1440.5141452000025,,,,,511,19,Woman,Right,
,,,,,,,,,,,,,,,,,511,19,Woman,Right,2,48,0.15,1,0,-,0,1.7943025999993552,['n'],0.7914108999975724,1.944,1446.096501400003,,,,,511,19,Woman,Right,
,,,,,,,,,,,,,,,,,511,19,Woman,Right,2,63,0.15,2,180,0,0,1.647383000003174,['y'],1.5118078000014066,1.944,1451.5131259000045,,,,,511,19,Woman,Right,
,,,,,,,,,,,,,,,,,511,19,Woman,Right,2,78,0.15,1,180,-,180,0.4547216999999364,['y'],1.0317458999998053,1.93,1455.1471164000031,,,,,511,19,Woman,Right,
,,,,,,,,,,,,,,,,,511,19,Woman,Right,2,34,0.4,1,180,-,180,0.45794000000023516,['n'],1.1775820999973803,1.93,1459.5300171000054,,,,,511,19,Woman,Right,
,,,,,,,,,,,,,,,,,511,19,Woman,Right,2,31,0.4,2,180,0,0,0.5610913999989862,['y'],0.9857494999960181,1.93,1463.5136359000026,,,,,511,19,Woman,Right,
,,,,,,,,,,,,,,,,,511,19,Woman,Right,2,49,0.15,2,0,180,180,0.33359760000166716,['y'],1.1703273999955854,1.928,1467.596820800005,,,,,511,19,Woman,Right,
,,,,,,,,,,,,,,,,,511,19,Woman,Right,2,66,0.15,1,180,-,180,0.41927149999537505,['n'],1.290079300000798,1.992,1473.0473614000002,,,,,511,19,Woman,Right,
,,,,,,,,,,,,,,,,,511,19,Woman,Right,2,5,1,2,0,180,180,0.3491241000010632,['y'],0.8276114999971469,2.0,1478.4300402000008,,,,,511,19,Woman,Right,
,,,,,,,,,,,,,,,,,511,19,Woman,Right,2,8,0.4,1,0,-,0,0.6074564999944414,['n'],0.6441030999994837,1.418,1483.1796996000048,,,,,511,19,Woman,Right,
,,,,,,,,,,,,,,,,,511,19,Woman,Right,2,10,0.4,1,180,-,180,0.6338986999980989,['n'],0.9083444999996573,1.698,1488.4130407000048,,,,,511,19,Woman,Right,
,,,,,,,,,,,,,,,,,511,19,Woman,Right,2,59,0.15,2,180,0,180,0.4328436999931,['n'],1.021166300000914,1.5939999999999999,1493.280602800005,,,,,511,19,Woman,Right,
,,,,,,,,,,,,,,,,,511,19,Woman,Right,2,6,1,1,180,-,180,1.5803471000035643,['y'],1.2065942999979598,1.596,1498.5307394000047,,,,,511,19,Woman,Right,
,,,,,,,,,,,,,,,,,511,19,Woman,Right,2,12,0.4,1,0,-,0,0.4304785999993328,['n'],0.9258860999980243,1.8860000000000001,1503.7471684000047,,,,,511,19,Woman,Right,
,,,,,,,,,,,,,,,,,511,19,Woman,Right,2,4,1,1,0,-,0,0.3575916000045254,['y'],1.5436200000040117,1.88,1508.0636460000023,,,,,511,19,Woman,Right,
,,,,,,,,,,,,,,,,,511,19,Woman,Right,2,29,0.4,2,0,180,180,0.8313148000015644,['y'],1.063647499999206,1.8679999999999999,1512.3636402000047,,,,,511,19,Woman,Right,
,,,,,,,,,,,,,,,,,511,19,Woman,Right,2,50,0.15,1,180,-,180,0.3831385000012233,['n'],0.5767854000005173,1.866,1516.5804436000035,,,,,511,19,Woman,Right,
,,,,,,,,,,,,,,,,,511,19,Woman,Right,2,23,0.4,2,180,0,0,0.43592350000108127,['y'],0.8489579999950365,1.988,1521.4969683000018,,,,,511,19,Woman,Right,
,,,,,,,,,,,,,,,,,511,19,Woman,Right,2,14,0.4,1,180,-,180,0.3332259000017075,['n'],1.307825399999274,1.424,1526.4971360000054,,,,,511,19,Woman,Right,
,,,,,,,,,,,,,,,,,511,19,Woman,Right,2,39,0.4,2,180,0,0,0.2872547000006307,['y'],0.9469304000012926,1.942,1530.6295893999995,,,,,511,19,Woman,Right,
,,,,,,,,,,,,,,,,,511,19,Woman,Right,2,20,0.4,1,0,-,0,0.3670008000044618,['n'],0.8187993000028655,1.8679999999999999,1534.2301961000048,,,,,511,19,Woman,Right,
,,,,,,,,,,,,,,,,,511,19,Woman,Right,2,33,0.4,2,0,180,180,0.29245289999380475,['y'],1.0593633000025875,1.866,1538.2294892999998,,,,,511,19,Woman,Right,
,,,,,,,,,,,,,,,,,511,19,Woman,Right,2,18,0.4,1,180,-,180,0.98884199999884,['n'],0.6843942999985302,1.564,1543.7629713999995,,,,,511,19,Woman,Right,
,,,,,,,,,,,,,,,,,511,19,Woman,Right,2,61,0.15,2,0,180,180,0.28821330000209855,['n'],2.1969209999952,1.624,1548.8462085000065,,,,,511,19,Woman,Right,
,,,,,,,,,,,,,,,,,511,19,Woman,Right,2,42,0.4,1,180,-,0,0.4903513999961433,['y'],0.7418851000038558,1.626,1552.846171600002,,,,,511,19,Woman,Right,
,,,,,,,,,,,,,,,,,511,19,Woman,Right,2,15,0.4,2,180,0,0,0.3513992999942275,['y'],0.8633966999987024,1.822,1556.629771,,,,,511,19,Woman,Right,
,,,,,,,,,,,,,,,,,511,19,Woman,Right,2,64,0.15,1,0,-,180,0.4661322999963886,['n'],0.8697956000032718,1.816,1560.446181600004,,,,,511,19,Woman,Right,
,,,,,,,,,,,,,,,,,511,19,Woman,Right,2,62,0.15,1,180,-,180,0.8913821000023745,['y'],2.487858500004222,1.068,1567.4967567999993,,,,,511,19,Woman,Right,
,,,,,,,,,,,,,,,,,511,19,Woman,Right,2,72,0.15,1,0,-,180,0.36138320000463864,['n'],1.0555319000050076,1.552,1571.8796111000047,,,,,511,19,Woman,Right,
,,,,,,,,,,,,,,,,,511,19,Woman,Right,2,65,0.15,2,0,180,180,0.2639061000008951,['n'],0.8314917999960016,1.828,1576.7632444000046,,,,,511,19,Woman,Right,
,,,,,,,,,,,,,,,,,511,19,Woman,Right,2,0,1,1,0,-,0,0.05125669999688398,['n'],0.86478960000386,1.914,1581.513458100002,,,,,511,19,Woman,Right,
,,,,,,,,,,,,,,,,,511,19,Woman,Right,2,21,0.4,2,0,180,180,0.317173700001149,['y'],0.8974643000037759,1.94,1585.6295864000058,,,,,511,19,Woman,Right,
,,,,,,,,,,,,,,,,,511,19,Woman,Right,2,37,0.4,2,0,180,180,0.29806969999481225,['y'],1.0827730000019073,1.998,1589.5460546000031,,,,,511,19,Woman,Right,
,,,,,,,,,,,,,,,,,511,19,Woman,Right,2,76,0.15,1,0,-,180,0.5319168999994872,['n'],0.8669086000008974,1.8679999999999999,1593.446691600002,,,,,511,19,Woman,Right,
,,,,,,,,,,,,,,,,,511,19,Woman,Right,2,43,0.4,2,180,0,0,0.261228299998038,['y'],0.9632741999957943,1.8599999999999999,1596.9970235,,,,,511,19,Woman,Right,
,,,,,,,,,,,,,,,,,511,19,Woman,Right,2,19,0.4,2,180,0,0,1.185246900000493,['y'],0.972510699997656,1.918,1602.2460911000016,,,,,511,19,Woman,Right,
,,,,,,,,,,,,,,,,,511,19,Woman,Right,2,27,0.4,2,180,0,0,0.1912025999990874,['y'],0.9486223999992944,1.952,1606.4800376000057,,,,,511,19,Woman,Right,
,,,,,,,,,,,,,,,,,511,19,Woman,Right,2,36,0.4,1,0,-,0,0.4812028000014834,['y'],1.6288733999972465,1.936,1610.779991000003,,,,,511,19,Woman,Right,
,,,,,,,,,,,,,,,,,511,19,Woman,Right,2,55,0.15,2,180,0,180,0.4102629999979399,['y'],0.8859003000034136,1.928,1614.2626684999996,,,,,511,19,Woman,Right,
,,,,,,,,,,,,,,,,,511,19,Woman,Right,2,3,1,2,180,0,0,0.6961293999993359,['y'],0.6224771999986842,1.982,1619.0133962000036,,,,,511,19,Woman,Right,
,,,,,,,,,,,,,,,,,511,19,Woman,Right,2,24,0.4,1,0,-,180,2.7147702000002027,['y'],0.9598410999969929,1.366,1626.2459617999993,,,,,511,19,Woman,Right,
,,,,,,,,,,,,,,,,,511,19,Woman,Right,2,32,0.4,1,0,-,0,0.8077319000003627,['y'],0.9523220000046422,1.738,1632.1300306000048,,,,,511,19,Woman,Right,
,,,,,,,,,,,,,,,,,511,19,Woman,Right,3,29,0.4,2,0,180,180,0.31166700000176206,['y'],0.8904747999986284,1.97,1649.4626035000038,76.25,62.5,77.5,,511,19,Woman,Right,
,,,,,,,,,,,,,,,,,511,19,Woman,Right,3,79,0.15,2,180,0,180,0.960832600001595,['y'],0.8824153000023216,1.968,1653.8298894000036,,,,,511,19,Woman,Right,
,,,,,,,,,,,,,,,,,511,19,Woman,Right,3,30,0.4,1,180,-,180,0.4822621999992407,['n'],1.1946959999986575,1.572,1658.5792124,,,,,511,19,Woman,Right,
,,,,,,,,,,,,,,,,,511,19,Woman,Right,3,3,1,2,180,0,0,0.2985229999976582,['y'],0.971144600000116,1.846,1662.5135295,,,,,511,19,Woman,Right,
,,,,,,,,,,,,,,,,,511,19,Woman,Right,3,70,0.15,1,180,-,0,0.4311862000031397,['y'],1.3490751000063028,1.846,1666.6125824000046,,,,,511,19,Woman,Right,
,,,,,,,,,,,,,,,,,511,19,Woman,Right,3,71,0.15,2,180,0,180,0.3069875000001048,['n'],0.9162644999960321,1.432,1670.629147700005,,,,,511,19,Woman,Right,
,,,,,,,,,,,,,,,,,511,19,Woman,Right,3,59,0.15,2,180,0,180,1.0244987000041874,['y'],2.8614850000012666,1.422,1678.3458044,,,,,511,19,Woman,Right,
,,,,,,,,,,,,,,,,,511,19,Woman,Right,3,46,0.15,1,180,-,180,0.1979471000013291,['y'],0.7824497000037809,1.658,1681.9970930000054,,,,,511,19,Woman,Right,
,,,,,,,,,,,,,,,,,511,19,Woman,Right,3,16,0.4,1,0,-,0,0.20466780000424478,['n'],1.4877133999980288,1.562,1687.8127309000047,,,,,511,19,Woman,Right,
,,,,,,,,,,,,,,,,,511,19,Woman,Right,3,72,0.15,1,0,-,0,0.9956963999939035,['n'],1.8326164000027347,1.566,1693.1457494999995,,,,,511,19,Woman,Right,
,,,,,,,,,,,,,,,,,511,19,Woman,Right,3,77,0.15,2,0,180,0,1.5628833999944618,['y'],1.4170621000012034,1.62,1698.7802788000045,,,,,511,19,Woman,Right,
,,,,,,,,,,,,,,,,,511,19,Woman,Right,3,74,0.15,1,180,-,180,1.269057100005739,['y'],0.5696219000019482,1.658,1703.1963462999993,,,,,511,19,Woman,Right,
,,,,,,,,,,,,,,,,,511,19,Woman,Right,3,24,0.4,1,0,-,0,1.0857300000061514,['n'],0.3538245999952778,1.698,1707.212352100003,,,,,511,19,Woman,Right,
,,,,,,,,,,,,,,,,,511,19,Woman,Right,3,5,1,2,0,180,180,1.1728876999986824,['y'],0.9785268999985419,1.704,1711.7956833999997,,,,,511,19,Woman,Right,
,,,,,,,,,,,,,,,,,511,19,Woman,Right,3,61,0.15,2,0,180,0,0.42152960000385065,['y'],1.210473399994953,1.8780000000000001,1716.196563700003,,,,,511,19,Woman,Right,
,,,,,,,,,,,,,,,,,511,19,Woman,Right,3,35,0.4,2,180,0,0,0.7565897999957087,['y'],1.0039085000025807,1.8780000000000001,1720.1963757000049,,,,,511,19,Woman,Right,
,,,,,,,,,,,,,,,,,511,19,Woman,Right,3,66,0.15,1,180,-,180,0.3205138000048464,['y'],0.836636300002283,1.8780000000000001,1723.6790892000063,,,,,511,19,Woman,Right,
,,,,,,,,,,,,,,,,,511,19,Woman,Right,3,76,0.15,1,0,-,0,0.6160779000056209,['n'],0.8458146000048146,1.8780000000000001,1727.5299312999996,,,,,511,19,Woman,Right,
,,,,,,,,,,,,,,,,,511,19,Woman,Right,3,19,0.4,2,180,0,0,0.5234670999998343,['y'],0.7892640999998548,1.876,1731.179016400005,,,,,511,19,Woman,Right,
,,,,,,,,,,,,,,,,,511,19,Woman,Right,3,78,0.15,1,180,-,180,0.30465969999931986,['n'],1.0061373999997159,1.5819999999999999,1735.5301991000015,,,,,511,19,Woman,Right,
,,,,,,,,,,,,,,,,,511,19,Woman,Right,3,64,0.15,1,0,-,0,0.6173981999963871,['n'],1.0695003000000725,1.6480000000000001,1739.7462860000014,,,,,511,19,Woman,Right,
,,,,,,,,,,,,,,,,,511,19,Woman,Right,3,28,0.4,1,0,-,0,0.36266570000589127,['y'],1.342678300003172,1.772,1744.446297100003,,,,,511,19,Woman,Right,
,,,,,,,,,,,,,,,,,511,19,Woman,Right,3,4,1,1,0,-,0,0.43736770000396064,['y'],1.1274841999984346,1.774,1748.245719300001,,,,,511,19,Woman,Right,
,,,,,,,,,,,,,,,,,511,19,Woman,Right,3,49,0.15,2,0,180,0,1.1522784999979194,['n'],0.7282082000019727,1.764,1752.3956543000022,,,,,511,19,Woman,Right,
,,,,,,,,,,,,,,,,,511,19,Woman,Right,3,40,0.4,1,0,-,0,0.4243806000013137,['y'],1.2884670999992522,1.762,1756.6124666000032,,,,,511,19,Woman,Right,
,,,,,,,,,,,,,,,,,511,19,Woman,Right,3,75,0.15,2,180,0,0,0.7985473999942769,['y'],0.7769588000010117,1.764,1761.3289900000018,,,,,511,19,Woman,Right,
,,,,,,,,,,,,,,,,,511,19,Woman,Right,3,65,0.15,2,0,180,180,0.25548390000039944,['n'],2.177906400000211,1.3439999999999999,1768.4290527000048,,,,,511,19,Woman,Right,
,,,,,,,,,,,,,,,,,511,19,Woman,Right,3,34,0.4,1,180,-,180,0.4707404999935534,['n'],0.8664857000039774,1.654,1772.8288657000012,,,,,511,19,Woman,Right,
,,,,,,,,,,,,,,,,,511,19,Woman,Right,3,10,0.4,1,180,-,180,0.3629018999999971,['n'],1.1870965999987675,1.654,1777.1121869000053,,,,,511,19,Woman,Right,
,,,,,,,,,,,,,,,,,511,19,Woman,Right,3,56,0.15,1,0,-,0,0.2535303000040585,['n'],2.187356099995668,1.678,1782.5296057000014,,,,,511,19,Woman,Right,
,,,,,,,,,,,,,,,,,511,19,Woman,Right,3,51,0.15,2,180,0,0,0.5505440999986604,['y'],2.2124784999978147,1.6560000000000001,1787.8297325000021,,,,,511,19,Woman,Right,
,,,,,,,,,,,,,,,,,511,19,Woman,Right,3,18,0.4,1,180,-,180,0.10158190000220202,['n'],1.700489299997571,1.6560000000000001,1792.6294832999993,,,,,511,19,Woman,Right,
,,,,,,,,,,,,,,,,,511,19,Woman,Right,3,6,1,1,180,-,180,1.1158196000033058,['n'],1.1651654999950551,1.6560000000000001,1797.3965939000045,,,,,511,19,Woman,Right,
,,,,,,,,,,,,,,,,,511,19,Woman,Right,3,38,0.4,1,180,-,180,0.36198419999709586,['n'],0.7976007999968715,1.682,1801.0621528000047,,,,,511,19,Woman,Right,
,,,,,,,,,,,,,,,,,511,19,Woman,Right,3,12,0.4,1,0,-,0,0.06424510000215378,['n'],1.1987482000040472,1.81,1804.8806255000018,,,,,511,19,Woman,Right,
,,,,,,,,,,,,,,,,,511,19,Woman,Right,3,32,0.4,1,0,-,0,0.3720422999977018,['n'],0.9267766999982996,1.858,1808.5959430000003,,,,,511,19,Woman,Right,
,,,,,,,,,,,,,,,,,511,19,Woman,Right,3,36,0.4,1,0,-,0,0.21059059999970486,['n'],0.9677563000004739,1.874,1812.2128257000004,,,,,511,19,Woman,Right,
,,,,,,,,,,,,,,,,,511,19,Woman,Right,3,9,0.4,2,0,180,180,0.7174745000011171,['y'],0.8645610000021406,1.88,1816.0462153000044,,,,,511,19,Woman,Right,
,,,,,,,,,,,,,,,,,511,19,Woman,Right,3,8,0.4,1,0,-,0,0.449461699994572,['n'],0.8405319000012241,1.8559999999999999,1819.5120868000013,,,,,511,19,Woman,Right,
,,,,,,,,,,,,,,,,,511,19,Woman,Right,3,39,0.4,2,180,0,180,0.0636744000003091,['y'],1.5532941999990726,1.8719999999999999,1823.7957707000023,,,,,511,19,Woman,Right,
,,,,,,,,,,,,,,,,,511,19,Woman,Right,3,53,0.15,2,0,180,0,1.2848030000022845,['y'],1.4984106000047177,1.366,1830.7461709000054,,,,,511,19,Woman,Right,
,,,,,,,,,,,,,,,,,511,19,Woman,Right,3,50,0.15,1,180,-,0,0.6710240999964299,['y'],1.0436071000003722,1.6600000000000001,1835.3460216000021,,,,,511,19,Woman,Right,
,,,,,,,,,,,,,,,,,511,19,Woman,Right,3,37,0.4,2,0,180,180,0.2636324999984936,['y'],0.8191841000007116,1.77,1839.4120210000037,,,,,511,19,Woman,Right,
,,,,,,,,,,,,,,,,,511,19,Woman,Right,3,58,0.15,1,180,-,0,1.0368211000022711,['y'],1.9569438999969861,1.938,1845.0793709999998,,,,,511,19,Woman,Right,
,,,,,,,,,,,,,,,,,511,19,Woman,Right,3,60,0.15,1,0,-,180,0.3051186000011512,['y'],1.3401434999977937,1.57,1849.5959931000034,,,,,511,19,Woman,Right,
,,,,,,,,,,,,,,,,,511,19,Woman,Right,3,22,0.4,1,180,-,180,1.4679792999959318,['y'],1.1176517999992939,1.79,1854.795308700006,,,,,511,19,Woman,Right,
,,,,,,,,,,,,,,,,,511,19,Woman,Right,3,55,0.15,2,180,0,0,0.4377036000005319,['y'],1.7500665999978082,1.772,1859.9460246000017,,,,,511,19,Woman,Right,
,,,,,,,,,,,,,,,,,511,19,Woman,Right,3,20,0.4,1,0,-,0,0.3850919000033173,['n'],0.98246150000341,1.774,1863.3959364000038,,,,,511,19,Woman,Right,
,,,,,,,,,,,,,,,,,511,19,Woman,Right,3,69,0.15,2,0,180,180,0.46140100000047823,['y'],3.087984800004051,1.714,1869.9793155000007,,,,,511,19,Woman,Right,
,,,,,,,,,,,,,,,,,511,19,Woman,Right,3,41,0.4,2,0,180,180,0.5841425000035088,['y'],0.76784459999908,1.716,1873.6619827000031,,,,,511,19,Woman,Right,
,,,,,,,,,,,,,,,,,511,19,Woman,Right,3,43,0.4,2,180,0,0,0.13051529999938793,['y'],0.9604409000021406,1.8940000000000001,1877.245279900002,,,,,511,19,Woman,Right,
,,,,,,,,,,,,,,,,,511,19,Woman,Right,3,2,1,1,180,-,180,1.899086500001431,['n'],2.313410399998247,1.93,1884.2463967000003,,,,,511,19,Woman,Right,
,,,,,,,,,,,,,,,,,511,19,Woman,Right,3,67,0.15,2,180,0,0,0.8853501999983564,['y'],0.8342728999996325,1.922,1890.1118741000028,,,,,511,19,Woman,Right,
,,,,,,,,,,,,,,,,,511,19,Woman,Right,3,25,0.4,2,0,180,180,0.26011599999765167,['y'],0.9153316000010818,1.954,1894.0119718999995,,,,,511,19,Woman,Right,
,,,,,,,,,,,,,,,,,511,19,Woman,Right,3,73,0.15,2,0,180,180,1.8039990999968722,['y'],0.9879923000044073,1.94,1899.2295032000038,,,,,511,19,Woman,Right,
,,,,,,,,,,,,,,,,,511,19,Woman,Right,3,47,0.15,2,180,0,180,1.2921493999965605,['y'],1.091593199998897,1.936,1903.811807900005,,,,,511,19,Woman,Right,
,,,,,,,,,,,,,,,,,511,19,Woman,Right,3,17,0.4,2,0,180,0,0.07164040000498062,['y'],1.8281122999978834,1.854,1909.5618590000013,,,,,511,19,Woman,Right,
,,,,,,,,,,,,,,,,,511,19,Woman,Right,3,14,0.4,1,180,-,0,1.4531253999957698,['y'],1.2700662999995984,1.6320000000000001,1915.5958935000017,,,,,511,19,Woman,Right,
,,,,,,,,,,,,,,,,,511,19,Woman,Right,3,1,1,2,0,180,180,0.21997189999819966,['y'],1.0860408000007737,1.942,1920.511832600001,,,,,511,19,Woman,Right,
,,,,,,,,,,,,,,,,,511,19,Woman,Right,3,27,0.4,2,180,0,0,0.42567289999715285,['y'],1.606555300000764,1.9020000000000001,1925.261816600003,,,,,511,19,Woman,Right,
,,,,,,,,,,,,,,,,,511,19,Woman,Right,3,15,0.4,2,180,0,0,0.20502639999904204,['y'],0.9191980000032345,1.958,1930.0457939000044,,,,,511,19,Woman,Right,
,,,,,,,,,,,,,,,,,511,19,Woman,Right,3,13,0.4,2,0,180,180,0.34109790000366047,['y'],1.0715799999961746,1.944,1933.9951426000043,,,,,511,19,Woman,Right,
,,,,,,,,,,,,,,,,,511,19,Woman,Right,3,11,0.4,2,180,0,0,0.14284130000305595,['y'],0.8804476000004797,1.85,1937.5627367000052,,,,,511,19,Woman,Right,
,,,,,,,,,,,,,,,,,511,19,Woman,Right,3,48,0.15,1,0,-,0,1.0845969000001787,['y'],1.4572780000016792,1.88,1942.912769100003,,,,,511,19,Woman,Right,
,,,,,,,,,,,,,,,,,511,19,Woman,Right,3,52,0.15,1,0,-,0,0.46608869999909075,['y'],2.249481499995454,1.8900000000000001,1948.0450885000027,,,,,511,19,Woman,Right,
,,,,,,,,,,,,,,,,,511,19,Woman,Right,3,33,0.4,2,0,180,180,0.3209179000041331,['y'],0.786309800001618,1.888,1951.7117192000005,,,,,511,19,Woman,Right,
,,,,,,,,,,,,,,,,,511,19,Woman,Right,3,0,1,1,0,-,0,0.5019635999997263,['n'],0.8508218999995734,1.976,1955.7461022000061,,,,,511,19,Woman,Right,
,,,,,,,,,,,,,,,,,511,19,Woman,Right,3,62,0.15,1,180,-,180,0.6380704999974114,['n'],1.3552382000052603,1.946,1960.2284760000039,,,,,511,19,Woman,Right,
,,,,,,,,,,,,,,,,,511,19,Woman,Right,3,63,0.15,2,180,0,180,0.8906626000025426,['y'],1.5163504000011017,1.938,1965.0452592000001,,,,,511,19,Woman,Right,
,,,,,,,,,,,,,,,,,511,19,Woman,Right,3,21,0.4,2,0,180,180,0.5214654999945196,['y'],1.2448331999985385,1.956,1969.2617114000022,,,,,511,19,Woman,Right,
,,,,,,,,,,,,,,,,,511,19,Woman,Right,3,7,1,2,180,0,0,0.3980673999976716,['y'],0.7486477999991621,1.978,1972.8449693000002,,,,,511,19,Woman,Right,
,,,,,,,,,,,,,,,,,511,19,Woman,Right,3,57,0.15,2,0,180,180,0.3620307999954093,['y'],1.2371295999982976,1.972,1976.8115988999998,,,,,511,19,Woman,Right,
,,,,,,,,,,,,,,,,,511,19,Woman,Right,3,44,0.15,1,0,-,180,0.4857153999982984,['n'],1.1830926999973599,1.97,1980.6116253,,,,,511,19,Woman,Right,
,,,,,,,,,,,,,,,,,511,19,Woman,Right,3,31,0.4,2,180,0,0,0.44829359999857843,['y'],1.126404000002367,1.972,1984.9117765000046,,,,,511,19,Woman,Right,
,,,,,,,,,,,,,,,,,511,19,Woman,Right,3,68,0.15,1,0,-,0,0.34688180000375723,['y'],1.782424799996079,1.988,1989.4126902000062,,,,,511,19,Woman,Right,
,,,,,,,,,,,,,,,,,511,19,Woman,Right,3,26,0.4,1,180,-,0,0.4809531999999308,['y'],1.856360500001756,1.99,1994.8115643000056,,,,,511,19,Woman,Right,
,,,,,,,,,,,,,,,,,511,19,Woman,Right,3,54,0.15,1,180,-,180,0.39622899999812944,['y'],1.097095299999637,1.978,1998.7456463000053,,,,,511,19,Woman,Right,
,,,,,,,,,,,,,,,,,511,19,Woman,Right,3,42,0.4,1,180,-,180,0.6708061000026646,['y'],0.9612853999933577,1.992,2002.7282680000062,,,,,511,19,Woman,Right,
,,,,,,,,,,,,,,,,,511,19,Woman,Right,3,23,0.4,2,180,0,0,0.5439267999972799,['y'],0.9938148999935947,1.982,2006.7115226000024,,,,,511,19,Woman,Right,
,,,,,,,,,,,,,,,,,511,19,Woman,Right,3,45,0.15,2,0,180,0,1.233568199997535,['y'],1.2828026999995927,1.342,2013.2114935000063,,,,,511,19,Woman,Right,
,,,,,,,,,,,,,,,,,511,19,Woman,Right,4,27,0.4,2,180,0,0,0.33809240000118734,['y'],0.996465199998056,1.82,2030.9614963000058,76.25,55.0,92.5,,511,19,Woman,Right,
,,,,,,,,,,,,,,,,,511,19,Woman,Right,4,24,0.4,1,0,-,0,0.39002009999967413,['n'],0.8529045000032056,1.822,2034.7788811000064,,,,,511,19,Woman,Right,
,,,,,,,,,,,,,,,,,511,19,Woman,Right,4,70,0.15,1,180,-,180,0.28631789999781176,['y'],1.085834600002272,1.6139999999999999,2040.5955829000013,,,,,511,19,Woman,Right,
,,,,,,,,,,,,,,,,,511,19,Woman,Right,4,58,0.15,1,180,-,180,0.333554799995909,['n'],1.294918300001882,1.674,2044.7948200000028,,,,,511,19,Woman,Right,
,,,,,,,,,,,,,,,,,511,19,Woman,Right,4,71,0.15,2,180,0,0,0.7256970000016736,['y'],0.5195457999943756,1.676,2048.5780968000036,,,,,511,19,Woman,Right,
,,,,,,,,,,,,,,,,,511,19,Woman,Right,4,33,0.4,2,0,180,180,0.3095902999993996,['y'],0.79270859999815,1.832,2052.145361300005,,,,,511,19,Woman,Right,
,,,,,,,,,,,,,,,,,511,19,Woman,Right,4,14,0.4,1,180,-,180,0.7114531999977771,['n'],1.073192600000766,1.8479999999999999,2056.228513300004,,,,,511,19,Woman,Right,
,,,,,,,,,,,,,,,,,511,19,Woman,Right,4,65,0.15,2,0,180,0,0.37040960000013,['n'],1.3692864000040572,1.8479999999999999,2060.3288044,,,,,511,19,Woman,Right,
,,,,,,,,,,,,,,,,,511,19,Woman,Right,4,7,1,2,180,0,0,0.2482148999988567,['y'],0.7932788999969489,1.8479999999999999,2063.644725900005,,,,,511,19,Woman,Right,
,,,,,,,,,,,,,,,,,511,19,Woman,Right,4,44,0.15,1,0,-,180,0.4829011000038008,['y'],0.8017500999994809,1.994,2067.628058100003,,,,,511,19,Woman,Right,
,,,,,,,,,,,,,,,,,511,19,Woman,Right,4,3,1,2,180,0,0,0.2357888999977149,['y'],0.7875045000037062,1.992,2071.728146900001,,,,,511,19,Woman,Right,
,,,,,,,,,,,,,,,,,511,19,Woman,Right,4,40,0.4,1,0,-,180,0.5033772000024328,['y'],0.9712595999953919,1.408,2076.2953718000063,,,,,511,19,Woman,Right,
,,,,,,,,,,,,,,,,,511,19,Woman,Right,4,29,0.4,2,0,180,180,0.26473450000048615,['y'],1.2831119000038598,1.69,2080.445373200004,,,,,511,19,Woman,Right,
,,,,,,,,,,,,,,,,,511,19,Woman,Right,4,12,0.4,1,0,-,0,0.8523686999978963,['y'],0.9566330000016023,1.862,2084.595374800003,,,,,511,19,Woman,Right,
,,,,,,,,,,,,,,,,,511,19,Woman,Right,4,54,0.15,1,180,-,0,2.5397020999953384,['n'],1.3087765000018408,1.862,2090.861363600001,,,,,511,19,Woman,Right,
,,,,,,,,,,,,,,,,,511,19,Woman,Right,4,72,0.15,1,0,-,180,0.300594699998328,['n'],1.4851935999977286,1.8439999999999999,2095.011331900001,,,,,511,19,Woman,Right,
,,,,,,,,,,,,,,,,,511,19,Woman,Right,4,74,0.15,1,180,-,180,0.372366299998248,['y'],0.8293928999992204,1.8439999999999999,2099.0279192000016,,,,,511,19,Woman,Right,
,,,,,,,,,,,,,,,,,511,19,Woman,Right,4,15,0.4,2,180,0,0,0.284305500004848,['y'],1.2711355999999796,2.0,2103.1453278000045,,,,,511,19,Woman,Right,
,,,,,,,,,,,,,,,,,511,19,Woman,Right,4,13,0.4,2,0,180,180,0.2100152999992133,['y'],0.9351586999982828,1.984,2107.545336700001,,,,,511,19,Woman,Right,
,,,,,,,,,,,,,,,,,511,19,Woman,Right,4,60,0.15,1,0,-,0,1.5125805999996373,['n'],0.9122933999969973,1.6680000000000001,2112.761406800004,,,,,511,19,Woman,Right,
,,,,,,,,,,,,,,,,,511,19,Woman,Right,4,38,0.4,1,180,-,180,0.8535563999976148,['y'],1.4316620000026887,1.82,2117.644845200004,,,,,511,19,Woman,Right,
,,,,,,,,,,,,,,,,,511,19,Woman,Right,4,28,0.4,1,0,-,180,0.404293300001882,['y'],1.5843187999998918,1.842,2121.9780329999994,,,,,511,19,Woman,Right,
,,,,,,,,,,,,,,,,,511,19,Woman,Right,4,17,0.4,2,0,180,0,1.483025200002885,['y'],0.8959912999998778,1.8519999999999999,2126.6452658000053,,,,,511,19,Woman,Right,
,,,,,,,,,,,,,,,,,511,19,Woman,Right,4,46,0.15,1,180,-,0,0.9716741999945953,['y'],1.1382938000024296,1.8519999999999999,2131.444476800003,,,,,511,19,Woman,Right,
,,,,,,,,,,,,,,,,,511,19,Woman,Right,4,37,0.4,2,0,180,180,0.21643849999964004,['y'],0.9225095000001602,1.888,2135.2124317000053,,,,,511,19,Woman,Right,
,,,,,,,,,,,,,,,,,511,19,Woman,Right,4,11,0.4,2,180,0,0,0.17022870000073453,['y'],0.8590428000024986,1.988,2139.0285057,,,,,511,19,Woman,Right,
,,,,,,,,,,,,,,,,,511,19,Woman,Right,4,21,0.4,2,0,180,180,0.2352584000036586,['y'],0.8267712999950163,1.984,2142.5778471000012,,,,,511,19,Woman,Right,
,,,,,,,,,,,,,,,,,511,19,Woman,Right,4,19,0.4,2,180,0,0,0.28267369999957737,['y'],0.8207618999949773,1.984,2145.877827000004,,,,,511,19,Woman,Right,
,,,,,,,,,,,,,,,,,511,19,Woman,Right,4,43,0.4,2,180,0,0,0.2102383999954327,['y'],1.5486731999990297,1.944,2150.2952399999995,,,,,511,19,Woman,Right,
,,,,,,,,,,,,,,,,,511,19,Woman,Right,4,50,0.15,1,180,-,180,0.7063447000036831,['n'],1.1975998999987496,1.6400000000000001,2154.8613614999995,,,,,511,19,Woman,Right,
,,,,,,,,,,,,,,,,,511,19,Woman,Right,4,32,0.4,1,0,-,0,0.2985822000046028,['n'],0.7828004000039073,1.658,2158.244449100006,,,,,511,19,Woman,Right,
,,,,,,,,,,,,,,,,,511,19,Woman,Right,4,75,0.15,2,180,0,0,0.8320936000018264,['y'],1.1667520999981207,1.718,2162.778367500003,,,,,511,19,Woman,Right,
,,,,,,,,,,,,,,,,,511,19,Woman,Right,4,23,0.4,2,180,0,0,0.708556999998109,['y'],1.119088000006741,1.72,2166.961169500006,,,,,511,19,Woman,Right,
,,,,,,,,,,,,,,,,,511,19,Woman,Right,4,68,0.15,1,0,-,0,0.33292059999803314,['n'],1.624041600000055,1.718,2171.1944909000013,,,,,511,19,Woman,Right,
,,,,,,,,,,,,,,,,,511,19,Woman,Right,4,16,0.4,1,0,-,0,0.3050560999981826,['y'],1.4803691999986768,1.724,2175.3777128,,,,,511,19,Woman,Right,
,,,,,,,,,,,,,,,,,511,19,Woman,Right,4,34,0.4,1,180,-,180,1.5043958999958704,['y'],1.0322789999991073,1.744,2181.2110495000015,,,,,511,19,Woman,Right,
,,,,,,,,,,,,,,,,,511,19,Woman,Right,4,35,0.4,2,180,0,0,0.31645879999996396,['y'],0.8653592999980901,1.756,2184.6451216999994,,,,,511,19,Woman,Right,
,,,,,,,,,,,,,,,,,511,19,Woman,Right,4,18,0.4,1,180,-,180,1.417079399994691,['y'],0.9220339999956195,1.936,2189.4777675000005,,,,,511,19,Woman,Right,
,,,,,,,,,,,,,,,,,511,19,Woman,Right,4,56,0.15,1,0,-,0,0.7164302000019234,['n'],0.8983968000029563,1.366,2194.9950446000003,,,,,511,19,Woman,Right,
,,,,,,,,,,,,,,,,,511,19,Woman,Right,4,1,1,2,0,180,0,0.21285740000166697,['y'],2.1076659000027576,1.67,2200.128388500001,,,,,511,19,Woman,Right,
,,,,,,,,,,,,,,,,,511,19,Woman,Right,4,48,0.15,1,0,-,180,0.8909997999944608,['y'],0.875461899995571,1.748,2204.1284285,,,,,511,19,Woman,Right,
,,,,,,,,,,,,,,,,,511,19,Woman,Right,4,77,0.15,2,0,180,180,0.6790661000050022,['n'],0.8446044999946025,1.624,2208.744934000002,,,,,511,19,Woman,Right,
,,,,,,,,,,,,,,,,,511,19,Woman,Right,4,26,0.4,1,180,-,180,1.0243986999994377,['y'],1.2292067000016687,1.6560000000000001,2213.3942901000046,,,,,511,19,Woman,Right,
,,,,,,,,,,,,,,,,,511,19,Woman,Right,4,20,0.4,1,0,-,0,0.6159731999941869,['n'],0.9575631999978214,1.778,2217.3109455000013,,,,,511,19,Woman,Right,
,,,,,,,,,,,,,,,,,511,19,Woman,Right,4,8,0.4,1,0,-,0,0.3546247999984189,['n'],0.6465362000017194,1.776,2220.8442095000064,,,,,511,19,Woman,Right,
,,,,,,,,,,,,,,,,,511,19,Woman,Right,4,10,0.4,1,180,-,180,0.33319399999891175,['n'],0.9907069000037154,1.548,2226.6288938,,,,,511,19,Woman,Right,
,,,,,,,,,,,,,,,,,511,19,Woman,Right,4,57,0.15,2,0,180,180,1.2303444999997737,['y'],1.167732400004752,1.58,2231.894308300005,,,,,511,19,Woman,Right,
,,,,,,,,,,,,,,,,,511,19,Woman,Right,4,78,0.15,1,180,-,180,0.2603594000029261,['n'],0.8320986999970046,1.6139999999999999,2235.428251700003,,,,,511,19,Woman,Right,
,,,,,,,,,,,,,,,,,511,19,Woman,Right,4,9,0.4,2,0,180,180,0.7110256000014488,['y'],1.0250750000050175,1.634,2239.5608741000033,,,,,511,19,Woman,Right,
,,,,,,,,,,,,,,,,,511,19,Woman,Right,4,55,0.15,2,180,0,0,0.655810999996902,['y'],0.9128061000010348,1.6440000000000001,2243.478253400004,,,,,511,19,Woman,Right,
,,,,,,,,,,,,,,,,,511,19,Woman,Right,4,47,0.15,2,180,0,180,0.40016800000012154,['n'],0.9296947999973781,1.584,2247.6607759000035,,,,,511,19,Woman,Right,
,,,,,,,,,,,,,,,,,511,19,Woman,Right,4,66,0.15,1,180,-,180,0.49254949999885866,['n'],1.1383629999982077,1.626,2251.677701200002,,,,,511,19,Woman,Right,
,,,,,,,,,,,,,,,,,511,19,Woman,Right,4,39,0.4,2,180,0,0,0.3818764000025112,['y'],0.9144383000020753,1.726,2255.928705099999,,,,,511,19,Woman,Right,
,,,,,,,,,,,,,,,,,511,19,Woman,Right,4,76,0.15,1,0,-,0,1.6492360999982338,['n'],1.0119043000013335,1.72,2260.894437200004,,,,,511,19,Woman,Right,
,,,,,,,,,,,,,,,,,511,19,Woman,Right,4,64,0.15,1,0,-,180,1.690557699999772,['n'],1.3316905000028783,1.696,2266.7449563000046,,,,,511,19,Woman,Right,
,,,,,,,,,,,,,,,,,511,19,Woman,Right,4,31,0.4,2,180,0,0,0.1821325999990222,['y'],0.8928248000011081,1.774,2270.928140300006,,,,,511,19,Woman,Right,
,,,,,,,,,,,,,,,,,511,19,Woman,Right,4,53,0.15,2,0,180,180,0.41859789999580244,['n'],0.8376072000028216,1.434,2274.8108076999997,,,,,511,19,Woman,Right,
,,,,,,,,,,,,,,,,,511,19,Woman,Right,4,30,0.4,1,180,-,180,2.225888400003896,['y'],2.3496648000000278,1.672,2282.4946579000025,,,,,511,19,Woman,Right,
,,,,,,,,,,,,,,,,,511,19,Woman,Right,4,63,0.15,2,180,0,0,0.3181089999998221,['y'],0.8072859999956563,1.99,2287.7774038999996,,,,,511,19,Woman,Right,
,,,,,,,,,,,,,,,,,511,19,Woman,Right,4,79,0.15,2,180,0,0,0.5203801000025123,['y'],1.2153060999989975,1.6320000000000001,2292.828706100001,,,,,511,19,Woman,Right,
,,,,,,,,,,,,,,,,,511,19,Woman,Right,4,2,1,1,180,-,180,0.6069503999970038,['n'],0.735796399996616,1.718,2297.094811300005,,,,,511,19,Woman,Right,
,,,,,,,,,,,,,,,,,511,19,Woman,Right,4,25,0.4,2,0,180,180,0.7011682999946061,['y'],1.1205282000009902,1.862,2302.644920700004,,,,,511,19,Woman,Right,
,,,,,,,,,,,,,,,,,511,19,Woman,Right,4,51,0.15,2,180,0,0,0.9305497999957879,['y'],1.1294991000031587,1.8940000000000001,2307.1773379000006,,,,,511,19,Woman,Right,
,,,,,,,,,,,,,,,,,511,19,Woman,Right,4,62,0.15,1,180,-,180,1.3723460000037448,['n'],1.2181946999990032,1.726,2313.3448914000037,,,,,511,19,Woman,Right,
,,,,,,,,,,,,,,,,,511,19,Woman,Right,4,41,0.4,2,0,180,180,0.4062754999977187,['y'],0.8677379000000656,1.916,2319.544746600004,,,,,511,19,Woman,Right,
,,,,,,,,,,,,,,,,,511,19,Woman,Right,4,61,0.15,2,0,180,180,0.32977529999334365,['y'],0.8510361000007833,2.0,2323.0285150000054,,,,,511,19,Woman,Right,
,,,,,,,,,,,,,,,,,511,19,Woman,Right,4,73,0.15,2,0,180,180,0.7530861999985063,['y'],0.9160171999974409,1.596,2328.144316900005,,,,,511,19,Woman,Right,
,,,,,,,,,,,,,,,,,511,19,Woman,Right,4,22,0.4,1,180,-,180,0.6018228999964776,['y'],1.4924868000016431,1.786,2332.6107039000053,,,,,511,19,Woman,Right,
,,,,,,,,,,,,,,,,,511,19,Woman,Right,4,59,0.15,2,180,0,0,1.3680394999973942,['y'],0.957784600002924,1.796,2337.1447310000003,,,,,511,19,Woman,Right,
,,,,,,,,,,,,,,,,,511,19,Woman,Right,4,5,1,2,0,180,180,0.5197415000002366,['y'],0.7587913000024855,1.79,2340.743951100005,,,,,511,19,Woman,Right,
,,,,,,,,,,,,,,,,,511,19,Woman,Right,4,4,1,1,0,-,0,0.4867692999978317,['n'],0.8942098999978043,1.804,2344.4273432000045,,,,,511,19,Woman,Right,
,,,,,,,,,,,,,,,,,511,19,Woman,Right,4,49,0.15,2,0,180,180,0.3169578000015463,['y'],1.671088699993561,1.808,2349.0438947000002,,,,,511,19,Woman,Right,
,,,,,,,,,,,,,,,,,511,19,Woman,Right,4,45,0.15,2,0,180,180,0.9602162000010139,['n'],1.3042138000018895,1.754,2354.4273136000047,,,,,511,19,Woman,Right,
,,,,,,,,,,,,,,,,,511,19,Woman,Right,4,42,0.4,1,180,-,180,1.440211699999054,['y'],1.1530874999953085,1.958,2360.0279828000057,,,,,511,19,Woman,Right,
,,,,,,,,,,,,,,,,,511,19,Woman,Right,4,69,0.15,2,0,180,180,0.7435418999957619,['n'],0.8490652999971644,1.418,2364.7946967000025,,,,,511,19,Woman,Right,
,,,,,,,,,,,,,,,,,511,19,Woman,Right,4,0,1,1,0,-,0,0.20999160000064876,['n'],0.8095530999999028,1.936,2368.6939232000004,,,,,511,19,Woman,Right,
,,,,,,,,,,,,,,,,,511,19,Woman,Right,4,36,0.4,1,0,-,0,0.4502395000017714,['y'],1.8028438999972423,1.936,2373.294723400002,,,,,511,19,Woman,Right,
,,,,,,,,,,,,,,,,,511,19,Woman,Right,4,67,0.15,2,180,0,180,0.4543679999987944,['y'],1.2193292000010842,1.94,2377.3105509000015,,,,,511,19,Woman,Right,
,,,,,,,,,,,,,,,,,511,19,Woman,Right,4,52,0.15,1,0,-,0,1.1370715000011842,['y'],1.1716703999991296,1.944,2381.910588000006,,,,,511,19,Woman,Right,
,,,,,,,,,,,,,,,,,511,19,Woman,Right,4,6,1,1,180,-,180,0.32029640000109794,['n'],0.7078924999950686,1.6640000000000001,2385.8445587000024,,,,,511,19,Woman,Right,
,,,,,,,,,,,,,,,,,511,19,Woman,Right,5,1,1,2,0,180,180,0.719128600001568,['y'],0.9348042999990867,1.73,2404.0272413000057,83.75,55.0,85.0,,511,19,Woman,Right,
,,,,,,,,,,,,,,,,,511,19,Woman,Right,5,50,0.15,1,180,-,0,0.4687627000021166,['y'],1.1746312999966904,1.814,2408.428128200001,,,,,511,19,Woman,Right,
,,,,,,,,,,,,,,,,,511,19,Woman,Right,5,63,0.15,2,180,0,180,0.07495580000249902,['n'],0.8074797000008402,1.834,2411.4604139000003,,,,,511,19,Woman,Right,
,,,,,,,,,,,,,,,,,511,19,Woman,Right,5,43,0.4,2,180,0,0,0.280593499999668,['y'],0.9280926999999792,1.978,2415.2437391999993,,,,,511,19,Woman,Right,
,,,,,,,,,,,,,,,,,511,19,Woman,Right,5,37,0.4,2,0,180,180,0.37785739999526413,['y'],0.8248172000021441,1.99,2418.6451233000043,,,,,511,19,Woman,Right,
,,,,,,,,,,,,,,,,,511,19,Woman,Right,5,66,0.15,1,180,-,180,0.7080368999959319,['y'],0.8644018000049982,1.99,2422.3270254000017,,,,,511,19,Woman,Right,
,,,,,,,,,,,,,,,,,511,19,Woman,Right,5,64,0.15,1,0,-,0,0.4497220999983256,['n'],1.9410408000039752,1.6139999999999999,2427.7936878000037,,,,,511,19,Woman,Right,
,,,,,,,,,,,,,,,,,511,19,Woman,Right,5,31,0.4,2,180,0,0,0.10036859999672743,['y'],0.8579557999983081,1.842,2431.5611006000036,,,,,511,19,Woman,Right,
,,,,,,,,,,,,,,,,,511,19,Woman,Right,5,22,0.4,1,180,-,180,0.9982137000042712,['y'],0.7555700000011711,1.708,2436.1103963999994,,,,,511,19,Woman,Right,
,,,,,,,,,,,,,,,,,511,19,Woman,Right,5,47,0.15,2,180,0,0,0.5368421000021044,['y'],1.8438942000066163,1.704,2440.9103571000014,,,,,511,19,Woman,Right,
,,,,,,,,,,,,,,,,,511,19,Woman,Right,5,29,0.4,2,0,180,180,0.9819686999981059,['y'],1.9487093999996432,1.728,2446.8444036,,,,,511,19,Woman,Right,
,,,,,,,,,,,,,,,,,511,19,Woman,Right,5,79,0.15,2,180,0,0,0.27907100000447826,['y'],0.8121642999976757,1.742,2451.276882500002,,,,,511,19,Woman,Right,
,,,,,,,,,,,,,,,,,511,19,Woman,Right,5,45,0.15,2,0,180,180,1.4826857000007294,['y'],1.4775354000012157,1.742,2451.276882500002,,,,,511,19,Woman,Right,
,,,,,,,,,,,,,,,,,511,19,Woman,Right,5,76,0.15,1,0,-,0,0.28542900000320515,['y'],1.8698637999987113,1.642,2462.794575800006,,,,,511,19,Woman,Right,
,,,,,,,,,,,,,,,,,511,19,Woman,Right,5,11,0.4,2,180,0,0,0.3379429999986314,['y'],0.8789408999946318,1.854,2467.194017900001,,,,,511,19,Woman,Right,
,,,,,,,,,,,,,,,,,511,19,Woman,Right,5,27,0.4,2,180,0,0,0.3407004999971832,['y'],1.1991704999963986,1.866,2471.460507100004,,,,,511,19,Woman,Right,
,,,,,,,,,,,,,,,,,511,19,Woman,Right,5,39,0.4,2,180,0,0,0.2370167000044603,['y'],0.9197913999960292,1.8559999999999999,2474.694260300006,,,,,511,19,Woman,Right,
,,,,,,,,,,,,,,,,,511,19,Woman,Right,5,28,0.4,1,0,-,0,0.37449629999900935,['n'],0.7046369000017876,1.3820000000000001,2479.310519700004,,,,,511,19,Woman,Right,
,,,,,,,,,,,,,,,,,511,19,Woman,Right,5,70,0.15,1,180,-,180,2.118879100002232,['y'],1.0809975000011036,1.3820000000000001,2479.310519700004,,,,,511,19,Woman,Right,
,,,,,,,,,,,,,,,,,511,19,Woman,Right,5,3,1,2,180,0,0,0.20266809999884572,['y'],0.9704481000007945,1.826,2489.143651000006,,,,,511,19,Woman,Right,
,,,,,,,,,,,,,,,,,511,19,Woman,Right,5,38,0.4,1,180,-,180,1.6998368999993545,['n'],0.8808567999949446,1.532,2494.9601648000025,,,,,511,19,Woman,Right,
,,,,,,,,,,,,,,,,,511,19,Woman,Right,5,46,0.15,1,180,-,0,0.2539483000000473,['y'],0.9224767999985488,1.692,2498.760387000002,,,,,511,19,Woman,Right,
,,,,,,,,,,,,,,,,,511,19,Woman,Right,5,21,0.4,2,0,180,0,0.1909771999999066,['n'],1.7872534000052838,1.698,2505.3268035,,,,,511,19,Woman,Right,
,,,,,,,,,,,,,,,,,511,19,Woman,Right,5,73,0.15,2,0,180,0,0.23548460000165505,['y'],3.412621499999659,1.728,2511.3768608000028,,,,,511,19,Woman,Right,
,,,,,,,,,,,,,,,,,511,19,Woman,Right,5,54,0.15,1,180,-,180,1.10074380000151,['n'],1.1492863000021316,1.568,2517.360529800004,,,,,511,19,Woman,Right,
,,,,,,,,,,,,,,,,,511,19,Woman,Right,5,60,0.15,1,0,-,0,0.16752160000032745,['y'],1.1262509000007412,1.806,2521.3941364000057,,,,,511,19,Woman,Right,
,,,,,,,,,,,,,,,,,511,19,Woman,Right,5,14,0.4,1,180,-,180,1.1918813000011141,['n'],1.0549420000024838,1.82,2525.9269738000003,,,,,511,19,Woman,Right,
,,,,,,,,,,,,,,,,,511,19,Woman,Right,5,49,0.15,2,0,180,0,0.3952133999991929,['y'],1.5031109999981709,1.744,2530.5774781,,,,,511,19,Woman,Right,
,,,,,,,,,,,,,,,,,511,19,Woman,Right,5,35,0.4,2,180,0,0,0.3120459999990999,['y'],1.1115563999992446,1.792,2534.6433957000045,,,,,511,19,Woman,Right,
,,,,,,,,,,,,,,,,,511,19,Woman,Right,5,67,0.15,2,180,0,0,0.30784829999902286,['n'],1.232838999996602,1.72,2539.644359400001,,,,,511,19,Woman,Right,
,,,,,,,,,,,,,,,,,511,19,Woman,Right,5,13,0.4,2,0,180,180,0.4127516000007745,['y'],1.2171758000040427,1.692,2544.3440708000053,,,,,511,19,Woman,Right,
,,,,,,,,,,,,,,,,,511,19,Woman,Right,5,57,0.15,2,0,180,0,0.8938638000036008,['y'],3.498692699999083,1.674,2551.527905300005,,,,,511,19,Woman,Right,
,,,,,,,,,,,,,,,,,511,19,Woman,Right,5,53,0.15,2,0,180,180,1.324519000001601,['y'],0.682341699997778,1.8780000000000001,2556.260713800002,,,,,511,19,Woman,Right,
,,,,,,,,,,,,,,,,,511,19,Woman,Right,5,78,0.15,1,180,-,0,1.7145162999950117,['n'],0.9400738000040292,1.014,2562.594174800004,,,,,511,19,Woman,Right,
,,,,,,,,,,,,,,,,,511,19,Woman,Right,5,65,0.15,2,0,180,180,0.33529899999848567,['y'],0.787680100002035,1.808,2566.5433135999992,,,,,511,19,Woman,Right,
,,,,,,,,,,,,,,,,,511,19,Woman,Right,5,59,0.15,2,180,0,180,1.3103421999985585,['n'],1.173084000001836,1.5899999999999999,2573.6102995000037,,,,,511,19,Woman,Right,
,,,,,,,,,,,,,,,,,511,19,Woman,Right,5,20,0.4,1,0,-,0,0.39095730000553885,['n'],0.9172131000013906,1.766,2577.509958800001,,,,,511,19,Woman,Right,
,,,,,,,,,,,,,,,,,511,19,Woman,Right,5,30,0.4,1,180,-,180,0.25888830000621965,['n'],0.6547345999933896,1.572,2580.9099319000015,,,,,511,19,Woman,Right,
,,,,,,,,,,,,,,,,,511,19,Woman,Right,5,72,0.15,1,0,-,180,1.4327902000004542,['n'],1.0617791999975452,1.704,2586.1268722000023,,,,,511,19,Woman,Right,
,,,,,,,,,,,,,,,,,511,19,Woman,Right,5,26,0.4,1,180,-,180,0.2733155999958399,['y'],0.9191017000048305,1.78,2589.5932519000053,,,,,511,19,Woman,Right,
,,,,,,,,,,,,,,,,,511,19,Woman,Right,5,74,0.15,1,180,-,0,0.3835270000054152,['y'],0.8391824999998789,1.778,2593.1442587000056,,,,,511,19,Woman,Right,
,,,,,,,,,,,,,,,,,511,19,Woman,Right,5,69,0.15,2,0,180,0,0.5428593000033288,['n'],0.856552900004317,1.814,2597.026531100004,,,,,511,19,Woman,Right,
,,,,,,,,,,,,,,,,,511,19,Woman,Right,5,6,1,1,180,-,180,0.3199028000017279,['y'],1.736421400004474,1.184,2603.4434786000056,,,,,511,19,Woman,Right,
,,,,,,,,,,,,,,,,,511,19,Woman,Right,5,41,0.4,2,0,180,180,1.1140531999990344,['y'],0.7935820999991847,1.8860000000000001,2608.5765016000005,,,,,511,19,Woman,Right,
,,,,,,,,,,,,,,,,,511,19,Woman,Right,5,25,0.4,2,0,180,180,0.2668368000013288,['y'],0.8410695999991731,1.888,2611.7938114999997,,,,,511,19,Woman,Right,
,,,,,,,,,,,,,,,,,511,19,Woman,Right,5,34,0.4,1,180,-,180,0.4539290000029723,['y'],0.8269127000021399,1.888,2615.2939365000057,,,,,511,19,Woman,Right,
,,,,,,,,,,,,,,,,,511,19,Woman,Right,5,58,0.15,1,180,-,180,0.49141940000117756,['y'],0.9155905000006896,1.75,2620.9431807,,,,,511,19,Woman,Right,
,,,,,,,,,,,,,,,,,511,19,Woman,Right,5,51,0.15,2,180,0,180,0.32358229999954347,['y'],1.1159955999974045,1.802,2624.9265049000023,,,,,511,19,Woman,Right,
,,,,,,,,,,,,,,,,,511,19,Woman,Right,5,10,0.4,1,180,-,180,0.5958786999981385,['n'],1.9886769000004278,1.796,2629.659894800003,,,,,511,19,Woman,Right,
,,,,,,,,,,,,,,,,,511,19,Woman,Right,5,44,0.15,1,0,-,180,0.3574326000016299,['y'],1.3247542000026442,1.792,2633.526445100004,,,,,511,19,Woman,Right,
,,,,,,,,,,,,,,,,,511,19,Woman,Right,5,61,0.15,2,0,180,180,0.22614700000121957,['n'],2.5097852000035346,1.77,2638.9937013000017,,,,,511,19,Woman,Right,
,,,,,,,,,,,,,,,,,511,19,Woman,Right,5,33,0.4,2,0,180,180,0.2789284000027692,['y'],0.7503761999978451,1.836,2643.2105691000033,,,,,511,19,Woman,Right,
,,,,,,,,,,,,,,,,,511,19,Woman,Right,5,23,0.4,2,180,0,180,0.7006076000034227,['y'],0.9909525999973994,1.828,2647.244185900003,,,,,511,19,Woman,Right,
,,,,,,,,,,,,,,,,,511,19,Woman,Right,5,40,0.4,1,0,-,180,1.2975421000010101,['y'],1.1677861000061966,1.3719999999999999,2653.393846500003,,,,,511,19,Woman,Right,
,,,,,,,,,,,,,,,,,511,19,Woman,Right,5,71,0.15,2,180,0,0,0.5622266999998828,['y'],1.143479500002286,1.884,2657.8266732000047,,,,,511,19,Woman,Right,
,,,,,,,,,,,,,,,,,511,19,Woman,Right,5,24,0.4,1,0,-,180,0.35946859999967273,['y'],0.9613281999991159,1.884,2661.227162300005,,,,,511,19,Woman,Right,
,,,,,,,,,,,,,,,,,511,19,Woman,Right,5,7,1,2,180,0,0,0.15491279999696417,['y'],0.8169656000027317,1.8820000000000001,2664.493738200006,,,,,511,19,Woman,Right,
,,,,,,,,,,,,,,,,,511,19,Woman,Right,5,4,1,1,0,-,0,0.47353900000598514,['y'],0.8581756999992649,1.874,2668.026338200005,,,,,511,19,Woman,Right,
,,,,,,,,,,,,,,,,,511,19,Woman,Right,5,55,0.15,2,180,0,180,1.2501548000000184,['n'],1.8239618000006885,1.874,2674.4765958999997,,,,,511,19,Woman,Right,
,,,,,,,,,,,,,,,,,511,19,Woman,Right,5,9,0.4,2,0,180,180,0.31349230000341777,['y'],1.0358238999979221,1.978,2678.3937607000043,,,,,511,19,Woman,Right,
,,,,,,,,,,,,,,,,,511,19,Woman,Right,5,62,0.15,1,180,-,180,0.8561681999999564,['n'],0.8519033999982639,1.68,2683.8429916000023,,,,,511,19,Woman,Right,
,,,,,,,,,,,,,,,,,511,19,Woman,Right,5,36,0.4,1,0,-,180,0.3877217000044766,['n'],1.133016799998586,1.704,2687.743073100006,,,,,511,19,Woman,Right,
,,,,,,,,,,,,,,,,,511,19,Woman,Right,5,19,0.4,2,180,0,0,0.7390673999980208,['y'],0.9815584999960265,1.812,2691.843652900003,,,,,511,19,Woman,Right,
,,,,,,,,,,,,,,,,,511,19,Woman,Right,5,56,0.15,1,0,-,0,0.25622280000243336,['y'],1.0048577999987174,1.814,2695.2614271000057,,,,,511,19,Woman,Right,
,,,,,,,,,,,,,,,,,511,19,Woman,Right,5,77,0.15,2,0,180,0,2.107826899999054,['y'],1.0382768999988912,1.814,2700.693660200006,,,,,511,19,Woman,Right,
,,,,,,,,,,,,,,,,,511,19,Woman,Right,5,52,0.15,1,0,-,180,0.8579963999945903,['n'],0.7912402000001748,1.7,2705.242925000006,,,,,511,19,Woman,Right,
,,,,,,,,,,,,,,,,,511,19,Woman,Right,5,17,0.4,2,0,180,180,0.37325399999826914,['y'],0.8231568999981391,1.846,2709.176673400005,,,,,511,19,Woman,Right,
,,,,,,,,,,,,,,,,,511,19,Woman,Right,5,42,0.4,1,180,-,180,1.054143200002727,['y'],1.2078237000023364,1.858,2713.859555300005,,,,,511,19,Woman,Right,
,,,,,,,,,,,,,,,,,511,19,Woman,Right,5,68,0.15,1,0,-,180,0.31660399999964284,['y'],1.8804807999986224,1.8719999999999999,2718.1936952000033,,,,,511,19,Woman,Right,
,,,,,,,,,,,,,,,,,511,19,Woman,Right,5,15,0.4,2,180,0,0,0.4757943000004161,['y'],0.8251274999929592,1.812,2723.2262075000035,,,,,511,19,Woman,Right,
,,,,,,,,,,,,,,,,,511,19,Woman,Right,5,8,0.4,1,0,-,0,0.4381548999954248,['n'],0.8019538000007742,1.692,2727.0104573000062,,,,,511,19,Woman,Right,
,,,,,,,,,,,,,,,,,511,19,Woman,Right,5,5,1,2,0,180,180,0.27993769999739015,['y'],1.266632099999697,1.994,2731.8435125000033,,,,,511,19,Woman,Right,
,,,,,,,,,,,,,,,,,511,19,Woman,Right,5,48,0.15,1,0,-,180,0.49326319999818224,['y'],2.075351599996793,1.99,2736.776854800002,,,,,511,19,Woman,Right,
,,,,,,,,,,,,,,,,,511,19,Woman,Right,5,2,1,1,180,-,180,0.8840153999990434,['n'],0.7634280999991461,1.87,2741.476516900002,,,,,511,19,Woman,Right,
,,,,,,,,,,,,,,,,,511,19,Woman,Right,5,16,0.4,1,0,-,0,1.4514340000023367,['y'],1.0680415999959223,1.84,2747.0434685,,,,,511,19,Woman,Right,
,,,,,,,,,,,,,,,,,511,19,Woman,Right,5,75,0.15,2,180,0,0,0.6552473999981885,['y'],0.8845252999963122,1.836,2750.843450600005,,,,,511,19,Woman,Right,
,,,,,,,,,,,,,,,,,511,19,Woman,Right,5,32,0.4,1,0,-,0,0.33282360000157496,['n'],0.7652945000008913,1.35,2755.0427849000043,,,,,511,19,Woman,Right,
,,,,,,,,,,,,,,,,,511,19,Woman,Right,5,18,0.4,1,180,-,180,1.567207000000053,['y'],1.2796001999959117,1.6059999999999999,2761.1095129000023,,,,,511,19,Woman,Right,
,,,,,,,,,,,,,,,,,511,19,Woman,Right,5,0,1,1,0,-,0,0.4136103999990155,['n'],1.4946157000013045,1.678,2766.092750200005,,,,,511,19,Woman,Right,
,,,,,,,,,,,,,,,,,511,19,Woman,Right,5,12,0.4,1,0,-,180,0.3631064000001061,['n'],3.703322000001208,1.5939999999999999,2773.6937491000062,,,,,511,19,Woman,Right,
,,,,,,,,,,,,,,,,,,,,,,,,,,,,,,,,,70.0,45.0,82.5,2381.107084299998,,,,,
