p_block,p_section,p_coherence,p_direction1,p_direction2,p_direction_response,p_direction_RT,p_change_response,p_change_RT,p_confidence,p_full_correct,p_without5_correct,p_full_total,p_without5_total,p_full_avg,p_witout5_avg,p_total_time,sub,age,sex,handedness,loop,trial randomization,coherence,condition,direction1,direction2,direction_response,direction_RT,change_response,change_RT,change_confidence,change_confidence_RT,block_direction_avg,block_stable_avg,block_change_avg,total_time,sub,age,sex,handedness,
1,1,1.0,180,-,180,0.48568599999998696,-,-,-,,,,,,,,527,18,Woman,Right,,,,,,,,,,,,,,,,,527,18,Woman,Right,
1,1,1.0,180,-,180,0.01663209999992432,-,-,-,,,,,,,,527,18,Woman,Right,,,,,,,,,,,,,,,,,527,18,Woman,Right,
1,1,1.0,0,-,0,2.485443599999826,-,-,-,,,,,,,,527,18,Woman,Right,,,,,,,,,,,,,,,,,527,18,Woman,Right,
1,1,1.0,0,-,0,0.016676099999813232,-,-,-,,,,,,,,527,18,Woman,Right,,,,,,,,,,,,,,,,,527,18,Woman,Right,
1,1,1.0,180,-,180,0.38423599999987346,-,-,-,,,,,,,,527,18,Woman,Right,,,,,,,,,,,,,,,,,527,18,Woman,Right,
1,1,1.0,0,-,0,0.1870476999999937,-,-,-,,,,,,,,527,18,Woman,Right,,,,,,,,,,,,,,,,,527,18,Woman,Right,
1,1,1.0,0,-,0,0.21437599999990198,-,-,-,,,,,,,,527,18,Woman,Right,,,,,,,,,,,,,,,,,527,18,Woman,Right,
1,1,1.0,180,-,180,0.016649500000085027,-,-,-,,,,,,,,527,18,Woman,Right,,,,,,,,,,,,,,,,,527,18,Woman,Right,
1,1,1.0,180,-,180,0.0163950000001023,-,-,-,,,,,,,,527,18,Woman,Right,,,,,,,,,,,,,,,,,527,18,Woman,Right,
1,1,1.0,0,-,0,0.017008600000053775,-,-,-,10,10,10,10,1.0,1.0,,527,18,Woman,Right,,,,,,,,,,,,,,,,,527,18,Woman,Right,
2,1,0.15,180,-,180,1.3034896000001481,-,-,-,,,,,,,,527,18,Woman,Right,,,,,,,,,,,,,,,,,527,18,Woman,Right,
2,1,0.15,180,-,0,0.03825320000009924,-,-,-,,,,,,,,527,18,Woman,Right,,,,,,,,,,,,,,,,,527,18,Woman,Right,
2,1,0.4,180,-,180,0.016593000000057145,-,-,-,,,,,,,,527,18,Woman,Right,,,,,,,,,,,,,,,,,527,18,Woman,Right,
2,1,0.15,180,-,0,0.016579600000113714,-,-,-,,,,,,,,527,18,Woman,Right,,,,,,,,,,,,,,,,,527,18,Woman,Right,
2,1,0.15,0,-,0,0.05135459999996783,-,-,-,,,,,,,,527,18,Woman,Right,,,,,,,,,,,,,,,,,527,18,Woman,Right,
2,1,0.15,180,-,180,0.8285051000000294,-,-,-,,,,,,,,527,18,Woman,Right,,,,,,,,,,,,,,,,,527,18,Woman,Right,
2,1,0.15,0,-,0,0.454402699999946,-,-,-,,,,,,,,527,18,Woman,Right,,,,,,,,,,,,,,,,,527,18,Woman,Right,
2,1,0.15,0,-,0,0.3592920999999478,-,-,-,,,,,,,,527,18,Woman,Right,,,,,,,,,,,,,,,,,527,18,Woman,Right,
2,1,0.4,180,-,180,0.016611399999874266,-,-,-,,,,,,,,527,18,Woman,Right,,,,,,,,,,,,,,,,,527,18,Woman,Right,
2,1,0.4,180,-,180,0.1657485999999153,-,-,-,8,3,10,3,0.8,1.0,,527,18,Woman,Right,,,,,,,,,,,,,,,,,527,18,Woman,Right,
3,2,1.0,0,180,0,0.016669800000045143,['y'],3.02315509999994,2.0,,,,,,,,527,18,Woman,Right,,,,,,,,,,,,,,,,,527,18,Woman,Right,
3,2,1.0,0,180,180,1.8008747999999741,['y'],3.179869599999847,2.0,,,,,,,,527,18,Woman,Right,,,,,,,,,,,,,,,,,527,18,Woman,Right,
3,2,1.0,180,0,0,1.7636990000000878,['y'],2.1758952999998655,2.0,,,,,,,,527,18,Woman,Right,,,,,,,,,,,,,,,,,527,18,Woman,Right,
3,2,1.0,0,180,180,0.6963025000000016,['y'],1.3353279000000384,2.0,,,,,,,,527,18,Woman,Right,,,,,,,,,,,,,,,,,527,18,Woman,Right,
3,2,1.0,180,0,0,1.0218732000000728,['y'],0.5190195000000131,1.962,,,,,,,,527,18,Woman,Right,,,,,,,,,,,,,,,,,527,18,Woman,Right,
3,2,1.0,0,180,180,0.35442489999991267,['y'],0.45465790000002926,2.0,,,,,,,,527,18,Woman,Right,,,,,,,,,,,,,,,,,527,18,Woman,Right,
3,2,1.0,0,180,180,0.3439037000000553,['y'],0.30234870000003866,2.0,,,,,,,,527,18,Woman,Right,,,,,,,,,,,,,,,,,527,18,Woman,Right,
3,2,1.0,0,180,180,0.6498665000001438,['y'],0.8876207999999224,2.0,,,,,,,,527,18,Woman,Right,,,,,,,,,,,,,,,,,527,18,Woman,Right,
3,2,1.0,180,0,0,0.17543819999991683,['y'],0.8191210999998475,2.0,,,,,,,,527,18,Woman,Right,,,,,,,,,,,,,,,,,527,18,Woman,Right,
3,2,1.0,180,0,0,0.3927155000001221,['y'],0.7323071999999229,2.0,9,9,10,10,0.9,0.9,,527,18,Woman,Right,,,,,,,,,,,,,,,,,527,18,Woman,Right,
4,2,0.4,0,180,180,0.5949924999999894,['y'],0.7590557000000899,2.0,,,,,,,,527,18,Woman,Right,,,,,,,,,,,,,,,,,527,18,Woman,Right,
4,2,0.15,0,180,0,0.3884468999999626,['y'],0.5598081000000548,1.98,,,,,,,,527,18,Woman,Right,,,,,,,,,,,,,,,,,527,18,Woman,Right,
4,2,0.4,180,0,180,0.016937200000029407,['y'],0.27346699999998236,1.98,,,,,,,,527,18,Woman,Right,,,,,,,,,,,,,,,,,527,18,Woman,Right,
4,2,0.4,180,0,0,0.42317480000019714,['y'],0.6092611999999917,1.988,,,,,,,,527,18,Woman,Right,,,,,,,,,,,,,,,,,527,18,Woman,Right,
4,2,0.4,0,180,180,0.21747269999991659,['y'],0.29890769999997246,1.986,,,,,,,,527,18,Woman,Right,,,,,,,,,,,,,,,,,527,18,Woman,Right,
4,2,0.15,180,0,180,1.2802842000000965,['n'],0.7842794999999114,1.984,,,,,,,,527,18,Woman,Right,,,,,,,,,,,,,,,,,527,18,Woman,Right,
4,2,0.4,0,180,180,1.6165384999999333,['y'],0.29041510000001836,1.984,,,,,,,,527,18,Woman,Right,,,,,,,,,,,,,,,,,527,18,Woman,Right,
4,2,0.15,0,180,180,1.1996171000000686,['y'],0.2906938999999511,1.984,,,,,,,,527,18,Woman,Right,,,,,,,,,,,,,,,,,527,18,Woman,Right,
4,2,0.4,0,180,0,0.8906692000000476,['y'],0.26651240000001053,1.984,,,,,,,,527,18,Woman,Right,,,,,,,,,,,,,,,,,527,18,Woman,Right,
4,2,0.4,0,180,180,0.016963600000053702,['y'],0.6704760000000078,1.984,,,,,,,,527,18,Woman,Right,,,,,,,,,,,,,,,,,527,18,Woman,Right,
4,2,0.15,0,180,180,1.2107935999999881,['y'],0.2279599999999391,1.984,,,,,,,,527,18,Woman,Right,,,,,,,,,,,,,,,,,527,18,Woman,Right,
4,2,0.15,0,180,0,0.40738820000001397,['y'],0.7547557000000324,1.984,,,,,,,,527,18,Woman,Right,,,,,,,,,,,,,,,,,527,18,Woman,Right,
4,2,0.4,180,0,180,0.01645480000001953,['y'],0.2735486999999921,1.994,,,,,,,,527,18,Woman,Right,,,,,,,,,,,,,,,,,527,18,Woman,Right,
4,2,0.15,0,180,0,0.06772309999996651,['y'],0.2682609999999386,1.994,,,,,,,,527,18,Woman,Right,,,,,,,,,,,,,,,,,527,18,Woman,Right,
4,2,0.4,180,0,180,0.475380800000039,['y'],0.2992503000000397,1.994,,,,,,,,527,18,Woman,Right,,,,,,,,,,,,,,,,,527,18,Woman,Right,
4,2,0.15,0,180,0,0.0410701999999219,['y'],1.874160800000027,1.994,,,,,,,,527,18,Woman,Right,,,,,,,,,,,,,,,,,527,18,Woman,Right,
4,2,0.15,180,0,180,0.7588471000001391,['y'],0.2527335999998286,1.994,,,,,,,,527,18,Woman,Right,,,,,,,,,,,,,,,,,527,18,Woman,Right,
4,2,0.15,0,180,0,0.0688255999998546,['y'],0.34811039999999593,1.994,,,,,,,,527,18,Woman,Right,,,,,,,,,,,,,,,,,527,18,Woman,Right,
4,2,0.15,0,180,180,0.06247239999993326,['y'],0.5118194000001495,1.994,,,,,,,,527,18,Woman,Right,,,,,,,,,,,,,,,,,527,18,Woman,Right,
4,2,0.15,180,0,0,0.9623896000000514,['y'],0.7352002999998604,1.994,,,,,,,,527,18,Woman,Right,,,,,,,,,,,,,,,,,527,18,Woman,Right,
4,2,0.4,180,0,180,0.11532499999998436,['y'],0.2575842000001103,1.994,,,,,,,,527,18,Woman,Right,,,,,,,,,,,,,,,,,527,18,Woman,Right,
4,2,0.4,0,180,0,0.016683800000009796,['y'],0.2908586999999443,1.994,,,,,,,,527,18,Woman,Right,,,,,,,,,,,,,,,,,527,18,Woman,Right,
4,2,0.15,180,0,180,0.8981190000001789,['y'],0.3313574000001154,1.99,,,,,,,,527,18,Woman,Right,,,,,,,,,,,,,,,,,527,18,Woman,Right,
4,2,0.15,180,0,0,0.016675999999961277,['y'],0.9849512000000686,1.99,,,,,,,,527,18,Woman,Right,,,,,,,,,,,,,,,,,527,18,Woman,Right,
4,2,0.15,0,180,180,0.5833374999999705,['y'],0.6354178999999931,1.99,,,,,,,,527,18,Woman,Right,,,,,,,,,,,,,,,,,527,18,Woman,Right,
4,2,0.15,180,0,180,1.3832007999999405,['y'],0.05685760000005757,1.994,,,,,,,,527,18,Woman,Right,,,,,,,,,,,,,,,,,527,18,Woman,Right,
4,2,0.15,180,0,180,0.13714890000005653,['y'],0.23069420000001628,1.994,,,,,,,,527,18,Woman,Right,,,,,,,,,,,,,,,,,527,18,Woman,Right,
4,2,0.4,180,0,180,0.6228833999998642,['y'],1.9851501999999073,1.994,,,,,,,,527,18,Woman,Right,,,,,,,,,,,,,,,,,527,18,Woman,Right,
4,2,0.15,0,180,0,0.3319908000000851,['y'],0.6569348000000446,1.994,,,,,,,,527,18,Woman,Right,,,,,,,,,,,,,,,,,527,18,Woman,Right,
4,2,0.4,180,0,180,0.016382399999884,['y'],0.3800624999998945,1.994,,,,,,,,527,18,Woman,Right,,,,,,,,,,,,,,,,,527,18,Woman,Right,
4,2,0.4,180,0,0,0.07161009999981616,['y'],0.800001199999997,1.982,,,,,,,,527,18,Woman,Right,,,,,,,,,,,,,,,,,527,18,Woman,Right,
4,2,0.4,0,180,180,0.33875860000011926,['y'],0.32845450000013443,1.994,,,,,,,,527,18,Woman,Right,,,,,,,,,,,,,,,,,527,18,Woman,Right,
4,2,0.15,0,180,180,0.45966520000001765,['y'],0.30068499999993037,1.992,,,,,,,,527,18,Woman,Right,,,,,,,,,,,,,,,,,527,18,Woman,Right,
4,2,0.15,0,180,180,0.01700140000002648,['y'],0.5642302999999629,1.99,,,,,,,,527,18,Woman,Right,,,,,,,,,,,,,,,,,527,18,Woman,Right,
4,2,0.4,0,180,0,0.7590185999999903,['y'],0.3951686000000336,1.99,,,,,,,,527,18,Woman,Right,,,,,,,,,,,,,,,,,527,18,Woman,Right,
4,2,0.4,180,0,180,0.6769606000000294,['y'],0.5170838999999887,1.99,,,,,,,,527,18,Woman,Right,,,,,,,,,,,,,,,,,527,18,Woman,Right,
4,2,0.4,0,180,180,0.4302857000000131,['y'],0.7690936999999849,2.0,,,,,,,,527,18,Woman,Right,,,,,,,,,,,,,,,,,527,18,Woman,Right,
4,2,0.15,180,0,180,0.32137520000014774,['y'],0.3677784999999858,2.0,,,,,,,,527,18,Woman,Right,,,,,,,,,,,,,,,,,527,18,Woman,Right,
4,2,0.4,180,0,0,0.05826740000020436,['y'],0.31450870000003306,1.934,,,,,,,,527,18,Woman,Right,,,,,,,,,,,,,,,,,527,18,Woman,Right,
4,2,0.4,180,0,180,0.1389537999998538,['y'],0.4723271999998815,1.996,,,,,,,,527,18,Woman,Right,,,,,,,,,,,,,,,,,527,18,Woman,Right,
4,2,0.4,180,0,0,0.30601560000013706,['y'],0.6480352000000948,1.996,,,,,,,,527,18,Woman,Right,,,,,,,,,,,,,,,,,527,18,Woman,Right,
4,2,0.4,0,180,180,0.07273509999981798,['y'],0.3125107000000753,1.978,,,,,,,,527,18,Woman,Right,,,,,,,,,,,,,,,,,527,18,Woman,Right,
4,2,0.15,180,0,180,0.43312119999995957,['y'],0.5010062999999718,2.0,,,,,,,,527,18,Woman,Right,,,,,,,,,,,,,,,,,527,18,Woman,Right,
4,2,0.15,0,180,0,0.01768379999998615,['y'],0.8350591999999324,2.0,,,,,,,,527,18,Woman,Right,,,,,,,,,,,,,,,,,527,18,Woman,Right,
4,2,0.4,180,0,180,0.1626274000000194,['y'],0.5997961000000487,1.928,,,,,,,,527,18,Woman,Right,,,,,,,,,,,,,,,,,527,18,Woman,Right,
4,2,0.4,0,180,180,0.3647941000001538,['y'],0.44797029999995175,1.986,,,,,,,,527,18,Woman,Right,,,,,,,,,,,,,,,,,527,18,Woman,Right,
4,2,0.4,180,0,180,1.3372382999998536,['y'],1.24612900000011,1.948,,,,,,,,527,18,Woman,Right,,,,,,,,,,,,,,,,,527,18,Woman,Right,
4,2,0.4,0,180,0,0.23277719999987312,['y'],0.6419679999999062,2.0,,,,,,,,527,18,Woman,Right,,,,,,,,,,,,,,,,,527,18,Woman,Right,
4,2,0.15,180,0,180,0.6768431000000419,['y'],1.0524210000000949,2.0,,,,,,,,527,18,Woman,Right,,,,,,,,,,,,,,,,,527,18,Woman,Right,
4,2,0.15,180,0,180,2.9032518999999866,['y'],0.6856870999999956,2.0,,,,,,,,527,18,Woman,Right,,,,,,,,,,,,,,,,,527,18,Woman,Right,
4,2,0.4,180,0,0,0.38393909999990683,['y'],0.7544325999999728,2.0,,,,,,,,527,18,Woman,Right,,,,,,,,,,,,,,,,,527,18,Woman,Right,
4,2,0.15,180,0,180,0.11628620000010415,['y'],0.650114799999983,2.0,,,,,,,,527,18,Woman,Right,,,,,,,,,,,,,,,,,527,18,Woman,Right,
4,2,0.4,0,180,180,0.47723359999986315,['y'],0.2697006999999303,1.964,,,,,,,,527,18,Woman,Right,,,,,,,,,,,,,,,,,527,18,Woman,Right,
4,2,0.4,0,180,0,0.01697239999998601,['y'],0.32121940000001814,1.966,,,,,,,,527,18,Woman,Right,,,,,,,,,,,,,,,,,527,18,Woman,Right,
4,2,0.4,0,180,180,0.3878240999999889,['y'],0.5982757000001584,2.0,,,,,,,,527,18,Woman,Right,,,,,,,,,,,,,,,,,527,18,Woman,Right,
4,2,0.4,0,180,180,0.9549589000000651,['y'],0.32742149999990033,1.998,,,,,,,,527,18,Woman,Right,,,,,,,,,,,,,,,,,527,18,Woman,Right,
4,2,0.15,0,180,0,1.6579350000001796,['y'],0.0802280999996583,1.992,,,,,,,,527,18,Woman,Right,,,,,,,,,,,,,,,,,527,18,Woman,Right,
4,2,0.4,0,180,180,0.375658200000089,['y'],0.5475098000001708,1.992,,,,,,,,527,18,Woman,Right,,,,,,,,,,,,,,,,,527,18,Woman,Right,
4,2,0.4,180,0,0,0.6219222999998237,['y'],0.6323641999997562,1.992,,,,,,,,527,18,Woman,Right,,,,,,,,,,,,,,,,,527,18,Woman,Right,
4,2,0.15,180,0,180,0.43517949999977645,['y'],1.0526192999996056,1.992,6,6,10,7,0.6,0.8571428571428571,,527,18,Woman,Right,,,,,,,,,,,,,,,,,527,18,Woman,Right,
5,3,0.15,180,-,180,2.262946600000305,['n'],1.2479404999999133,1.986,,,,,,,,527,18,Woman,Right,,,,,,,,,,,,,,,,,527,18,Woman,Right,
5,3,0.4,0,180,180,0.8771544999999605,['y'],0.27665939999997136,2.0,,,,,,,,527,18,Woman,Right,,,,,,,,,,,,,,,,,527,18,Woman,Right,
5,3,0.4,180,-,180,1.0743759000001774,['y'],0.8663272999997389,1.0,,,,,,,,527,18,Woman,Right,,,,,,,,,,,,,,,,,527,18,Woman,Right,
5,3,1.0,180,-,180,2.017407599999842,['y'],0.25100509999992937,2.0,,,,,,,,527,18,Woman,Right,,,,,,,,,,,,,,,,,527,18,Woman,Right,
5,3,1.0,180,0,0,2.7916089000000284,['y'],0.14729690000012852,2.0,,,,,,,,527,18,Woman,Right,,,,,,,,,,,,,,,,,527,18,Woman,Right,
5,3,1.0,0,180,180,0.5832210999997187,['y'],0.3154895000002398,2.0,,,,,,,,527,18,Woman,Right,,,,,,,,,,,,,,,,,527,18,Woman,Right,
5,3,0.15,180,0,0,1.5569770000001881,['n'],0.28947680000010223,2.0,,,,,,,,527,18,Woman,Right,,,,,,,,,,,,,,,,,527,18,Woman,Right,
5,3,1.0,180,0,0,0.9855812999999216,['y'],0.21229940000011993,2.0,,,,,,,,527,18,Woman,Right,,,,,,,,,,,,,,,,,527,18,Woman,Right,
5,3,0.15,180,0,0,1.4535323000000062,['y'],0.30199420000008104,2.0,,,,,,,,527,18,Woman,Right,,,,,,,,,,,,,,,,,527,18,Woman,Right,
5,3,0.15,180,-,180,0.4734779000000344,['y'],0.27362929999981134,2.0,10,6,10,6,1.0,1.0,,527,18,Woman,Right,,,,,,,,,,,,,,,,,527,18,Woman,Right,
,,,,,,,,,,,,,,,,6.499999926745659e-06,527,18,Woman,Right,,,,,,,,,,,,,,,,,527,18,Woman,Right,
,,,,,,,,,,,,,,,,,527,18,Woman,Right,0,19,0.4,2,180,0,180,0.8890756000000692,['y'],4.664897199999814,2.0,599.6199132000002,,,,,527,18,Woman,Right,
,,,,,,,,,,,,,,,,,527,18,Woman,Right,0,62,0.15,1,180,-,0,1.5275219000000106,['n'],1.2398174999998446,1.982,605.4543364000001,,,,,527,18,Woman,Right,
,,,,,,,,,,,,,,,,,527,18,Woman,Right,0,31,0.4,2,180,0,0,0.7505506000002242,['y'],1.2008679000000484,1.978,609.8366004999998,,,,,527,18,Woman,Right,
,,,,,,,,,,,,,,,,,527,18,Woman,Right,0,75,0.15,2,180,0,0,0.9004225999997288,['n'],1.0586103999999068,1.978,614.1207331999999,,,,,527,18,Woman,Right,
,,,,,,,,,,,,,,,,,527,18,Woman,Right,0,43,0.4,2,180,0,0,0.4021399999996902,['y'],0.8241370999999162,1.978,618.1698848000001,,,,,527,18,Woman,Right,
,,,,,,,,,,,,,,,,,527,18,Woman,Right,0,72,0.15,1,0,-,180,0.24603130000014062,['y'],0.2792541999997411,1.978,620.8865894999999,,,,,527,18,Woman,Right,
,,,,,,,,,,,,,,,,,527,18,Woman,Right,0,12,0.4,1,0,-,0,0.5615142999999989,['n'],2.616103100000146,1.978,627.0542669000001,,,,,527,18,Woman,Right,
,,,,,,,,,,,,,,,,,527,18,Woman,Right,0,79,0.15,2,180,0,180,1.233093800000006,['n'],1.1123207999999067,1.978,631.5206456999999,,,,,527,18,Woman,Right,
,,,,,,,,,,,,,,,,,527,18,Woman,Right,0,60,0.15,1,0,-,0,0.688128499999948,['y'],0.7916181000000506,1.978,635.5219216999999,,,,,527,18,Woman,Right,
,,,,,,,,,,,,,,,,,527,18,Woman,Right,0,73,0.15,2,0,180,180,1.272642899999937,['y'],1.1441221000000041,1.978,640.0533661,,,,,527,18,Woman,Right,
,,,,,,,,,,,,,,,,,527,18,Woman,Right,0,66,0.15,1,180,-,180,1.1243788000001587,['y'],0.9760801000002175,1.978,644.6370129000002,,,,,527,18,Woman,Right,
,,,,,,,,,,,,,,,,,527,18,Woman,Right,0,78,0.15,1,180,-,0,0.4685813999999482,['n'],1.1127003000001423,1.978,648.5042266999999,,,,,527,18,Woman,Right,
,,,,,,,,,,,,,,,,,527,18,Woman,Right,0,18,0.4,1,180,-,180,0.31139930000017557,['n'],1.8000180000003638,1.978,653.2708207000001,,,,,527,18,Woman,Right,
,,,,,,,,,,,,,,,,,527,18,Woman,Right,0,24,0.4,1,0,-,0,1.3715974000001552,['n'],1.2477195999999822,1.978,658.5044759000002,,,,,527,18,Woman,Right,
,,,,,,,,,,,,,,,,,527,18,Woman,Right,0,17,0.4,2,0,180,180,0.42687230000001364,['y'],0.6956636999998409,1.978,661.9702483000001,,,,,527,18,Woman,Right,
,,,,,,,,,,,,,,,,,527,18,Woman,Right,0,54,0.15,1,180,-,0,0.9235991999998987,['n'],0.888607900000352,1.978,665.9708669000001,,,,,527,18,Woman,Right,
,,,,,,,,,,,,,,,,,527,18,Woman,Right,0,21,0.4,2,0,180,180,0.36690160000034666,['y'],0.7136489999998048,1.978,669.3867387999999,,,,,527,18,Woman,Right,
,,,,,,,,,,,,,,,,,527,18,Woman,Right,0,32,0.4,1,0,-,0,0.35012929999993503,['n'],1.1650165000000925,1.978,672.9042165000001,,,,,527,18,Woman,Right,
,,,,,,,,,,,,,,,,,527,18,Woman,Right,0,8,0.4,1,0,-,0,1.3678302999996959,['n'],0.7442839000000276,1.978,677.4042199999999,,,,,527,18,Woman,Right,
,,,,,,,,,,,,,,,,,527,18,Woman,Right,0,28,0.4,1,0,-,0,0.7243835999997827,['n'],0.7113624999997228,1.976,681.3534954000002,,,,,527,18,Woman,Right,
,,,,,,,,,,,,,,,,,527,18,Woman,Right,0,71,0.15,2,180,0,180,0.9047267999999349,['y'],1.839643199999955,1.976,686.5543094999998,,,,,527,18,Woman,Right,
,,,,,,,,,,,,,,,,,527,18,Woman,Right,0,41,0.4,2,0,180,180,0.4874162000000979,['y'],0.6718980000000556,1.976,689.9542940000001,,,,,527,18,Woman,Right,
,,,,,,,,,,,,,,,,,527,18,Woman,Right,0,70,0.15,1,180,-,0,0.7757458999999471,['n'],0.7842526999997972,1.976,693.7378251,,,,,527,18,Woman,Right,
,,,,,,,,,,,,,,,,,527,18,Woman,Right,0,4,1,1,0,-,0,0.916950899999847,['n'],0.903012100000069,1.976,697.7707243,,,,,527,18,Woman,Right,
,,,,,,,,,,,,,,,,,527,18,Woman,Right,0,50,0.15,1,180,-,180,0.3187463999997817,['y'],0.8636099000000286,1.968,702.1705670000001,,,,,527,18,Woman,Right,
,,,,,,,,,,,,,,,,,527,18,Woman,Right,0,11,0.4,2,180,0,0,0.4576532999999472,['y'],1.0233586999997897,1.966,706.4710206999998,,,,,527,18,Woman,Right,
,,,,,,,,,,,,,,,,,527,18,Woman,Right,0,2,1,1,180,-,180,0.4052599999999984,['n'],1.3038454999996247,1.964,710.3869301,,,,,527,18,Woman,Right,
,,,,,,,,,,,,,,,,,527,18,Woman,Right,0,14,0.4,1,180,-,180,0.17163269999991826,['n'],1.312691900000118,1.964,714.1211443000002,,,,,527,18,Woman,Right,
,,,,,,,,,,,,,,,,,527,18,Woman,Right,0,3,1,2,180,0,180,1.0425693000001957,['y'],1.0559680999999728,1.964,719.3036698999999,,,,,527,18,Woman,Right,
,,,,,,,,,,,,,,,,,527,18,Woman,Right,0,58,0.15,1,180,-,0,0.6370554999998603,['n'],0.9842394000002059,1.964,723.3044488999999,,,,,527,18,Woman,Right,
,,,,,,,,,,,,,,,,,527,18,Woman,Right,0,42,0.4,1,180,-,180,1.1629193000003397,['n'],1.560054300000047,1.964,728.5369575999998,,,,,527,18,Woman,Right,
,,,,,,,,,,,,,,,,,527,18,Woman,Right,0,44,0.15,1,0,-,180,0.36704280000003564,['n'],0.7856379999998353,1.964,732.3873751000001,,,,,527,18,Woman,Right,
,,,,,,,,,,,,,,,,,527,18,Woman,Right,0,34,0.4,1,180,-,0,0.9272480999998152,['n'],0.6794446000003518,1.964,736.5370705,,,,,527,18,Woman,Right,
,,,,,,,,,,,,,,,,,527,18,Woman,Right,0,20,0.4,1,0,-,0,0.7489854999998897,['y'],1.0879589999999553,1.964,741.1203867999998,,,,,527,18,Woman,Right,
,,,,,,,,,,,,,,,,,527,18,Woman,Right,0,74,0.15,1,180,-,180,1.3578167000000576,['y'],0.5592076999996607,1.962,745.3871512999999,,,,,527,18,Woman,Right,
,,,,,,,,,,,,,,,,,527,18,Woman,Right,0,1,1,2,0,180,180,0.715435300000081,['y'],0.688205100000232,1.962,749.0546463999999,,,,,527,18,Woman,Right,
,,,,,,,,,,,,,,,,,527,18,Woman,Right,0,22,0.4,1,180,-,0,1.065502700000252,['n'],1.0636099000003014,1.962,753.2543049999999,,,,,527,18,Woman,Right,
,,,,,,,,,,,,,,,,,527,18,Woman,Right,0,23,0.4,2,180,0,180,0.8997092999998131,['y'],1.5769648000000416,1.962,757.8371307000002,,,,,527,18,Woman,Right,
,,,,,,,,,,,,,,,,,527,18,Woman,Right,0,38,0.4,1,180,-,0,0.7809014999997999,['y'],0.6557613999998466,1.962,761.5371455,,,,,527,18,Woman,Right,
,,,,,,,,,,,,,,,,,527,18,Woman,Right,0,16,0.4,1,0,-,0,0.8411130999998022,['y'],0.6638436000002912,1.962,765.1371165,,,,,527,18,Woman,Right,
,,,,,,,,,,,,,,,,,527,18,Woman,Right,0,26,0.4,1,180,-,180,0.7015474999998332,['n'],1.0241588999997475,1.962,769.5037384000002,,,,,527,18,Woman,Right,
,,,,,,,,,,,,,,,,,527,18,Woman,Right,0,52,0.15,1,0,-,0,1.0278113000003941,['y'],0.560058300000037,1.962,773.5038536000002,,,,,527,18,Woman,Right,
,,,,,,,,,,,,,,,,,527,18,Woman,Right,0,67,0.15,2,180,0,0,1.163158199999998,['y'],1.0885521000000153,1.962,777.8373044999998,,,,,527,18,Woman,Right,
,,,,,,,,,,,,,,,,,527,18,Woman,Right,0,51,0.15,2,180,0,0,1.4788055999997596,['y'],0.7598073999997723,1.962,782.2205358000001,,,,,527,18,Woman,Right,
,,,,,,,,,,,,,,,,,527,18,Woman,Right,0,68,0.15,1,0,-,180,0.8820510999998987,['n'],1.7593244999998205,1.958,787.0540894000001,,,,,527,18,Woman,Right,
,,,,,,,,,,,,,,,,,527,18,Woman,Right,0,5,1,2,0,180,180,0.5590947000000597,['y'],0.7921360999998797,1.958,790.9711800999999,,,,,527,18,Woman,Right,
,,,,,,,,,,,,,,,,,527,18,Woman,Right,0,6,1,1,180,-,180,0.5370573999998669,['n'],1.0878634000000602,1.958,794.8372823999998,,,,,527,18,Woman,Right,
,,,,,,,,,,,,,,,,,527,18,Woman,Right,0,15,0.4,2,180,0,0,0.7998317999999927,['y'],0.5833447999998498,1.958,798.5706458999998,,,,,527,18,Woman,Right,
,,,,,,,,,,,,,,,,,527,18,Woman,Right,0,7,1,2,180,0,0,0.5623216000003595,['y'],0.7202509000003374,1.958,802.2540444000001,,,,,527,18,Woman,Right,
,,,,,,,,,,,,,,,,,527,18,Woman,Right,0,63,0.15,2,180,0,0,1.0722944999997708,['y'],1.2401420000001053,1.94,806.8707404000002,,,,,527,18,Woman,Right,
,,,,,,,,,,,,,,,,,527,18,Woman,Right,0,29,0.4,2,0,180,180,0.48816949999991266,['y'],0.5692896000000474,1.94,810.0706343000002,,,,,527,18,Woman,Right,
,,,,,,,,,,,,,,,,,527,18,Woman,Right,0,48,0.15,1,0,-,0,0.9020066999996743,['y'],0.8323991000002025,1.94,814.0873588,,,,,527,18,Woman,Right,
,,,,,,,,,,,,,,,,,527,18,Woman,Right,0,27,0.4,2,180,0,0,0.43898020000006,['y'],0.7835817999998653,1.94,818.0214836999999,,,,,527,18,Woman,Right,
,,,,,,,,,,,,,,,,,527,18,Woman,Right,0,76,0.15,1,0,-,180,0.5115644000002249,['n'],0.9920256000000336,1.94,821.7714807000002,,,,,527,18,Woman,Right,
,,,,,,,,,,,,,,,,,527,18,Woman,Right,0,57,0.15,2,0,180,180,0.2717083000002276,['y'],1.0957149999999274,1.994,826.8217064999999,,,,,527,18,Woman,Right,
,,,,,,,,,,,,,,,,,527,18,Woman,Right,0,36,0.4,1,0,-,0,0.6487013000000843,['y'],1.4784310000000005,1.946,831.1541471999999,,,,,527,18,Woman,Right,
,,,,,,,,,,,,,,,,,527,18,Woman,Right,0,61,0.15,2,0,180,180,0.3361200000003919,['y'],0.4237840000000688,1.946,834.1707658999999,,,,,527,18,Woman,Right,
,,,,,,,,,,,,,,,,,527,18,Woman,Right,0,40,0.4,1,0,-,180,0.31994170000007216,['y'],0.47221330000002126,1.946,837.6050319999999,,,,,527,18,Woman,Right,
,,,,,,,,,,,,,,,,,527,18,Woman,Right,0,33,0.4,2,0,180,180,0.5090362000000823,['n'],0.9362800999997489,1.954,841.3546921000002,,,,,527,18,Woman,Right,
,,,,,,,,,,,,,,,,,527,18,Woman,Right,0,30,0.4,1,180,-,180,0.31359429999974964,['y'],0.39983910000000833,1.954,844.3541347,,,,,527,18,Woman,Right,
,,,,,,,,,,,,,,,,,527,18,Woman,Right,0,25,0.4,2,0,180,180,0.15211859999999433,['y'],0.6079773999999816,1.954,847.4544046000001,,,,,527,18,Woman,Right,
,,,,,,,,,,,,,,,,,527,18,Woman,Right,0,77,0.15,2,0,180,180,0.2453546000001552,['y'],0.8401622999999745,1.954,850.8550568999999,,,,,527,18,Woman,Right,
,,,,,,,,,,,,,,,,,527,18,Woman,Right,0,10,0.4,1,180,-,0,0.6720697999999174,['n'],1.0643596999998408,1.958,854.7708357000001,,,,,527,18,Woman,Right,
,,,,,,,,,,,,,,,,,527,18,Woman,Right,0,13,0.4,2,0,180,180,0.8417882000003374,['y'],0.7037591000002976,1.962,858.5883337,,,,,527,18,Woman,Right,
,,,,,,,,,,,,,,,,,527,18,Woman,Right,0,53,0.15,2,0,180,180,0.6501021999997647,['y'],0.6240089000002627,1.962,862.1875223000002,,,,,527,18,Woman,Right,
,,,,,,,,,,,,,,,,,527,18,Woman,Right,0,39,0.4,2,180,0,180,0.6380951999999525,['y'],0.43130729999984396,1.962,865.5048781,,,,,527,18,Woman,Right,
,,,,,,,,,,,,,,,,,527,18,Woman,Right,0,65,0.15,2,0,180,0,0.32727470000008907,['y'],0.5839210999997704,1.962,868.6375923,,,,,527,18,Woman,Right,
,,,,,,,,,,,,,,,,,527,18,Woman,Right,0,0,1,1,0,-,0,0.3527319000004354,['n'],0.9517916999998306,1.962,872.2217190000001,,,,,527,18,Woman,Right,
,,,,,,,,,,,,,,,,,527,18,Woman,Right,0,46,0.15,1,180,-,180,0.6513890999999603,['y'],0.32744769999999335,1.968,875.5876702,,,,,527,18,Woman,Right,
,,,,,,,,,,,,,,,,,527,18,Woman,Right,0,59,0.15,2,180,0,180,0.269434999999703,['y'],2.384081100000003,1.6640000000000001,883.2558376000002,,,,,527,18,Woman,Right,
,,,,,,,,,,,,,,,,,527,18,Woman,Right,0,45,0.15,2,0,180,180,1.772914999999557,['n'],0.9606361000001016,1.706,888.8376714999999,,,,,527,18,Woman,Right,
,,,,,,,,,,,,,,,,,527,18,Woman,Right,0,64,0.15,1,0,-,180,0.7211449000001267,['y'],0.6876744999999573,1.706,892.6219285000002,,,,,527,18,Woman,Right,
,,,,,,,,,,,,,,,,,527,18,Woman,Right,0,56,0.15,1,0,-,0,0.3057936999998674,['n'],1.2963413999996192,1.706,896.8051604000002,,,,,527,18,Woman,Right,
,,,,,,,,,,,,,,,,,527,18,Woman,Right,0,35,0.4,2,180,0,180,0.3577901999997266,['y'],0.5120796000001064,1.706,900.1376774999999,,,,,527,18,Woman,Right,
,,,,,,,,,,,,,,,,,527,18,Woman,Right,0,49,0.15,2,0,180,0,0.3862410000001546,['y'],0.9355685000000449,1.706,903.6876613999998,,,,,527,18,Woman,Right,
,,,,,,,,,,,,,,,,,527,18,Woman,Right,0,9,0.4,2,0,180,0,0.7888606999999865,['y'],1.1046008999996957,1.706,907.7712603999998,,,,,527,18,Woman,Right,
,,,,,,,,,,,,,,,,,527,18,Woman,Right,0,55,0.15,2,180,0,180,0.7756221999998161,['y'],0.6480782999997245,1.706,911.4055509,,,,,527,18,Woman,Right,
,,,,,,,,,,,,,,,,,527,18,Woman,Right,0,37,0.4,2,0,180,180,0.6942733000000771,['y'],0.9281923000003189,1.952,917.2217396000001,,,,,527,18,Woman,Right,
,,,,,,,,,,,,,,,,,527,18,Woman,Right,0,47,0.15,2,180,0,180,1.3755832000001647,['n'],1.375402000000122,1.22,924.8378745999999,,,,,527,18,Woman,Right,
,,,,,,,,,,,,,,,,,527,18,Woman,Right,0,69,0.15,2,0,180,180,0.6416942999999264,['y'],1.1119189999999435,1.29,930.9045295000001,,,,,527,18,Woman,Right,
,,,,,,,,,,,,,,,,,527,18,Woman,Right,1,67,0.15,2,180,0,180,4.7964707000001,['y'],0.5115006000000903,1.55,952.1052098,65.0,62.5,87.5,,527,18,Woman,Right,
,,,,,,,,,,,,,,,,,527,18,Woman,Right,1,13,0.4,2,0,180,180,0.15111019999994824,['y'],0.5832386000001861,1.588,955.1212996999998,,,,,527,18,Woman,Right,
,,,,,,,,,,,,,,,,,527,18,Woman,Right,1,55,0.15,2,180,0,180,0.8713818999999603,['n'],0.8398252000001776,1.5859999999999999,959.1715094000001,,,,,527,18,Woman,Right,
,,,,,,,,,,,,,,,,,527,18,Woman,Right,1,76,0.15,1,0,-,0,0.08888320000005479,['y'],0.4146912000001066,1.5739999999999998,962.1546004000002,,,,,527,18,Woman,Right,
,,,,,,,,,,,,,,,,,527,18,Woman,Right,1,47,0.15,2,180,0,180,0.15364709999994375,['n'],0.487460800000008,1.588,965.6380813999999,,,,,527,18,Woman,Right,
,,,,,,,,,,,,,,,,,527,18,Woman,Right,1,3,1,2,180,0,180,0.6166748999999072,['n'],1.9259657999996307,1.634,970.8721885,,,,,527,18,Woman,Right,
,,,,,,,,,,,,,,,,,527,18,Woman,Right,1,75,0.15,2,180,0,180,0.43923240000003716,['n'],1.7372746000000916,1.6360000000000001,975.5553445,,,,,527,18,Woman,Right,
,,,,,,,,,,,,,,,,,527,18,Woman,Right,1,5,1,2,0,180,180,0.34846220000008543,['y'],0.5122627999999168,1.6360000000000001,978.5546598000001,,,,,527,18,Woman,Right,
,,,,,,,,,,,,,,,,,527,18,Woman,Right,1,58,0.15,1,180,-,180,0.8202172999999675,['n'],1.0313290999997662,1.6360000000000001,982.6713507,,,,,527,18,Woman,Right,
,,,,,,,,,,,,,,,,,527,18,Woman,Right,1,14,0.4,1,180,-,180,0.13551559999996243,['y'],0.5919751999999789,1.6360000000000001,985.6714453999998,,,,,527,18,Woman,Right,
,,,,,,,,,,,,,,,,,527,18,Woman,Right,1,57,0.15,2,0,180,180,0.03954990000011094,['y'],0.23187899999993533,1.6360000000000001,985.6714453999998,,,,,527,18,Woman,Right,
,,,,,,,,,,,,,,,,,527,18,Woman,Right,1,41,0.4,2,0,180,180,0.23284719999992376,['y'],0.1672243000002709,1.6360000000000001,990.8218178000002,,,,,527,18,Woman,Right,
,,,,,,,,,,,,,,,,,527,18,Woman,Right,1,27,0.4,2,180,0,180,0.01689570000007734,['y'],0.24662409999973534,1.6360000000000001,994.4212849999999,,,,,527,18,Woman,Right,
,,,,,,,,,,,,,,,,,527,18,Woman,Right,1,38,0.4,1,180,-,180,0.10050120000005336,['y'],0.663887700000032,1.6360000000000001,997.2380330000001,,,,,527,18,Woman,Right,
,,,,,,,,,,,,,,,,,527,18,Woman,Right,1,40,0.4,1,0,-,0,1.0172181000002638,['y'],0.4641968999999335,1.6360000000000001,1001.0550840000001,,,,,527,18,Woman,Right,
,,,,,,,,,,,,,,,,,527,18,Woman,Right,1,79,0.15,2,180,0,180,2.4153480999998465,['y'],0.9679266000002826,1.6360000000000001,1006.9047074999999,,,,,527,18,Woman,Right,
,,,,,,,,,,,,,,,,,527,18,Woman,Right,1,77,0.15,2,0,180,180,0.32693680000011227,['n'],0.6326642999997603,1.6360000000000001,1010.0382629999999,,,,,527,18,Woman,Right,
,,,,,,,,,,,,,,,,,527,18,Woman,Right,1,1,1,2,0,180,180,0.2915527000000111,['n'],0.30338199999960125,1.0,1014.2222839000001,,,,,527,18,Woman,Right,
,,,,,,,,,,,,,,,,,527,18,Woman,Right,1,22,0.4,1,180,-,180,0.3035814999998365,['y'],0.33577180000020235,1.728,1017.0556234000001,,,,,527,18,Woman,Right,
,,,,,,,,,,,,,,,,,527,18,Woman,Right,1,63,0.15,2,180,0,180,0.268373899999915,['y'],0.9753796999998485,1.722,1020.5048393000002,,,,,527,18,Woman,Right,
,,,,,,,,,,,,,,,,,527,18,Woman,Right,1,49,0.15,2,0,180,180,0.1244459999998071,['y'],0.9275244000000384,1.722,1023.7056351000001,,,,,527,18,Woman,Right,
,,,,,,,,,,,,,,,,,527,18,Woman,Right,1,37,0.4,2,0,180,180,0.32430719999956636,['y'],0.5040226000000985,1.722,1026.6558108,,,,,527,18,Woman,Right,
,,,,,,,,,,,,,,,,,527,18,Woman,Right,1,32,0.4,1,0,-,0,0.7006119999996372,['n'],1.036011800000324,1.722,1030.9214591999998,,,,,527,18,Woman,Right,
,,,,,,,,,,,,,,,,,527,18,Woman,Right,1,44,0.15,1,0,-,180,1.4942071000000396,['n'],0.9595769000002292,1.722,1035.6881826,,,,,527,18,Woman,Right,
,,,,,,,,,,,,,,,,,527,18,Woman,Right,1,24,0.4,1,0,-,0,0.4451130999996167,['n'],1.0879354000003332,1.722,1039.5223508999998,,,,,527,18,Woman,Right,
,,,,,,,,,,,,,,,,,527,18,Woman,Right,1,78,0.15,1,180,-,180,0.08266950000006545,['y'],0.5198599000000286,1.722,1042.8882613,,,,,527,18,Woman,Right,
,,,,,,,,,,,,,,,,,527,18,Woman,Right,1,60,0.15,1,0,-,180,0.27850809999972626,['y'],0.30353500000001077,1.722,1045.7715377999998,,,,,527,18,Woman,Right,
,,,,,,,,,,,,,,,,,527,18,Woman,Right,1,11,0.4,2,180,0,0,0.4689731999997093,['y'],0.6001147000001765,1.722,1049.4382440999998,,,,,527,18,Woman,Right,
,,,,,,,,,,,,,,,,,527,18,Woman,Right,1,34,0.4,1,180,-,180,0.5760698000003686,['n'],0.8403109999999288,1.722,1053.1549590999998,,,,,527,18,Woman,Right,
,,,,,,,,,,,,,,,,,527,18,Woman,Right,1,65,0.15,2,0,180,180,0.4087898999996469,['y'],0.3919338999999127,1.72,1056.2382750000002,,,,,527,18,Woman,Right,
,,,,,,,,,,,,,,,,,527,18,Woman,Right,1,73,0.15,2,0,180,180,0.4739405000000261,['y'],0.24781389999998282,1.72,1059.1382563000002,,,,,527,18,Woman,Right,
,,,,,,,,,,,,,,,,,527,18,Woman,Right,1,4,1,1,0,-,180,0.48169489999963844,['n'],3.1367778999997427,1.0,1066.3883354,,,,,527,18,Woman,Right,
,,,,,,,,,,,,,,,,,527,18,Woman,Right,1,28,0.4,1,0,-,180,0.32377790000009554,['y'],0.9201749999997446,1.6280000000000001,1070.4559301,,,,,527,18,Woman,Right,
,,,,,,,,,,,,,,,,,527,18,Woman,Right,1,54,0.15,1,180,-,180,0.5264398999997866,['y'],0.5110039999999572,1.646,1073.5724658999998,,,,,527,18,Woman,Right,
,,,,,,,,,,,,,,,,,527,18,Woman,Right,1,45,0.15,2,0,180,0,0.17519829999991998,['y'],0.6477207000002636,1.638,1076.7550446999999,,,,,527,18,Woman,Right,
,,,,,,,,,,,,,,,,,527,18,Woman,Right,1,70,0.15,1,180,-,180,0.017182000000047992,['y'],0.7259749999998348,1.638,1079.7383811999998,,,,,527,18,Woman,Right,
,,,,,,,,,,,,,,,,,527,18,Woman,Right,1,36,0.4,1,0,-,180,0.03248429999985092,['y'],0.3999650999999176,1.638,1082.3723848999998,,,,,527,18,Woman,Right,
,,,,,,,,,,,,,,,,,527,18,Woman,Right,1,6,1,1,180,-,180,0.25330239999993864,['y'],0.4957201000001987,1.326,1086.0558098000001,,,,,527,18,Woman,Right,
,,,,,,,,,,,,,,,,,527,18,Woman,Right,1,35,0.4,2,180,0,0,0.4642729999995936,['y'],0.3997514999996383,1.518,1088.9552291,,,,,527,18,Woman,Right,
,,,,,,,,,,,,,,,,,527,18,Woman,Right,1,16,0.4,1,0,-,180,0.38301769999998214,['y'],0.40466280000009647,1.518,1092.1217256999998,,,,,527,18,Woman,Right,
,,,,,,,,,,,,,,,,,527,18,Woman,Right,1,10,0.4,1,180,-,180,0.31682190000037735,['y'],0.6232758999999533,1.518,1095.2217872,,,,,527,18,Woman,Right,
,,,,,,,,,,,,,,,,,527,18,Woman,Right,1,12,0.4,1,0,-,180,0.15874590000021271,['n'],0.7199660000001131,1.518,1098.1384466,,,,,527,18,Woman,Right,
,,,,,,,,,,,,,,,,,527,18,Woman,Right,1,39,0.4,2,180,0,0,0.3715860000002067,['y'],0.680249300000014,1.518,1101.6554796,,,,,527,18,Woman,Right,
,,,,,,,,,,,,,,,,,527,18,Woman,Right,1,64,0.15,1,0,-,0,0.25790379999989455,['y'],0.3125206999998227,1.518,1104.3551016000001,,,,,527,18,Woman,Right,
,,,,,,,,,,,,,,,,,527,18,Woman,Right,1,46,0.15,1,180,-,0,0.38067339999997785,['y'],0.47199460000001636,1.514,1108.9893733,,,,,527,18,Woman,Right,
,,,,,,,,,,,,,,,,,527,18,Woman,Right,1,2,1,1,180,-,180,0.8725665999995726,['n'],0.768047800000204,1.514,1112.9551591,,,,,527,18,Woman,Right,
,,,,,,,,,,,,,,,,,527,18,Woman,Right,1,42,0.4,1,180,-,180,0.34301689999983864,['y'],1.0874303999999029,1.514,1116.4388585000002,,,,,527,18,Woman,Right,
,,,,,,,,,,,,,,,,,527,18,Woman,Right,1,15,0.4,2,180,0,0,0.3961301000003914,['y'],0.5040059000002657,1.514,1119.4051748000002,,,,,527,18,Woman,Right,
,,,,,,,,,,,,,,,,,527,18,Woman,Right,1,7,1,2,180,0,180,0.866630399999849,['y'],0.9921217999999499,1.516,1123.7561990999998,,,,,527,18,Woman,Right,
,,,,,,,,,,,,,,,,,527,18,Woman,Right,1,26,0.4,1,180,-,180,0.6351512999999613,['y'],1.2722908999999163,1.516,1127.9219208999998,,,,,527,18,Woman,Right,
,,,,,,,,,,,,,,,,,527,18,Woman,Right,1,74,0.15,1,180,-,180,0.1421720000003006,['y'],0.4318223999998736,1.516,1130.6220503,,,,,527,18,Woman,Right,
,,,,,,,,,,,,,,,,,527,18,Woman,Right,1,23,0.4,2,180,0,0,0.5317147000000659,['y'],0.30376869999963674,1.516,1133.9225403,,,,,527,18,Woman,Right,
,,,,,,,,,,,,,,,,,527,18,Woman,Right,1,56,0.15,1,0,-,0,0.4049907999997231,['y'],0.5513703999999962,1.516,1137.1887923,,,,,527,18,Woman,Right,
,,,,,,,,,,,,,,,,,527,18,Woman,Right,1,69,0.15,2,0,180,180,0.2580438000004506,['y'],0.3119056999998975,1.516,1140.7385766000002,,,,,527,18,Woman,Right,
,,,,,,,,,,,,,,,,,527,18,Woman,Right,1,18,0.4,1,180,-,180,0.2764748999998119,['y'],0.2720099999996819,1.516,1143.5886068999998,,,,,527,18,Woman,Right,
,,,,,,,,,,,,,,,,,527,18,Woman,Right,1,66,0.15,1,180,-,0,0.01606790000005276,['n'],0.2815096999997877,1.516,1143.5886068999998,,,,,527,18,Woman,Right,
,,,,,,,,,,,,,,,,,527,18,Woman,Right,1,20,0.4,1,0,-,0,0.12777340000002368,['y'],0.40707449999990786,1.516,1148.1219661,,,,,527,18,Woman,Right,
,,,,,,,,,,,,,,,,,527,18,Woman,Right,1,62,0.15,1,180,-,180,0.3222105999998348,['y'],0.3117677000000185,1.52,1151.0718923999998,,,,,527,18,Woman,Right,
,,,,,,,,,,,,,,,,,527,18,Woman,Right,1,33,0.4,2,0,180,180,0.4553642000000764,['y'],0.4079391999998734,1.52,1154.2053243,,,,,527,18,Woman,Right,
,,,,,,,,,,,,,,,,,527,18,Woman,Right,1,25,0.4,2,0,180,0,0.1623981999996431,['n'],1.511823600000298,1.52,1158.2560039999998,,,,,527,18,Woman,Right,
,,,,,,,,,,,,,,,,,527,18,Woman,Right,1,9,0.4,2,0,180,180,0.4018553000000793,['y'],0.5119445000000269,1.52,1161.6554126,,,,,527,18,Woman,Right,
,,,,,,,,,,,,,,,,,527,18,Woman,Right,1,19,0.4,2,180,0,0,0.39181779999989885,['y'],0.2953210999999101,1.52,1165.5228759000001,,,,,527,18,Woman,Right,
,,,,,,,,,,,,,,,,,527,18,Woman,Right,1,68,0.15,1,0,-,0,0.55971049999971,['y'],0.4001729000001433,1.52,1169.0720778,,,,,527,18,Woman,Right,
,,,,,,,,,,,,,,,,,527,18,Woman,Right,1,53,0.15,2,0,180,180,0.4307125999998789,['y'],0.2632502999999815,1.526,1175.7222339999998,,,,,527,18,Woman,Right,
,,,,,,,,,,,,,,,,,527,18,Woman,Right,1,0,1,1,0,-,0,0.7924606999999924,['n'],0.5275902999997015,1.6400000000000001,1180.6887615,,,,,527,18,Woman,Right,
,,,,,,,,,,,,,,,,,527,18,Woman,Right,1,72,0.15,1,0,-,180,0.6775273000002926,['y'],0.7287189999997281,1.522,1184.3388064,,,,,527,18,Woman,Right,
,,,,,,,,,,,,,,,,,527,18,Woman,Right,1,43,0.4,2,180,0,0,0.7715292000002592,['y'],0.5200365000000602,1.522,1184.3388064,,,,,527,18,Woman,Right,
,,,,,,,,,,,,,,,,,527,18,Woman,Right,1,8,0.4,1,0,-,180,5.752914299999702,['y'],0.6156777999999576,1.5,1196.0413259000002,,,,,527,18,Woman,Right,
,,,,,,,,,,,,,,,,,527,18,Woman,Right,1,48,0.15,1,0,-,180,0.4281246000000465,['y'],0.21609639999996944,1.592,1200.506413,,,,,527,18,Woman,Right,
,,,,,,,,,,,,,,,,,527,18,Woman,Right,1,52,0.15,1,0,-,180,0.443101100000149,['y'],0.7274232999998276,1.588,1204.5721678,,,,,527,18,Woman,Right,
,,,,,,,,,,,,,,,,,527,18,Woman,Right,1,59,0.15,2,180,0,180,0.19394259999990027,['y'],0.5915788000002067,1.588,1207.6888358,,,,,527,18,Woman,Right,
,,,,,,,,,,,,,,,,,527,18,Woman,Right,1,50,0.15,1,180,-,180,0.9339200999997956,['n'],0.3513615000001664,1.5859999999999999,1211.3064396999998,,,,,527,18,Woman,Right,
,,,,,,,,,,,,,,,,,527,18,Woman,Right,1,21,0.4,2,0,180,180,0.7304456000001665,['y'],0.6720467999998618,1.5859999999999999,1215.1065173000002,,,,,527,18,Woman,Right,
,,,,,,,,,,,,,,,,,527,18,Woman,Right,1,29,0.4,2,0,180,180,0.43095390000007683,['y'],0.3920442000003277,1.58,1218.0223013999998,,,,,527,18,Woman,Right,
,,,,,,,,,,,,,,,,,527,18,Woman,Right,1,31,0.4,2,180,0,0,0.4021400999999969,['y'],0.32748050000009243,1.58,1218.0223013999998,,,,,527,18,Woman,Right,
,,,,,,,,,,,,,,,,,527,18,Woman,Right,1,30,0.4,1,180,-,0,0.3073946999998043,['y'],0.3360382999999274,1.58,1223.5396857,,,,,527,18,Woman,Right,
,,,,,,,,,,,,,,,,,527,18,Woman,Right,1,71,0.15,2,180,0,180,0.2982379999998557,['y'],0.24819950000028257,1.58,1223.5396857,,,,,527,18,Woman,Right,
,,,,,,,,,,,,,,,,,527,18,Woman,Right,1,51,0.15,2,180,0,180,0.34703750000016953,['y'],0.5925607000003765,1.58,1230.0900204,,,,,527,18,Woman,Right,
,,,,,,,,,,,,,,,,,527,18,Woman,Right,1,17,0.4,2,0,180,180,0.40737620000027164,['y'],0.40050469999960114,1.58,1233.4732173000002,,,,,527,18,Woman,Right,
,,,,,,,,,,,,,,,,,527,18,Woman,Right,1,61,0.15,2,0,180,180,0.2549434000002293,['y'],0.20756540000002133,1.576,1236.4389844000002,,,,,527,18,Woman,Right,
,,,,,,,,,,,,,,,,,527,18,Woman,Right,2,70,0.15,1,180,-,180,0.3072749999996631,['y'],0.2550714999997581,1.5739999999999998,1247.2397449999999,65.0,27.5,82.5,,527,18,Woman,Right,
,,,,,,,,,,,,,,,,,527,18,Woman,Right,2,72,0.15,1,0,-,180,0.3398080000001755,['y'],0.22325679999994463,1.5739999999999998,1249.9407461,,,,,527,18,Woman,Right,
,,,,,,,,,,,,,,,,,527,18,Woman,Right,2,5,1,2,0,180,180,0.2930493999997452,['y'],0.2395845000000918,1.5739999999999998,1252.7898515000002,,,,,527,18,Woman,Right,
,,,,,,,,,,,,,,,,,527,18,Woman,Right,2,6,1,1,180,-,180,0.36933540000018183,['n'],1.9277031000001443,1.5739999999999998,1257.4723310999998,,,,,527,18,Woman,Right,
,,,,,,,,,,,,,,,,,527,18,Woman,Right,2,69,0.15,2,0,180,180,0.2785370999999941,['y'],0.35938830000031885,1.5739999999999998,1257.4723310999998,,,,,527,18,Woman,Right,
,,,,,,,,,,,,,,,,,527,18,Woman,Right,2,21,0.4,2,0,180,180,0.2722042999998848,['y'],0.44749480000018593,1.5,1262.6263217,,,,,527,18,Woman,Right,
,,,,,,,,,,,,,,,,,527,18,Woman,Right,2,36,0.4,1,0,-,180,4.646458700000039,['y'],0.9116715000000113,1.676,1270.8731727999998,,,,,527,18,Woman,Right,
,,,,,,,,,,,,,,,,,527,18,Woman,Right,2,73,0.15,2,0,180,180,0.3280107999999018,['y'],1.016161099999863,1.624,1274.9408042,,,,,527,18,Woman,Right,
,,,,,,,,,,,,,,,,,527,18,Woman,Right,2,68,0.15,1,0,-,180,0.13515460000007806,['y'],0.3194530999999188,1.624,1274.9408042,,,,,527,18,Woman,Right,
,,,,,,,,,,,,,,,,,527,18,Woman,Right,2,76,0.15,1,0,-,180,0.4790651000002981,['n'],0.9751840999997512,1.6280000000000001,1281.9564638000002,,,,,527,18,Woman,Right,
,,,,,,,,,,,,,,,,,527,18,Woman,Right,2,1,1,2,0,180,180,0.3843320000000858,['y'],0.3037734999998065,1.6280000000000001,1284.8903956,,,,,527,18,Woman,Right,
,,,,,,,,,,,,,,,,,527,18,Woman,Right,2,9,0.4,2,0,180,180,0.35971459999973376,['y'],0.31975550000015573,1.6280000000000001,1284.8903956,,,,,527,18,Woman,Right,
,,,,,,,,,,,,,,,,,527,18,Woman,Right,2,38,0.4,1,180,-,180,0.12473569999974643,['y'],0.1923029999998107,1.5,1289.5901829,,,,,527,18,Woman,Right,
,,,,,,,,,,,,,,,,,527,18,Woman,Right,2,44,0.15,1,0,-,180,0.12334029999965423,['y'],0.21557339999981195,1.5,1291.8628993000002,,,,,527,18,Woman,Right,
,,,,,,,,,,,,,,,,,527,18,Woman,Right,2,50,0.15,1,180,-,180,0.08919539999988046,['y'],0.21611910000001444,1.62,1295.189241,,,,,527,18,Woman,Right,
,,,,,,,,,,,,,,,,,527,18,Woman,Right,2,24,0.4,1,0,-,0,0.565744199999699,['n'],0.32740100000000893,1.572,1298.5558498999999,,,,,527,18,Woman,Right,
,,,,,,,,,,,,,,,,,527,18,Woman,Right,2,10,0.4,1,180,-,180,0.21971350000012535,['n'],0.8961278000001585,1.566,1301.872563,,,,,527,18,Woman,Right,
,,,,,,,,,,,,,,,,,527,18,Woman,Right,2,49,0.15,2,0,180,180,0.2929251000000477,['y'],0.3513623999997435,1.56,1304.9231601000001,,,,,527,18,Woman,Right,
,,,,,,,,,,,,,,,,,527,18,Woman,Right,2,64,0.15,1,0,-,180,0.2977810000002137,['y'],0.36825790000011693,1.56,1304.9231601000001,,,,,527,18,Woman,Right,
,,,,,,,,,,,,,,,,,527,18,Woman,Right,2,20,0.4,1,0,-,180,0.32680770000024495,['n'],0.3367750000002161,1.556,1311.0399999,,,,,527,18,Woman,Right,
,,,,,,,,,,,,,,,,,527,18,Woman,Right,2,35,0.4,2,180,0,0,0.549926300000152,['y'],0.38326680000000124,1.556,1311.0399999,,,,,527,18,Woman,Right,
,,,,,,,,,,,,,,,,,527,18,Woman,Right,2,37,0.4,2,0,180,180,0.25533130000030724,['y'],0.2953253999999106,1.55,1316.9393446999998,,,,,527,18,Woman,Right,
,,,,,,,,,,,,,,,,,527,18,Woman,Right,2,0,1,1,0,-,0,0.5751551999996991,['n'],0.2562713000002077,1.55,1320.3559617,,,,,527,18,Woman,Right,
,,,,,,,,,,,,,,,,,527,18,Woman,Right,2,17,0.4,2,0,180,180,0.3876885000004222,['y'],0.2638371000002735,1.55,1323.2392630999998,,,,,527,18,Woman,Right,
,,,,,,,,,,,,,,,,,527,18,Woman,Right,2,11,0.4,2,180,0,0,0.35461549999990893,['y'],0.3274133999998412,1.608,1327.3066534,,,,,527,18,Woman,Right,
,,,,,,,,,,,,,,,,,527,18,Woman,Right,2,41,0.4,2,0,180,180,1.017022900000029,['n'],0.4589906000001065,1.604,1331.1726404,,,,,527,18,Woman,Right,
,,,,,,,,,,,,,,,,,527,18,Woman,Right,2,43,0.4,2,180,0,0,0.38961939999990136,['y'],0.47230830000034985,1.5939999999999999,1334.4568017000001,,,,,527,18,Woman,Right,
,,,,,,,,,,,,,,,,,527,18,Woman,Right,2,65,0.15,2,0,180,180,0.3240752000001521,['y'],0.3757690000002185,1.5939999999999999,1337.5393511000002,,,,,527,18,Woman,Right,
,,,,,,,,,,,,,,,,,527,18,Woman,Right,2,66,0.15,1,180,-,180,0.356842400000005,['y'],0.42347300000028554,1.5939999999999999,1341.3230113,,,,,527,18,Woman,Right,
,,,,,,,,,,,,,,,,,527,18,Woman,Right,2,31,0.4,2,180,0,0,0.3615932000002431,['y'],0.3995190000000548,1.5939999999999999,1344.3068284,,,,,527,18,Woman,Right,
,,,,,,,,,,,,,,,,,527,18,Woman,Right,2,15,0.4,2,180,0,0,0.31827720000001136,['y'],0.688332299999729,1.5939999999999999,1347.3733458000002,,,,,527,18,Woman,Right,
,,,,,,,,,,,,,,,,,527,18,Woman,Right,2,39,0.4,2,180,0,0,0.3067900000000918,['y'],0.29593590000013137,1.5939999999999999,1350.2227042999998,,,,,527,18,Woman,Right,
,,,,,,,,,,,,,,,,,527,18,Woman,Right,2,48,0.15,1,0,-,180,0.760327800000141,['y'],0.8238721000002442,1.5939999999999999,1354.1735217,,,,,527,18,Woman,Right,
,,,,,,,,,,,,,,,,,527,18,Woman,Right,2,19,0.4,2,180,0,0,0.23392699999976685,['y'],0.27195769999980257,1.5939999999999999,1357.1067038,,,,,527,18,Woman,Right,
,,,,,,,,,,,,,,,,,527,18,Woman,Right,2,3,1,2,180,0,0,0.2971345000000838,['y'],0.28029819999983374,1.5939999999999999,1360.3076759,,,,,527,18,Woman,Right,
,,,,,,,,,,,,,,,,,527,18,Woman,Right,2,62,0.15,1,180,-,180,0.13989319999973304,['y'],0.6242818000000625,1.5939999999999999,1363.3227458000001,,,,,527,18,Woman,Right,
,,,,,,,,,,,,,,,,,527,18,Woman,Right,2,71,0.15,2,180,0,180,0.21306929999991553,['y'],0.9196901000000253,1.5939999999999999,1366.7567641,,,,,527,18,Woman,Right,
,,,,,,,,,,,,,,,,,527,18,Woman,Right,2,29,0.4,2,0,180,180,0.6603170999997019,['y'],0.3844314999996641,1.5939999999999999,1370.1227528999998,,,,,527,18,Woman,Right,
,,,,,,,,,,,,,,,,,527,18,Woman,Right,2,53,0.15,2,0,180,0,0.8785945000004176,['y'],0.9518217999998342,1.5939999999999999,1374.073042,,,,,527,18,Woman,Right,
,,,,,,,,,,,,,,,,,527,18,Woman,Right,2,12,0.4,1,0,-,180,0.33563950000007026,['y'],0.5513543000001846,1.5939999999999999,1377.2728089000002,,,,,527,18,Woman,Right,
,,,,,,,,,,,,,,,,,527,18,Woman,Right,2,57,0.15,2,0,180,180,0.057242500000029395,['y'],0.35995990000037636,1.5939999999999999,1380.0736495,,,,,527,18,Woman,Right,
,,,,,,,,,,,,,,,,,527,18,Woman,Right,2,60,0.15,1,0,-,180,0.04851150000013149,['y'],0.7762038999999277,1.5939999999999999,1383.1228474999998,,,,,527,18,Woman,Right,
,,,,,,,,,,,,,,,,,527,18,Woman,Right,2,51,0.15,2,180,0,180,0.016590200000337063,['y'],0.3515496999998504,1.5939999999999999,1385.7908395999998,,,,,527,18,Woman,Right,
,,,,,,,,,,,,,,,,,527,18,Woman,Right,2,52,0.15,1,0,-,180,0.16534450000017387,['y'],0.2794694999997773,1.584,1388.5577975,,,,,527,18,Woman,Right,
,,,,,,,,,,,,,,,,,527,18,Woman,Right,2,7,1,2,180,0,0,0.5838090000002012,['y'],0.351606300000185,1.584,1391.7728258000002,,,,,527,18,Woman,Right,
,,,,,,,,,,,,,,,,,527,18,Woman,Right,2,42,0.4,1,180,-,180,0.2967409999996562,['n'],0.5432854000000589,1.588,1394.6228956999998,,,,,527,18,Woman,Right,
,,,,,,,,,,,,,,,,,527,18,Woman,Right,2,22,0.4,1,180,-,180,0.04337310000028083,['n'],0.29647609999983615,1.588,1397.4237127000001,,,,,527,18,Woman,Right,
,,,,,,,,,,,,,,,,,527,18,Woman,Right,2,55,0.15,2,180,0,180,0.4349808000001758,['y'],0.3925208000000566,1.588,1400.7238381000002,,,,,527,18,Woman,Right,
,,,,,,,,,,,,,,,,,527,18,Woman,Right,2,33,0.4,2,0,180,180,0.34123570000019754,['y'],0.3195344999999179,1.626,1404.0243615999998,,,,,527,18,Woman,Right,
,,,,,,,,,,,,,,,,,527,18,Woman,Right,2,47,0.15,2,180,0,0,0.24723230000017793,['n'],1.008126600000196,1.654,1407.9237914999999,,,,,527,18,Woman,Right,
,,,,,,,,,,,,,,,,,527,18,Woman,Right,2,74,0.15,1,180,-,180,0.016749399999753223,['y'],0.44227749999981825,1.6480000000000001,1410.6567595000001,,,,,527,18,Woman,Right,
,,,,,,,,,,,,,,,,,527,18,Woman,Right,2,16,0.4,1,0,-,0,0.4265715999999884,['n'],0.9678785000000971,1.6480000000000001,1414.3407559000002,,,,,527,18,Woman,Right,
,,,,,,,,,,,,,,,,,527,18,Woman,Right,2,30,0.4,1,180,-,180,0.12436900000011519,['y'],0.3596711999998661,1.6480000000000001,1417.0913549000002,,,,,527,18,Woman,Right,
,,,,,,,,,,,,,,,,,527,18,Woman,Right,2,23,0.4,2,180,0,180,0.24715229999992516,['y'],0.5355517000002692,1.6360000000000001,1420.0062945,,,,,527,18,Woman,Right,
,,,,,,,,,,,,,,,,,527,18,Woman,Right,2,77,0.15,2,0,180,180,0.016681399999924906,['y'],0.3023428999999851,1.6360000000000001,1422.6405537,,,,,527,18,Woman,Right,
,,,,,,,,,,,,,,,,,527,18,Woman,Right,2,28,0.4,1,0,-,0,0.416533999999956,['y'],0.6485873999999967,1.6360000000000001,1426.0063731999999,,,,,527,18,Woman,Right,
,,,,,,,,,,,,,,,,,527,18,Woman,Right,2,58,0.15,1,180,-,180,0.2082377000001543,['y'],0.4159474000002774,1.6360000000000001,1429.2908294,,,,,527,18,Woman,Right,
,,,,,,,,,,,,,,,,,527,18,Woman,Right,2,63,0.15,2,180,0,180,0.11737200000015946,['y'],0.39154400000006717,1.6360000000000001,1432.506782,,,,,527,18,Woman,Right,
,,,,,,,,,,,,,,,,,527,18,Woman,Right,2,54,0.15,1,180,-,180,0.7736668000002282,['n'],0.8798671999998078,1.6360000000000001,1436.3405284,,,,,527,18,Woman,Right,
,,,,,,,,,,,,,,,,,527,18,Woman,Right,2,25,0.4,2,0,180,180,0.443696600000294,['y'],0.47938539999995555,1.6360000000000001,1439.4898517000001,,,,,527,18,Woman,Right,
,,,,,,,,,,,,,,,,,527,18,Woman,Right,2,79,0.15,2,180,0,180,0.38229150000006484,['y'],0.7920539000001554,1.6280000000000001,1442.7401808999998,,,,,527,18,Woman,Right,
,,,,,,,,,,,,,,,,,527,18,Woman,Right,2,27,0.4,2,180,0,0,0.4066483999999946,['y'],0.824176499999794,1.6280000000000001,1446.2239046999998,,,,,527,18,Woman,Right,
,,,,,,,,,,,,,,,,,527,18,Woman,Right,2,8,0.4,1,0,-,0,0.20507439999983035,['n'],0.9526616999996804,1.6280000000000001,1449.55724,,,,,527,18,Woman,Right,
,,,,,,,,,,,,,,,,,527,18,Woman,Right,2,18,0.4,1,180,-,180,0.13324809999994613,['y'],0.44239369999968403,1.63,1452.2564235,,,,,527,18,Woman,Right,
,,,,,,,,,,,,,,,,,527,18,Woman,Right,2,78,0.15,1,180,-,180,0.32504659999995056,['y'],0.4716763000001265,1.63,1455.1244596000001,,,,,527,18,Woman,Right,
,,,,,,,,,,,,,,,,,527,18,Woman,Right,2,75,0.15,2,180,0,0,0.42476639999995314,['y'],0.647643700000117,1.63,1458.8064679999998,,,,,527,18,Woman,Right,
,,,,,,,,,,,,,,,,,527,18,Woman,Right,2,45,0.15,2,0,180,180,0.017182799999773124,['y'],0.4004214999999931,1.63,1461.3731097999998,,,,,527,18,Woman,Right,
,,,,,,,,,,,,,,,,,527,18,Woman,Right,2,2,1,1,180,-,180,0.281798400000298,['y'],0.7284341999998105,1.63,1464.9565575000001,,,,,527,18,Woman,Right,
,,,,,,,,,,,,,,,,,527,18,Woman,Right,2,4,1,1,0,-,0,0.30255620000025374,['n'],0.6642213999998603,1.63,1468.0564641,,,,,527,18,Woman,Right,
,,,,,,,,,,,,,,,,,527,18,Woman,Right,2,32,0.4,1,0,-,0,0.46052899999995134,['y'],1.12031479999996,1.6179999999999999,1471.8570006,,,,,527,18,Woman,Right,
,,,,,,,,,,,,,,,,,527,18,Woman,Right,2,67,0.15,2,180,0,180,0.2309386000001723,['y'],0.2868843999999626,1.6179999999999999,1474.6067411,,,,,527,18,Woman,Right,
,,,,,,,,,,,,,,,,,527,18,Woman,Right,2,34,0.4,1,180,-,0,0.16078749999996944,['y'],0.4794225999999071,1.624,1477.4732542000002,,,,,527,18,Woman,Right,
,,,,,,,,,,,,,,,,,527,18,Woman,Right,2,59,0.15,2,180,0,180,0.09549079999987953,['y'],0.5839765000000625,1.624,1480.3238818,,,,,527,18,Woman,Right,
,,,,,,,,,,,,,,,,,527,18,Woman,Right,2,14,0.4,1,180,-,180,0.29394689999980983,['y'],0.2952788000002329,1.624,1483.1065131999999,,,,,527,18,Woman,Right,
,,,,,,,,,,,,,,,,,527,18,Woman,Right,2,26,0.4,1,180,-,180,0.01660859999992681,['y'],0.19648170000027676,1.6179999999999999,1485.6240051,,,,,527,18,Woman,Right,
,,,,,,,,,,,,,,,,,527,18,Woman,Right,2,56,0.15,1,0,-,0,0.13446859999976368,['y'],0.7762007000001176,1.6179999999999999,1488.7232834000001,,,,,527,18,Woman,Right,
,,,,,,,,,,,,,,,,,527,18,Woman,Right,2,40,0.4,1,0,-,0,0.11782700000003388,['y'],0.7601738000003024,1.6179999999999999,1491.7906674,,,,,527,18,Woman,Right,
,,,,,,,,,,,,,,,,,527,18,Woman,Right,2,46,0.15,1,180,-,0,0.55213539999977,['y'],0.5524494999999661,1.6179999999999999,1495.1233699999998,,,,,527,18,Woman,Right,
,,,,,,,,,,,,,,,,,527,18,Woman,Right,2,61,0.15,2,0,180,180,0.016879399999652378,['y'],0.3312780000001112,1.6179999999999999,1497.6408135000001,,,,,527,18,Woman,Right,
,,,,,,,,,,,,,,,,,527,18,Woman,Right,2,13,0.4,2,0,180,0,0.13800080000009984,['y'],0.9278240000003279,1.6179999999999999,1500.890022,,,,,527,18,Woman,Right,
,,,,,,,,,,,,,,,,,527,18,Woman,Right,3,44,0.15,1,0,-,180,0.6875347000000147,['n'],0.5758983999999145,1.6179999999999999,1506.0077212,71.25,30.0,95.0,,527,18,Woman,Right,
,,,,,,,,,,,,,,,,,527,18,Woman,Right,3,56,0.15,1,0,-,180,0.4105594000002384,['y'],0.5043296000003465,1.6179999999999999,1506.0077212,,,,,527,18,Woman,Right,
,,,,,,,,,,,,,,,,,527,18,Woman,Right,3,63,0.15,2,180,0,180,0.01648190000014438,['y'],1.1088958000000275,1.67,1516.0567400999998,,,,,527,18,Woman,Right,
,,,,,,,,,,,,,,,,,527,18,Woman,Right,3,67,0.15,2,180,0,180,0.11978450000015073,['y'],0.5363452999999936,1.756,1519.8401561,,,,,527,18,Woman,Right,
,,,,,,,,,,,,,,,,,527,18,Woman,Right,3,10,0.4,1,180,-,180,0.2594848999997339,['y'],0.36858380000012403,1.756,1519.8401561,,,,,527,18,Woman,Right,
,,,,,,,,,,,,,,,,,527,18,Woman,Right,3,8,0.4,1,0,-,0,0.016696700000011333,['y'],0.5020825999999943,1.752,1525.8740729,,,,,527,18,Woman,Right,
,,,,,,,,,,,,,,,,,527,18,Woman,Right,3,47,0.15,2,180,0,180,0.8334995000000163,['n'],0.5683106000001317,1.742,1529.6401033000002,,,,,527,18,Woman,Right,
,,,,,,,,,,,,,,,,,527,18,Woman,Right,3,20,0.4,1,0,-,180,0.016745500000070024,['y'],0.4121781000003466,1.6520000000000001,1532.3579077999998,,,,,527,18,Woman,Right,
,,,,,,,,,,,,,,,,,527,18,Woman,Right,3,0,1,1,0,-,180,0.016625300000214338,['y'],0.7193376000000171,1.6520000000000001,1535.306837,,,,,527,18,Woman,Right,
,,,,,,,,,,,,,,,,,527,18,Woman,Right,3,45,0.15,2,0,180,0,4.346074000000044,['y'],3.400492399999621,1.6520000000000001,1545.2578434000002,,,,,527,18,Woman,Right,
,,,,,,,,,,,,,,,,,527,18,Woman,Right,3,15,0.4,2,180,0,180,6.112691799999993,['y'],0.6954343000002154,1.6520000000000001,1554.2744512,,,,,527,18,Woman,Right,
,,,,,,,,,,,,,,,,,527,18,Woman,Right,3,1,1,2,0,180,180,0.3669945999999982,['y'],0.4319345999997495,1.624,1557.3409233000002,,,,,527,18,Woman,Right,
,,,,,,,,,,,,,,,,,527,18,Woman,Right,3,41,0.4,2,0,180,180,0.3995685999998386,['y'],0.3236799000001156,1.624,1560.0740016,,,,,527,18,Woman,Right,
,,,,,,,,,,,,,,,,,527,18,Woman,Right,3,4,1,1,0,-,0,0.5657243999999082,['n'],0.3200127000000066,1.624,1563.0743791999998,,,,,527,18,Woman,Right,
,,,,,,,,,,,,,,,,,527,18,Woman,Right,3,31,0.4,2,180,0,0,0.762608900000032,['n'],0.2881935999998859,1.624,1566.2742743,,,,,527,18,Woman,Right,
,,,,,,,,,,,,,,,,,527,18,Woman,Right,3,30,0.4,1,180,-,180,0.33604079999986425,['n'],1.4964974999998049,1.624,1570.2410393,,,,,527,18,Woman,Right,
,,,,,,,,,,,,,,,,,527,18,Woman,Right,3,32,0.4,1,0,-,0,0.1340172000000166,['n'],0.7747626000000309,1.624,1573.2568928,,,,,527,18,Woman,Right,
,,,,,,,,,,,,,,,,,527,18,Woman,Right,3,57,0.15,2,0,180,0,0.3806840000002012,['n'],0.3281515999997282,1.624,1576.1735617,,,,,527,18,Woman,Right,
,,,,,,,,,,,,,,,,,527,18,Woman,Right,3,12,0.4,1,0,-,0,0.23936809999986508,['n'],0.3198853999997482,1.624,1578.8910919,,,,,527,18,Woman,Right,
,,,,,,,,,,,,,,,,,527,18,Woman,Right,3,37,0.4,2,0,180,180,1.1855232000002616,['y'],0.43228869999984454,1.624,1582.7403786999998,,,,,527,18,Woman,Right,
,,,,,,,,,,,,,,,,,527,18,Woman,Right,3,62,0.15,1,180,-,0,0.3139289999999164,['n'],0.6954719999998815,1.662,1586.5409126999998,,,,,527,18,Woman,Right,
,,,,,,,,,,,,,,,,,527,18,Woman,Right,3,49,0.15,2,0,180,0,0.16528539999990244,['y'],0.5596341000000393,1.702,1589.9069969000002,,,,,527,18,Woman,Right,
,,,,,,,,,,,,,,,,,527,18,Woman,Right,3,7,1,2,180,0,180,0.04962959999966188,['y'],0.9758701000000656,1.702,1593.2410977999998,,,,,527,18,Woman,Right,
,,,,,,,,,,,,,,,,,527,18,Woman,Right,3,40,0.4,1,0,-,0,3.631312500000149,['y'],0.6160143000001881,1.542,1599.7245988999998,,,,,527,18,Woman,Right,
,,,,,,,,,,,,,,,,,527,18,Woman,Right,3,71,0.15,2,180,0,0,0.016803499999696214,['y'],0.8725520000002689,1.542,1602.8904096,,,,,527,18,Woman,Right,
,,,,,,,,,,,,,,,,,527,18,Woman,Right,3,2,1,1,180,-,180,0.16738249999980326,['y'],0.7509254999999939,1.6640000000000001,1605.8903521000002,,,,,527,18,Woman,Right,
,,,,,,,,,,,,,,,,,527,18,Woman,Right,3,19,0.4,2,180,0,180,0.08266679999996995,['y'],0.2878102999998191,1.6640000000000001,1605.8903521000002,,,,,527,18,Woman,Right,
,,,,,,,,,,,,,,,,,527,18,Woman,Right,3,5,1,2,0,180,0,0.01670560000002297,['y'],0.5005193000001782,1.5,1610.608147,,,,,527,18,Woman,Right,
,,,,,,,,,,,,,,,,,527,18,Woman,Right,3,14,0.4,1,180,-,180,0.016224899999997433,['y'],0.2075753999997687,1.6640000000000001,1613.2246601000002,,,,,527,18,Woman,Right,
,,,,,,,,,,,,,,,,,527,18,Woman,Right,3,35,0.4,2,180,0,180,0.33150890000024447,['n'],0.5924297000001388,1.6640000000000001,1616.6737361,,,,,527,18,Woman,Right,
,,,,,,,,,,,,,,,,,527,18,Woman,Right,3,61,0.15,2,0,180,0,0.8728923000003306,['y'],0.7114464000001135,1.6019999999999999,1620.4578906000002,,,,,527,18,Woman,Right,
,,,,,,,,,,,,,,,,,527,18,Woman,Right,3,59,0.15,2,180,0,180,0.016762799999924027,['y'],0.2546964000002845,1.552,1623.207112,,,,,527,18,Woman,Right,
,,,,,,,,,,,,,,,,,527,18,Woman,Right,3,27,0.4,2,180,0,180,0.016641799999888462,['y'],0.225119100000029,1.552,1623.207112,,,,,527,18,Woman,Right,
,,,,,,,,,,,,,,,,,527,18,Woman,Right,3,29,0.4,2,0,180,180,0.016884699999991426,['y'],0.1785437999997157,1.5,1627.4029529999998,,,,,527,18,Woman,Right,
,,,,,,,,,,,,,,,,,527,18,Woman,Right,3,50,0.15,1,180,-,180,0.12839489999987563,['n'],0.3432199999997465,1.548,1630.2746726999999,,,,,527,18,Woman,Right,
,,,,,,,,,,,,,,,,,527,18,Woman,Right,3,24,0.4,1,0,-,180,0.13360039999997753,['n'],2.940521600000011,1.57,1636.4571913999998,,,,,527,18,Woman,Right,
,,,,,,,,,,,,,,,,,527,18,Woman,Right,3,53,0.15,2,0,180,180,0.8399328000000423,['n'],0.9843071000000236,1.57,1636.4571913999998,,,,,527,18,Woman,Right,
,,,,,,,,,,,,,,,,,527,18,Woman,Right,3,74,0.15,1,180,-,180,0.9579190999997991,['y'],0.4237167999999656,1.784,1645.9072995000001,,,,,527,18,Woman,Right,
,,,,,,,,,,,,,,,,,527,18,Woman,Right,3,70,0.15,1,180,-,180,6.417208800000026,['y'],0.6558403999997608,1.6400000000000001,1655.4238988000002,,,,,527,18,Woman,Right,
,,,,,,,,,,,,,,,,,527,18,Woman,Right,3,39,0.4,2,180,0,180,0.9212431000000834,['y'],0.30351370000016686,1.376,1659.1905391,,,,,527,18,Woman,Right,
,,,,,,,,,,,,,,,,,527,18,Woman,Right,3,66,0.15,1,180,-,180,0.24100720000024012,['n'],0.8236234999999397,1.358,1662.7571908999998,,,,,527,18,Woman,Right,
,,,,,,,,,,,,,,,,,527,18,Woman,Right,3,17,0.4,2,0,180,0,0.34461199999987,['y'],1.5118309000004047,1.358,1667.2414361,,,,,527,18,Woman,Right,
,,,,,,,,,,,,,,,,,527,18,Woman,Right,3,77,0.15,2,0,180,180,0.34489849999999933,['n'],0.9682662000000164,1.5819999999999999,1671.5258168,,,,,527,18,Woman,Right,
,,,,,,,,,,,,,,,,,527,18,Woman,Right,3,6,1,1,180,-,180,0.35823019999997996,['y'],0.3591529999998784,1.446,1675.2906100999999,,,,,527,18,Woman,Right,
,,,,,,,,,,,,,,,,,527,18,Woman,Right,3,28,0.4,1,0,-,0,0.7832637999999861,['y'],0.7673930000000837,1.4140000000000001,1678.9573546000001,,,,,527,18,Woman,Right,
,,,,,,,,,,,,,,,,,527,18,Woman,Right,3,46,0.15,1,180,-,180,0.2732234000000062,['y'],0.591294100000141,1.316,1683.1073244,,,,,527,18,Woman,Right,
,,,,,,,,,,,,,,,,,527,18,Woman,Right,3,22,0.4,1,180,-,0,0.7085759999999937,['y'],0.4235359999997854,1.222,1687.2909393,,,,,527,18,Woman,Right,
,,,,,,,,,,,,,,,,,527,18,Woman,Right,3,23,0.4,2,180,0,0,2.433827199999996,['y'],0.6021842999998626,1.266,1692.8412699,,,,,527,18,Woman,Right,
,,,,,,,,,,,,,,,,,527,18,Woman,Right,3,69,0.15,2,0,180,180,2.399632499999825,['y'],0.43173810000007506,1.292,1698.7415179999998,,,,,527,18,Woman,Right,
,,,,,,,,,,,,,,,,,527,18,Woman,Right,3,38,0.4,1,180,-,180,0.9014909000002262,['y'],0.3669233999999051,1.284,1702.2074496999999,,,,,527,18,Woman,Right,
,,,,,,,,,,,,,,,,,527,18,Woman,Right,3,9,0.4,2,0,180,180,0.3577706999999464,['n'],0.9758968999999524,1.284,1706.0242146,,,,,527,18,Woman,Right,
,,,,,,,,,,,,,,,,,527,18,Woman,Right,3,42,0.4,1,180,-,180,0.13574689999995826,['y'],0.5356323000000884,1.276,1708.8246674000002,,,,,527,18,Woman,Right,
,,,,,,,,,,,,,,,,,527,18,Woman,Right,3,75,0.15,2,180,0,180,0.844074399999954,['n'],0.35201120000010633,1.274,1713.7742149,,,,,527,18,Woman,Right,
,,,,,,,,,,,,,,,,,527,18,Woman,Right,3,79,0.15,2,180,0,0,0.46454679999988,['y'],0.6883035000000746,1.6099999999999999,1720.7907982000002,,,,,527,18,Woman,Right,
,,,,,,,,,,,,,,,,,527,18,Woman,Right,3,76,0.15,1,0,-,180,0.12147170000025653,['n'],0.7604486999998699,1.19,1725.7249719000001,,,,,527,18,Woman,Right,
,,,,,,,,,,,,,,,,,527,18,Woman,Right,3,58,0.15,1,180,-,180,0.3116847000001144,['y'],0.4557198999996217,1.168,1729.6742030999999,,,,,527,18,Woman,Right,
,,,,,,,,,,,,,,,,,527,18,Woman,Right,3,34,0.4,1,180,-,180,0.01665529999991122,['y'],0.06500420000020313,1.168,1732.2241594000002,,,,,527,18,Woman,Right,
,,,,,,,,,,,,,,,,,527,18,Woman,Right,3,72,0.15,1,0,-,0,0.17472880000013902,['y'],0.448685000000296,1.168,1735.2082323999998,,,,,527,18,Woman,Right,
,,,,,,,,,,,,,,,,,527,18,Woman,Right,3,43,0.4,2,180,0,180,0.5025372999998581,['y'],0.30340179999984684,1.166,1738.2910016,,,,,527,18,Woman,Right,
,,,,,,,,,,,,,,,,,527,18,Woman,Right,3,26,0.4,1,180,-,180,0.016962600000169914,['y'],0.3123673999998573,1.166,1741.2577314,,,,,527,18,Woman,Right,
,,,,,,,,,,,,,,,,,527,18,Woman,Right,3,55,0.15,2,180,0,180,0.01658610000004046,['n'],0.30594269999983226,1.166,1744.4415344,,,,,527,18,Woman,Right,
,,,,,,,,,,,,,,,,,527,18,Woman,Right,3,54,0.15,1,180,-,180,0.49175990000003367,['n'],0.5438884000000144,1.1560000000000001,1748.4750583999999,,,,,527,18,Woman,Right,
,,,,,,,,,,,,,,,,,527,18,Woman,Right,3,11,0.4,2,180,0,180,0.033246999999846594,['y'],0.6235014000003503,1.222,1752.0077302999998,,,,,527,18,Woman,Right,
,,,,,,,,,,,,,,,,,527,18,Woman,Right,3,33,0.4,2,0,180,180,0.26796890000014173,['y'],0.4154373999999734,1.22,1754.9909723,,,,,527,18,Woman,Right,
,,,,,,,,,,,,,,,,,527,18,Woman,Right,3,68,0.15,1,0,-,180,0.8426334999999199,['n'],0.5514751999999135,1.222,1758.7417429000002,,,,,527,18,Woman,Right,
,,,,,,,,,,,,,,,,,527,18,Woman,Right,3,48,0.15,1,0,-,180,0.8032588000000942,['n'],0.7119870000001356,1.222,1762.7410662000002,,,,,527,18,Woman,Right,
,,,,,,,,,,,,,,,,,527,18,Woman,Right,3,60,0.15,1,0,-,180,0.8303301999999348,['y'],0.4155879999998433,1.198,1766.8760394,,,,,527,18,Woman,Right,
,,,,,,,,,,,,,,,,,527,18,Woman,Right,3,25,0.4,2,0,180,0,4.006113999999798,['n'],0.6787143999999898,1.0979999999999999,1774.2244752000001,,,,,527,18,Woman,Right,
,,,,,,,,,,,,,,,,,527,18,Woman,Right,3,36,0.4,1,0,-,0,0.2569484000000557,['n'],1.0231776000000536,1.07,1778.2588153000002,,,,,527,18,Woman,Right,
,,,,,,,,,,,,,,,,,527,18,Woman,Right,3,78,0.15,1,180,-,180,0.016504600000189384,['y'],0.4731982000002972,1.1440000000000001,1780.8411031,,,,,527,18,Woman,Right,
,,,,,,,,,,,,,,,,,527,18,Woman,Right,3,65,0.15,2,0,180,180,0.9275118999998995,['n'],0.38405680000005304,1.15,1785.2246319,,,,,527,18,Woman,Right,
,,,,,,,,,,,,,,,,,527,18,Woman,Right,3,51,0.15,2,180,0,180,0.016696200000296813,['y'],0.3354919999997037,1.1520000000000001,1788.3917747,,,,,527,18,Woman,Right,
,,,,,,,,,,,,,,,,,527,18,Woman,Right,3,64,0.15,1,0,-,180,1.3805809000000409,['y'],0.8558366000002025,1.4140000000000001,1793.9918987,,,,,527,18,Woman,Right,
,,,,,,,,,,,,,,,,,527,18,Woman,Right,3,13,0.4,2,0,180,180,0.37130630000001474,['y'],0.6315426999999545,1.584,1798.1077985000002,,,,,527,18,Woman,Right,
,,,,,,,,,,,,,,,,,527,18,Woman,Right,3,16,0.4,1,0,-,180,18.275503500000013,['y'],0.7677721999998539,1.658,1819.9079032999998,,,,,527,18,Woman,Right,
,,,,,,,,,,,,,,,,,527,18,Woman,Right,3,18,0.4,1,180,-,180,0.7754529000003458,['n'],0.4402927000001,1.338,1823.5246671,,,,,527,18,Woman,Right,
,,,,,,,,,,,,,,,,,527,18,Woman,Right,3,73,0.15,2,0,180,180,0.017239599999811617,['y'],0.3399978999996165,1.338,1826.0412316000002,,,,,527,18,Woman,Right,
,,,,,,,,,,,,,,,,,527,18,Woman,Right,3,52,0.15,1,0,-,180,0.5104881000002024,['n'],0.5200191000003542,1.338,1829.1252141999998,,,,,527,18,Woman,Right,
,,,,,,,,,,,,,,,,,527,18,Woman,Right,3,21,0.4,2,0,180,0,0.04994899999974223,['n'],1.495928400000139,1.338,1833.1253762000001,,,,,527,18,Woman,Right,
,,,,,,,,,,,,,,,,,527,18,Woman,Right,3,3,1,2,180,0,180,1.0446689999998853,['n'],1.7842263000002276,1.3359999999999999,1838.6079307,,,,,527,18,Woman,Right,
,,,,,,,,,,,,,,,,,527,18,Woman,Right,4,8,0.4,1,0,-,180,0.249900499999967,['y'],0.3283856000002743,1.4140000000000001,1871.8581164000002,52.5,40.0,67.5,,527,18,Woman,Right,
,,,,,,,,,,,,,,,,,527,18,Woman,Right,4,21,0.4,2,0,180,180,0.2880632000001242,['n'],0.5360619000002771,1.262,1876.3422947,,,,,527,18,Woman,Right,
,,,,,,,,,,,,,,,,,527,18,Woman,Right,4,58,0.15,1,180,-,180,1.286733599999934,['n'],0.5205379999997604,1.262,1882.0914157000002,,,,,527,18,Woman,Right,
,,,,,,,,,,,,,,,,,527,18,Woman,Right,4,44,0.15,1,0,-,180,0.0725680000000466,['y'],1.159442499999841,1.262,1882.0914157000002,,,,,527,18,Woman,Right,
,,,,,,,,,,,,,,,,,527,18,Woman,Right,4,64,0.15,1,0,-,0,0.016725700000279176,['y'],0.6506225000002814,1.392,1887.9580774,,,,,527,18,Woman,Right,
,,,,,,,,,,,,,,,,,527,18,Woman,Right,4,16,0.4,1,0,-,0,0.08375530000012077,['n'],0.2717197000001761,1.392,1890.3255746,,,,,527,18,Woman,Right,
,,,,,,,,,,,,,,,,,527,18,Woman,Right,4,10,0.4,1,180,-,180,0.38073620000022856,['y'],0.7599725000000035,1.392,1890.3255746,,,,,527,18,Woman,Right,
,,,,,,,,,,,,,,,,,527,18,Woman,Right,4,73,0.15,2,0,180,180,0.1010524000002988,['y'],0.2880253999996967,1.5,1895.1988310000002,,,,,527,18,Woman,Right,
,,,,,,,,,,,,,,,,,527,18,Woman,Right,4,12,0.4,1,0,-,0,0.07550229999969815,['y'],0.17614449999973658,1.5,1897.3270518999998,,,,,527,18,Woman,Right,
,,,,,,,,,,,,,,,,,527,18,Woman,Right,4,63,0.15,2,180,0,180,0.01684320000003936,['y'],0.1154922999999144,1.5,1899.3908820000001,,,,,527,18,Woman,Right,
,,,,,,,,,,,,,,,,,527,18,Woman,Right,4,40,0.4,1,0,-,180,0.01653810000016165,['y'],0.4949808999999732,1.392,1902.3248346999999,,,,,527,18,Woman,Right,
,,,,,,,,,,,,,,,,,527,18,Woman,Right,4,42,0.4,1,180,-,180,0.016777900000306545,['y'],0.3793746999999712,1.3900000000000001,1905.1917773,,,,,527,18,Woman,Right,
,,,,,,,,,,,,,,,,,527,18,Woman,Right,4,61,0.15,2,0,180,180,0.328342899999825,['y'],0.3036839000001237,1.3900000000000001,1905.1917773,,,,,527,18,Woman,Right,
,,,,,,,,,,,,,,,,,527,18,Woman,Right,4,43,0.4,2,180,0,180,0.7212957000001552,['n'],1.2968738999998095,1.3719999999999999,1912.1082566,,,,,527,18,Woman,Right,
,,,,,,,,,,,,,,,,,527,18,Woman,Right,4,18,0.4,1,180,-,180,0.8996972999998434,['n'],0.4798288000001776,1.346,1916.3423280000002,,,,,527,18,Woman,Right,
,,,,,,,,,,,,,,,,,527,18,Woman,Right,4,78,0.15,1,180,-,180,0.7605665000000954,['y'],0.42364980000002106,1.3319999999999999,1919.7915911999999,,,,,527,18,Woman,Right,
,,,,,,,,,,,,,,,,,527,18,Woman,Right,4,36,0.4,1,0,-,180,0.3132463000001735,['y'],0.33657620000030875,1.374,1923.8253817999998,,,,,527,18,Woman,Right,
,,,,,,,,,,,,,,,,,527,18,Woman,Right,4,71,0.15,2,180,0,180,4.712761199999932,['y'],0.4393691000000217,1.436,1931.0419345,,,,,527,18,Woman,Right,
,,,,,,,,,,,,,,,,,527,18,Woman,Right,4,23,0.4,2,180,0,0,0.7339793000001009,['y'],0.31941280000000916,1.3820000000000001,1935.6595014,,,,,527,18,Woman,Right,
,,,,,,,,,,,,,,,,,527,18,Woman,Right,4,41,0.4,2,0,180,180,0.3973897000000761,['y'],0.29605720000017755,1.3820000000000001,1935.6595014,,,,,527,18,Woman,Right,
,,,,,,,,,,,,,,,,,527,18,Woman,Right,4,19,0.4,2,180,0,180,0.0237449999999626,['y'],0.1839943999998468,1.5,1940.3173152,,,,,527,18,Woman,Right,
,,,,,,,,,,,,,,,,,527,18,Woman,Right,4,5,1,2,0,180,0,0.051663100000041595,['y'],0.3519606999998359,1.5,1942.6133079,,,,,527,18,Woman,Right,
,,,,,,,,,,,,,,,,,527,18,Woman,Right,4,20,0.4,1,0,-,180,0.11180899999999383,['y'],0.2951508000001013,1.5,1944.9325098,,,,,527,18,Woman,Right,
,,,,,,,,,,,,,,,,,527,18,Woman,Right,4,29,0.4,2,0,180,180,0.24018939999996292,['n'],0.12803320000011809,1.3820000000000001,1947.7083552,,,,,527,18,Woman,Right,
,,,,,,,,,,,,,,,,,527,18,Woman,Right,4,9,0.4,2,0,180,180,0.48198260000026494,['n'],2.0471871999998257,1.388,1952.6433889,,,,,527,18,Woman,Right,
,,,,,,,,,,,,,,,,,527,18,Woman,Right,4,4,1,1,0,-,0,0.36600880000014513,['n'],0.623696000000109,1.3780000000000001,1956.075836,,,,,527,18,Woman,Right,
,,,,,,,,,,,,,,,,,527,18,Woman,Right,4,15,0.4,2,180,0,180,0.6815618000000541,['n'],0.40789519999998447,1.3639999999999999,1960.0250673,,,,,527,18,Woman,Right,
,,,,,,,,,,,,,,,,,527,18,Woman,Right,4,48,0.15,1,0,-,0,0.13927539999986038,['n'],1.1759408000002622,1.354,1963.5435459999999,,,,,527,18,Woman,Right,
,,,,,,,,,,,,,,,,,527,18,Woman,Right,4,47,0.15,2,180,0,0,0.24000589999968724,['n'],0.8475216000001637,1.354,1967.2083917999998,,,,,527,18,Woman,Right,
,,,,,,,,,,,,,,,,,527,18,Woman,Right,4,75,0.15,2,180,0,0,0.41902299999992465,['n'],1.0717024999999012,1.354,1971.5258791,,,,,527,18,Woman,Right,
,,,,,,,,,,,,,,,,,527,18,Woman,Right,4,26,0.4,1,180,-,180,0.12702180000042063,['n'],0.4964780000000246,1.354,1974.3424043,,,,,527,18,Woman,Right,
,,,,,,,,,,,,,,,,,527,18,Woman,Right,4,14,0.4,1,180,-,180,0.14163289999987683,['y'],0.2872552999997424,1.3519999999999999,1977.4918168999998,,,,,527,18,Woman,Right,
,,,,,,,,,,,,,,,,,527,18,Woman,Right,4,51,0.15,2,180,0,180,0.017329700000118464,['y'],0.29905490000010104,1.3359999999999999,1980.258546,,,,,527,18,Woman,Right,
,,,,,,,,,,,,,,,,,527,18,Woman,Right,4,62,0.15,1,180,-,180,0.14078470000004017,['n'],0.3906576999997924,1.318,1983.3084736,,,,,527,18,Woman,Right,
,,,,,,,,,,,,,,,,,527,18,Woman,Right,4,55,0.15,2,180,0,180,0.36288669999976264,['n'],0.5598807999999735,1.318,1983.3084736,,,,,527,18,Woman,Right,
,,,,,,,,,,,,,,,,,527,18,Woman,Right,4,79,0.15,2,180,0,180,0.20970589999978984,['y'],0.3116801999999552,1.242,1989.0752502999999,,,,,527,18,Woman,Right,
,,,,,,,,,,,,,,,,,527,18,Woman,Right,4,65,0.15,2,0,180,180,0.016929099999742903,['y'],0.3848553999996511,1.3319999999999999,1992.5428576999998,,,,,527,18,Woman,Right,
,,,,,,,,,,,,,,,,,527,18,Woman,Right,4,56,0.15,1,0,-,180,0.4056000000000495,['y'],0.10367460000043138,1.3319999999999999,1992.5428576999998,,,,,527,18,Woman,Right,
,,,,,,,,,,,,,,,,,527,18,Woman,Right,4,57,0.15,2,0,180,180,0.10853309999993144,['y'],0.27931290000014997,1.3719999999999999,1997.9585548,,,,,527,18,Woman,Right,
,,,,,,,,,,,,,,,,,527,18,Woman,Right,4,6,1,1,180,-,180,1.0567986000000928,['n'],1.1276717999999164,1.3719999999999999,2002.9585895,,,,,527,18,Woman,Right,
,,,,,,,,,,,,,,,,,527,18,Woman,Right,4,77,0.15,2,0,180,180,0.20544240000026548,['y'],0.5516756000001806,1.3719999999999999,2006.0760000999999,,,,,527,18,Woman,Right,
,,,,,,,,,,,,,,,,,527,18,Woman,Right,4,1,1,2,0,180,180,0.056623599999966245,['y'],1.2481308999999783,1.3599999999999999,2009.8085812999998,,,,,527,18,Woman,Right,
,,,,,,,,,,,,,,,,,527,18,Woman,Right,4,39,0.4,2,180,0,180,0.46715309999990495,['n'],0.5436260000001312,1.434,2013.3586153,,,,,527,18,Woman,Right,
,,,,,,,,,,,,,,,,,527,18,Woman,Right,4,0,1,1,0,-,0,0.19507720000001427,['y'],0.6400530000000799,1.472,2016.2095687,,,,,527,18,Woman,Right,
,,,,,,,,,,,,,,,,,527,18,Woman,Right,4,34,0.4,1,180,-,180,0.04543370000010327,['y'],1.4396441999997478,1.474,2020.2930018000002,,,,,527,18,Woman,Right,
,,,,,,,,,,,,,,,,,527,18,Woman,Right,4,22,0.4,1,180,-,180,0.3199153999998998,['y'],0.36759260000008,1.454,2023.4760605000001,,,,,527,18,Woman,Right,
,,,,,,,,,,,,,,,,,527,18,Woman,Right,4,33,0.4,2,0,180,180,0.016722000000299886,['y'],0.37612650000028225,1.438,2026.5920280999999,,,,,527,18,Woman,Right,
,,,,,,,,,,,,,,,,,527,18,Woman,Right,4,46,0.15,1,180,-,180,0.016544300000077783,['y'],0.8319769999998243,1.216,2030.0919128,,,,,527,18,Woman,Right,
,,,,,,,,,,,,,,,,,527,18,Woman,Right,4,59,0.15,2,180,0,180,0.31917840000005526,['y'],0.2161273000001529,1.116,2033.2086359999998,,,,,527,18,Woman,Right,
,,,,,,,,,,,,,,,,,527,18,Woman,Right,4,66,0.15,1,180,-,180,0.8297262000000956,['n'],1.1039300000002186,1.524,2037.3586642999999,,,,,527,18,Woman,Right,
,,,,,,,,,,,,,,,,,527,18,Woman,Right,4,67,0.15,2,180,0,180,2.2091848000000027,['n'],1.3838513000000603,1.374,2044.0422804999998,,,,,527,18,Woman,Right,
,,,,,,,,,,,,,,,,,527,18,Woman,Right,4,74,0.15,1,180,-,0,0.01683150000008027,['n'],0.3987351000000672,1.354,2047.4587955000002,,,,,527,18,Woman,Right,
,,,,,,,,,,,,,,,,,527,18,Woman,Right,4,35,0.4,2,180,0,180,0.38551349999988815,['y'],0.24764699999968798,1.326,2050.4754404,,,,,527,18,Woman,Right,
,,,,,,,,,,,,,,,,,527,18,Woman,Right,4,32,0.4,1,0,-,180,0.3395328999999947,['n'],0.2476265999998759,1.326,2050.4754404,,,,,527,18,Woman,Right,
,,,,,,,,,,,,,,,,,527,18,Woman,Right,4,68,0.15,1,0,-,180,0.060539300000073126,['y'],0.16863239999975121,1.326,2055.6763476,,,,,527,18,Woman,Right,
,,,,,,,,,,,,,,,,,527,18,Woman,Right,4,3,1,2,180,0,180,0.6264854999999443,['n'],0.0566449000002649,1.326,2058.8096795,,,,,527,18,Woman,Right,
,,,,,,,,,,,,,,,,,527,18,Woman,Right,4,53,0.15,2,0,180,180,0.016677500000241707,['y'],0.3120211999998901,1.326,2058.8096795,,,,,527,18,Woman,Right,
,,,,,,,,,,,,,,,,,527,18,Woman,Right,4,2,1,1,180,-,180,0.41719489999968573,['y'],0.3602395000002616,1.326,2063.8272897,,,,,527,18,Woman,Right,
,,,,,,,,,,,,,,,,,527,18,Woman,Right,4,11,0.4,2,180,0,0,0.017703900000014983,['n'],1.9998716000000059,1.738,2069.6595378,,,,,527,18,Woman,Right,
,,,,,,,,,,,,,,,,,527,18,Woman,Right,4,24,0.4,1,0,-,180,0.016906700000163255,['n'],0.3636577999996007,1.194,2072.8595615,,,,,527,18,Woman,Right,
,,,,,,,,,,,,,,,,,527,18,Woman,Right,4,45,0.15,2,0,180,180,0.3208762999997816,['n'],0.2877480000001924,1.1560000000000001,2075.6588679,,,,,527,18,Woman,Right,
,,,,,,,,,,,,,,,,,527,18,Woman,Right,4,7,1,2,180,0,180,0.01643530000001192,['y'],0.20064259999981005,1.1560000000000001,2078.0262849,,,,,527,18,Woman,Right,
,,,,,,,,,,,,,,,,,527,18,Woman,Right,4,72,0.15,1,0,-,180,0.1717161000001397,['y'],0.06288640000002488,1.31,2080.3921985,,,,,527,18,Woman,Right,
,,,,,,,,,,,,,,,,,527,18,Woman,Right,4,70,0.15,1,180,-,180,0.3476187999999638,['n'],0.31207690000019284,1.858,2083.5921782,,,,,527,18,Woman,Right,
,,,,,,,,,,,,,,,,,527,18,Woman,Right,4,13,0.4,2,0,180,180,0.4387906999995721,['n'],0.856277300000329,1.8559999999999999,2087.1754801,,,,,527,18,Woman,Right,
,,,,,,,,,,,,,,,,,527,18,Woman,Right,4,76,0.15,1,0,-,180,13.479356599999846,['y'],0.5516263000004074,1.822,2103.4930405,,,,,527,18,Woman,Right,
,,,,,,,,,,,,,,,,,527,18,Woman,Right,4,37,0.4,2,0,180,180,0.264851699999781,['n'],0.03897940000024391,1.354,2106.1422284,,,,,527,18,Woman,Right,
,,,,,,,,,,,,,,,,,527,18,Woman,Right,4,27,0.4,2,180,0,180,0.0977975000000697,['n'],0.04004890000032901,1.396,2108.4267319,,,,,527,18,Woman,Right,
,,,,,,,,,,,,,,,,,527,18,Woman,Right,4,54,0.15,1,180,-,180,0.01679320000039297,['n'],0.03895469999997658,1.396,2108.4267319,,,,,527,18,Woman,Right,
,,,,,,,,,,,,,,,,,527,18,Woman,Right,4,28,0.4,1,0,-,180,0.3805483000001004,['y'],1.6232004999997116,1.442,2114.7589559,,,,,527,18,Woman,Right,
,,,,,,,,,,,,,,,,,527,18,Woman,Right,4,31,0.4,2,180,0,0,0.3098461999998108,['y'],0.4079610999997385,1.442,2117.6097653,,,,,527,18,Woman,Right,
,,,,,,,,,,,,,,,,,527,18,Woman,Right,4,17,0.4,2,0,180,0,0.25766410000005635,['y'],0.3033657000000858,1.442,2120.6097546,,,,,527,18,Woman,Right,
,,,,,,,,,,,,,,,,,527,18,Woman,Right,4,69,0.15,2,0,180,180,0.1281779999999344,['y'],0.26332730000012816,1.442,2123.3756620999998,,,,,527,18,Woman,Right,
,,,,,,,,,,,,,,,,,527,18,Woman,Right,4,52,0.15,1,0,-,0,0.017992000000049302,['y'],0.4134358000001157,1.442,2126.4264749,,,,,527,18,Woman,Right,
,,,,,,,,,,,,,,,,,527,18,Woman,Right,4,60,0.15,1,0,-,0,0.19887340000013864,['y'],0.47214020000001256,1.442,2129.2431177,,,,,527,18,Woman,Right,
,,,,,,,,,,,,,,,,,527,18,Woman,Right,4,25,0.4,2,0,180,180,0.46638549999988754,['y'],5.680400799999916,1.612,2138.1590574,,,,,527,18,Woman,Right,
,,,,,,,,,,,,,,,,,527,18,Woman,Right,4,30,0.4,1,180,-,180,0.1720234999997956,['y'],0.1440229999998337,1.612,2140.6601003,,,,,527,18,Woman,Right,
,,,,,,,,,,,,,,,,,527,18,Woman,Right,4,50,0.15,1,180,-,180,0.6889474000004157,['n'],0.3601767000000109,1.612,2144.4596953,,,,,527,18,Woman,Right,
,,,,,,,,,,,,,,,,,527,18,Woman,Right,4,49,0.15,2,0,180,180,0.3020929999997861,['n'],4.360170100000232,1.612,2151.6091489,,,,,527,18,Woman,Right,
,,,,,,,,,,,,,,,,,527,18,Woman,Right,4,38,0.4,1,180,-,180,3.317318900000373,['n'],1.0479717999996865,1.612,2158.1094648,,,,,527,18,Woman,Right,
,,,,,,,,,,,,,,,,,527,18,Woman,Right,5,28,0.4,1,0,-,180,0.8481400999999096,['n'],0.32725950000030934,1.57,2164.6260594,62.5,40.0,57.5,,527,18,Woman,Right,
,,,,,,,,,,,,,,,,,527,18,Woman,Right,5,67,0.15,2,180,0,180,0.017205999999987398,['y'],0.2770536000002721,1.552,2167.0758103,,,,,527,18,Woman,Right,
,,,,,,,,,,,,,,,,,527,18,Woman,Right,5,41,0.4,2,0,180,180,0.5299494000000777,['n'],0.4473523000001478,1.558,2170.4934799,,,,,527,18,Woman,Right,
,,,,,,,,,,,,,,,,,527,18,Woman,Right,5,60,0.15,1,0,-,180,0.016665300000113348,['n'],5.8335275000004,1.562,2178.9258851,,,,,527,18,Woman,Right,
,,,,,,,,,,,,,,,,,527,18,Woman,Right,5,24,0.4,1,0,-,0,0.5366321000001335,['n'],0.8633781999997154,1.558,2182.6936047,,,,,527,18,Woman,Right,
,,,,,,,,,,,,,,,,,527,18,Woman,Right,5,22,0.4,1,180,-,180,0.14410439999983282,['y'],0.47971579999966707,1.554,2185.5932642,,,,,527,18,Woman,Right,
,,,,,,,,,,,,,,,,,527,18,Woman,Right,5,52,0.15,1,0,-,0,0.07700849999991988,['n'],0.9046348000001672,1.552,2189.0599971,,,,,527,18,Woman,Right,
,,,,,,,,,,,,,,,,,527,18,Woman,Right,5,66,0.15,1,180,-,0,9.657232000000022,['n'],1.487230400000044,1.488,2202.8267086,,,,,527,18,Woman,Right,
,,,,,,,,,,,,,,,,,527,18,Woman,Right,5,15,0.4,2,180,0,180,0.928170499999851,['y'],0.3276633000000402,1.324,2207.9101990999998,,,,,527,18,Woman,Right,
,,,,,,,,,,,,,,,,,527,18,Woman,Right,5,49,0.15,2,0,180,180,1.5258106000001135,['y'],0.32835079999995287,1.566,2212.9767585,,,,,527,18,Woman,Right,
,,,,,,,,,,,,,,,,,527,18,Woman,Right,5,37,0.4,2,0,180,180,1.0665963000001284,['y'],0.27156550000017887,1.566,2212.9767585,,,,,527,18,Woman,Right,
,,,,,,,,,,,,,,,,,527,18,Woman,Right,5,19,0.4,2,180,0,180,0.033938900000066496,['n'],0.607813200000237,1.236,2220.1761481,,,,,527,18,Woman,Right,
,,,,,,,,,,,,,,,,,527,18,Woman,Right,5,73,0.15,2,0,180,180,0.7260302999998203,['n'],0.9834801000001789,1.236,2220.1761481,,,,,527,18,Woman,Right,
,,,,,,,,,,,,,,,,,527,18,Woman,Right,5,71,0.15,2,180,0,180,0.45688689999997223,['y'],0.37512080000033166,1.444,2226.5593689,,,,,527,18,Woman,Right,
,,,,,,,,,,,,,,,,,527,18,Woman,Right,5,33,0.4,2,0,180,180,0.5493836000000556,['n'],0.28848500000003696,1.444,2226.5593689,,,,,527,18,Woman,Right,
,,,,,,,,,,,,,,,,,527,18,Woman,Right,5,0,1,1,0,-,0,0.016685900000084075,['y'],0.11793619999980365,1.404,2231.7932462,,,,,527,18,Woman,Right,
,,,,,,,,,,,,,,,,,527,18,Woman,Right,5,27,0.4,2,180,0,0,0.4315793999999187,['n'],0.47968870000022434,1.404,2235.4095814,,,,,527,18,Woman,Right,
,,,,,,,,,,,,,,,,,527,18,Woman,Right,5,54,0.15,1,180,-,180,0.6862240000000384,['n'],2.352331399999912,1.396,2240.6766417,,,,,527,18,Woman,Right,
,,,,,,,,,,,,,,,,,527,18,Woman,Right,5,18,0.4,1,180,-,180,0.40599680000013905,['y'],0.5998343000001114,1.328,2244.5262388,,,,,527,18,Woman,Right,
,,,,,,,,,,,,,,,,,527,18,Woman,Right,5,79,0.15,2,180,0,180,0.022325200000068435,['y'],0.7193936000003305,1.304,2247.4930428,,,,,527,18,Woman,Right,
,,,,,,,,,,,,,,,,,527,18,Woman,Right,5,13,0.4,2,0,180,180,0.2823810999998386,['y'],0.31228779999992184,1.298,2250.2428149,,,,,527,18,Woman,Right,
,,,,,,,,,,,,,,,,,527,18,Woman,Right,5,77,0.15,2,0,180,180,0.016653000000133034,['y'],1.2231621000000814,1.316,2253.8938673,,,,,527,18,Woman,Right,
,,,,,,,,,,,,,,,,,527,18,Woman,Right,5,29,0.4,2,0,180,180,0.5579870999999912,['n'],0.3997976999999082,1.3,2258.0097595,,,,,527,18,Woman,Right,
,,,,,,,,,,,,,,,,,527,18,Woman,Right,5,62,0.15,1,180,-,180,1.2026075999997374,['n'],2.232730100000026,1.3359999999999999,2264.1928281,,,,,527,18,Woman,Right,
,,,,,,,,,,,,,,,,,527,18,Woman,Right,5,3,1,2,180,0,0,0.7944213999999192,['n'],0.5036906000000272,1.38,2267.9271125,,,,,527,18,Woman,Right,
,,,,,,,,,,,,,,,,,527,18,Woman,Right,5,1,1,2,0,180,180,0.6283030999998118,['y'],0.34410469999966153,1.384,2271.4928345,,,,,527,18,Woman,Right,
,,,,,,,,,,,,,,,,,527,18,Woman,Right,5,64,0.15,1,0,-,180,0.2988470000000234,['n'],1.480868300000111,1.312,2275.6105878,,,,,527,18,Woman,Right,
,,,,,,,,,,,,,,,,,527,18,Woman,Right,5,61,0.15,2,0,180,180,1.8980994999997165,['y'],1.39210120000007,1.312,2281.0100722,,,,,527,18,Woman,Right,
,,,,,,,,,,,,,,,,,527,18,Woman,Right,5,38,0.4,1,180,-,180,0.4360129999995479,['n'],2.1276969000000463,1.286,2286.1095936,,,,,527,18,Woman,Right,
,,,,,,,,,,,,,,,,,527,18,Woman,Right,5,26,0.4,1,180,-,180,1.9179653999999573,['y'],0.5768683999999666,1.21,2291.2929966,,,,,527,18,Woman,Right,
,,,,,,,,,,,,,,,,,527,18,Woman,Right,5,43,0.4,2,180,0,180,0.9307217000000492,['y'],0.6159784999999829,1.328,2295.460772,,,,,527,18,Woman,Right,
,,,,,,,,,,,,,,,,,527,18,Woman,Right,5,39,0.4,2,180,0,180,0.015770399999837537,['y'],0.39753410000002987,1.314,2298.1429574,,,,,527,18,Woman,Right,
,,,,,,,,,,,,,,,,,527,18,Woman,Right,5,68,0.15,1,0,-,180,0.3258910000004107,['y'],4.055972399999973,1.254,2306.0103623,,,,,527,18,Woman,Right,
,,,,,,,,,,,,,,,,,527,18,Woman,Right,5,30,0.4,1,180,-,180,0.7772820000000138,['y'],0.4079796000000897,1.254,2309.4936116,,,,,527,18,Woman,Right,
,,,,,,,,,,,,,,,,,527,18,Woman,Right,5,12,0.4,1,0,-,180,0.274755400000231,['y'],0.4722506000002795,1.254,2309.4936116,,,,,527,18,Woman,Right,
,,,,,,,,,,,,,,,,,527,18,Woman,Right,5,47,0.15,2,180,0,180,0.03797080000003916,['y'],0.8391252000001259,1.228,2315.9440113,,,,,527,18,Woman,Right,
,,,,,,,,,,,,,,,,,527,18,Woman,Right,5,69,0.15,2,0,180,180,0.8101758000002519,['y'],0.6962086000003183,1.206,2319.6266912,,,,,527,18,Woman,Right,
,,,,,,,,,,,,,,,,,527,18,Woman,Right,5,76,0.15,1,0,-,180,0.6971156999998129,['y'],1.4799584000002142,1.206,2324.1430444,,,,,527,18,Woman,Right,
,,,,,,,,,,,,,,,,,527,18,Woman,Right,5,45,0.15,2,0,180,180,0.4884204999998474,['y'],0.807814899999812,1.192,2328.2764191,,,,,527,18,Woman,Right,
,,,,,,,,,,,,,,,,,527,18,Woman,Right,5,70,0.15,1,180,-,180,1.566332599999896,['y'],0.5912850999998227,1.188,2332.5600191,,,,,527,18,Woman,Right,
,,,,,,,,,,,,,,,,,527,18,Woman,Right,5,5,1,2,0,180,180,0.3645784000000276,['y'],0.38333700000021054,1.154,2335.6605467,,,,,527,18,Woman,Right,
,,,,,,,,,,,,,,,,,527,18,Woman,Right,5,58,0.15,1,180,-,180,1.189708999999766,['y'],0.8798101000002134,1.1440000000000001,2340.2608615,,,,,527,18,Woman,Right,
,,,,,,,,,,,,,,,,,527,18,Woman,Right,5,36,0.4,1,0,-,180,2.7116117999999005,['y'],0.5353257000001577,1.1440000000000001,2346.4948126,,,,,527,18,Woman,Right,
,,,,,,,,,,,,,,,,,527,18,Woman,Right,5,75,0.15,2,180,0,180,0.36781399999972564,['y'],0.28849280000031285,1.134,2350.7438718,,,,,527,18,Woman,Right,
,,,,,,,,,,,,,,,,,527,18,Woman,Right,5,31,0.4,2,180,0,180,0.2574730000001182,['n'],0.4074709999999868,1.0939999999999999,2353.794283,,,,,527,18,Woman,Right,
,,,,,,,,,,,,,,,,,527,18,Woman,Right,5,6,1,1,180,-,180,0.45074780000004466,['y'],0.870723800000178,1.068,2357.7600124,,,,,527,18,Woman,Right,
,,,,,,,,,,,,,,,,,527,18,Woman,Right,5,10,0.4,1,180,-,180,0.5055621999999858,['y'],0.9040953000003356,1.068,2357.7600124,,,,,527,18,Woman,Right,
,,,,,,,,,,,,,,,,,527,18,Woman,Right,5,7,1,2,180,0,180,0.7578128000000106,['n'],1.303744800000004,1.018,2367.0266329,,,,,527,18,Woman,Right,
,,,,,,,,,,,,,,,,,527,18,Woman,Right,5,9,0.4,2,0,180,180,1.5634730000001582,['y'],0.44886429999996835,1.3719999999999999,2371.3765888,,,,,527,18,Woman,Right,
,,,,,,,,,,,,,,,,,527,18,Woman,Right,5,35,0.4,2,180,0,180,0.31049720000009984,['y'],0.2476371000002473,1.484,2374.3100476,,,,,527,18,Woman,Right,
,,,,,,,,,,,,,,,,,527,18,Woman,Right,5,51,0.15,2,180,0,180,0.6759591,['y'],0.4959876000002623,1.488,2377.6266895,,,,,527,18,Woman,Right,
,,,,,,,,,,,,,,,,,527,18,Woman,Right,5,4,1,1,0,-,0,0.2062473000000864,['y'],0.43150629999990997,1.488,2377.6266895,,,,,527,18,Woman,Right,
,,,,,,,,,,,,,,,,,527,18,Woman,Right,5,42,0.4,1,180,-,0,0.4670015000001513,['y'],0.807760899999721,1.488,2384.0433908,,,,,527,18,Woman,Right,
,,,,,,,,,,,,,,,,,527,18,Woman,Right,5,17,0.4,2,0,180,180,0.2751785000000382,['n'],0.7516209999998864,1.488,2389.8766204,,,,,527,18,Woman,Right,
,,,,,,,,,,,,,,,,,527,18,Woman,Right,5,78,0.15,1,180,-,180,0.016650600000048144,['n'],1.9140834999998333,1.3559999999999999,2394.4266945,,,,,527,18,Woman,Right,
,,,,,,,,,,,,,,,,,527,18,Woman,Right,5,65,0.15,2,0,180,180,0.017130400000041845,['y'],0.3718010000002323,1.324,2397.8940876,,,,,527,18,Woman,Right,
,,,,,,,,,,,,,,,,,527,18,Woman,Right,5,16,0.4,1,0,-,180,0.6172013000000334,['n'],0.8076884999995855,1.324,2401.6106733,,,,,527,18,Woman,Right,
,,,,,,,,,,,,,,,,,527,18,Woman,Right,5,48,0.15,1,0,-,180,0.316244000000097,['y'],0.6155711999999767,1.272,2405.4266389,,,,,527,18,Woman,Right,
,,,,,,,,,,,,,,,,,527,18,Woman,Right,5,53,0.15,2,0,180,180,1.010808100000304,['y'],0.46313129999998637,1.248,2409.3434398,,,,,527,18,Woman,Right,
,,,,,,,,,,,,,,,,,527,18,Woman,Right,5,11,0.4,2,180,0,180,0.016578199999912613,['n'],1.2494549000002735,1.212,2415.1109658,,,,,527,18,Woman,Right,
,,,,,,,,,,,,,,,,,527,18,Woman,Right,5,23,0.4,2,180,0,180,0.01644239999995989,['y'],0.3395261999999093,1.5,2417.6831459,,,,,527,18,Woman,Right,
,,,,,,,,,,,,,,,,,527,18,Woman,Right,5,20,0.4,1,0,-,180,0.18715049999991606,['y'],0.2562046000002738,1.6680000000000001,2420.6601437,,,,,527,18,Woman,Right,
,,,,,,,,,,,,,,,,,527,18,Woman,Right,5,55,0.15,2,180,0,180,0.016679399999702582,['y'],0.2769238000000769,1.6680000000000001,2423.8100977,,,,,527,18,Woman,Right,
,,,,,,,,,,,,,,,,,527,18,Woman,Right,5,14,0.4,1,180,-,180,0.15088920000016515,['n'],0.7353530000000319,1.6680000000000001,2426.8604286,,,,,527,18,Woman,Right,
,,,,,,,,,,,,,,,,,527,18,Woman,Right,5,34,0.4,1,180,-,180,0.11580529999991995,['y'],0.3436399000001984,1.6680000000000001,2429.3773155,,,,,527,18,Woman,Right,
,,,,,,,,,,,,,,,,,527,18,Woman,Right,5,46,0.15,1,180,-,180,0.3661440999999286,['n'],0.3281031999999868,1.68,2432.7101925,,,,,527,18,Woman,Right,
,,,,,,,,,,,,,,,,,527,18,Woman,Right,5,21,0.4,2,0,180,180,0.4168064999998933,['y'],1.256249900000057,1.826,2436.677108,,,,,527,18,Woman,Right,
,,,,,,,,,,,,,,,,,527,18,Woman,Right,5,59,0.15,2,180,0,180,0.27894370000012714,['y'],0.5840484000000288,1.826,2439.6607706,,,,,527,18,Woman,Right,
,,,,,,,,,,,,,,,,,527,18,Woman,Right,5,2,1,1,180,-,180,0.4937067000000752,['y'],0.2161367000003338,1.826,2439.6607706,,,,,527,18,Woman,Right,
,,,,,,,,,,,,,,,,,527,18,Woman,Right,5,8,0.4,1,0,-,180,0.27996140000004743,['y'],0.6081734999997934,1.5,2444.9992584,,,,,527,18,Woman,Right,
,,,,,,,,,,,,,,,,,527,18,Woman,Right,5,56,0.15,1,0,-,180,0.09218420000024707,['y'],0.33630370000037146,1.826,2447.9771102,,,,,527,18,Woman,Right,
,,,,,,,,,,,,,,,,,527,18,Woman,Right,5,40,0.4,1,0,-,0,0.3852363000000878,['y'],0.2712186999997357,1.728,2451.0611282,,,,,527,18,Woman,Right,
,,,,,,,,,,,,,,,,,527,18,Woman,Right,5,25,0.4,2,0,180,180,0.016880700000001525,['y'],0.35008349999998245,1.732,2453.5268123,,,,,527,18,Woman,Right,
,,,,,,,,,,,,,,,,,527,18,Woman,Right,5,50,0.15,1,180,-,180,0.3412389999998595,['y'],0.21565689999988535,1.74,2456.8102316,,,,,527,18,Woman,Right,
,,,,,,,,,,,,,,,,,527,18,Woman,Right,5,63,0.15,2,180,0,180,0.8741473999998561,['n'],0.2882936000000882,1.784,2460.4435602,,,,,527,18,Woman,Right,
,,,,,,,,,,,,,,,,,527,18,Woman,Right,5,72,0.15,1,0,-,180,0.9188159000000269,['y'],1.295810800000254,1.784,2465.0102677,,,,,527,18,Woman,Right,
,,,,,,,,,,,,,,,,,527,18,Woman,Right,5,74,0.15,1,180,-,180,0.3613620000000992,['y'],0.34400970000024245,1.782,2467.8936517,,,,,527,18,Woman,Right,
,,,,,,,,,,,,,,,,,527,18,Woman,Right,5,44,0.15,1,0,-,180,0.5341204999999718,['n'],3.643128700000034,1.774,2476.4268933,,,,,527,18,Woman,Right,
,,,,,,,,,,,,,,,,,527,18,Woman,Right,5,32,0.4,1,0,-,180,1.1139377999998032,['y'],0.7920232000001306,1.772,2481.7437714,,,,,527,18,Woman,Right,
,,,,,,,,,,,,,,,,,527,18,Woman,Right,5,57,0.15,2,0,180,180,0.016931499999827793,['y'],0.7179763000003732,1.716,2484.9436552,,,,,527,18,Woman,Right,
,,,,,,,,,,,,,,,,,,,,,,,,,,,,,,,,,56.25,35.0,70.0,1908.5970632999997,,,,,
