p_block,p_section,p_coherence,p_direction1,p_direction2,p_direction_response,p_direction_RT,p_change_response,p_change_RT,p_confidence,p_full_correct,p_without5_correct,p_full_total,p_without5_total,p_full_avg,p_witout5_avg,p_total_time,sub,age,sex,handedness,loop,trial randomization,coherence,condition,direction1,direction2,direction_response,direction_RT,change_response,change_RT,change_confidence,change_confidence_RT,block_direction_avg,block_stable_avg,block_change_avg,total_time,sub,age,sex,handedness,
1,1,1.0,0,-,0,1.0856518999999025,-,-,-,,,,,,,,552,18,Woman,Right,,,,,,,,,,,,,,,,,552,18,Woman,Right,
1,1,1.0,180,-,180,0.39651309999999285,-,-,-,,,,,,,,552,18,Woman,Right,,,,,,,,,,,,,,,,,552,18,Woman,Right,
1,1,1.0,0,-,0,0.6553237000000536,-,-,-,,,,,,,,552,18,Woman,Right,,,,,,,,,,,,,,,,,552,18,Woman,Right,
1,1,1.0,180,-,180,0.399343300000055,-,-,-,,,,,,,,552,18,Woman,Right,,,,,,,,,,,,,,,,,552,18,Woman,Right,
1,1,1.0,180,-,180,0.016687199999978475,-,-,-,,,,,,,,552,18,Woman,Right,,,,,,,,,,,,,,,,,552,18,Woman,Right,
1,1,1.0,180,-,180,0.016710600000124032,-,-,-,,,,,,,,552,18,Woman,Right,,,,,,,,,,,,,,,,,552,18,Woman,Right,
1,1,1.0,180,-,180,0.016116900000042733,-,-,-,,,,,,,,552,18,Woman,Right,,,,,,,,,,,,,,,,,552,18,Woman,Right,
1,1,1.0,180,-,180,0.01667999999995118,-,-,-,,,,,,,,552,18,Woman,Right,,,,,,,,,,,,,,,,,552,18,Woman,Right,
1,1,1.0,0,-,0,0.7903112999999848,-,-,-,,,,,,,,552,18,Woman,Right,,,,,,,,,,,,,,,,,552,18,Woman,Right,
1,1,1.0,0,-,0,0.01677489999997306,-,-,-,10,10,10,10,1.0,1.0,,552,18,Woman,Right,,,,,,,,,,,,,,,,,552,18,Woman,Right,
2,1,0.4,180,-,180,0.4833856000000196,-,-,-,,,,,,,,552,18,Woman,Right,,,,,,,,,,,,,,,,,552,18,Woman,Right,
2,1,0.4,0,-,0,0.3878418000001602,-,-,-,,,,,,,,552,18,Woman,Right,,,,,,,,,,,,,,,,,552,18,Woman,Right,
2,1,0.4,180,-,180,0.28667270000005374,-,-,-,,,,,,,,552,18,Woman,Right,,,,,,,,,,,,,,,,,552,18,Woman,Right,
2,1,0.15,0,-,0,0.016710399999965375,-,-,-,,,,,,,,552,18,Woman,Right,,,,,,,,,,,,,,,,,552,18,Woman,Right,
2,1,0.15,180,-,0,0.1504227999998875,-,-,-,,,,,,,,552,18,Woman,Right,,,,,,,,,,,,,,,,,552,18,Woman,Right,
2,1,0.4,180,-,180,0.016488900000013018,-,-,-,,,,,,,,552,18,Woman,Right,,,,,,,,,,,,,,,,,552,18,Woman,Right,
2,1,0.15,0,-,0,0.016998399999920366,-,-,-,,,,,,,,552,18,Woman,Right,,,,,,,,,,,,,,,,,552,18,Woman,Right,
2,1,0.4,0,-,180,0.38111770000000433,-,-,-,,,,,,,,552,18,Woman,Right,,,,,,,,,,,,,,,,,552,18,Woman,Right,
2,1,0.4,0,-,0,0.08038540000006833,-,-,-,,,,,,,,552,18,Woman,Right,,,,,,,,,,,,,,,,,552,18,Woman,Right,
2,1,0.15,180,-,0,0.6477317999999741,-,-,-,7,5,10,6,0.7,0.8333333333333334,,552,18,Woman,Right,,,,,,,,,,,,,,,,,552,18,Woman,Right,
3,2,1.0,180,0,0,3.547039600000062,['y'],3.4940458000000945,2.0,,,,,,,,552,18,Woman,Right,,,,,,,,,,,,,,,,,552,18,Woman,Right,
3,2,1.0,0,180,180,1.8717037999999775,['y'],2.2549384000001282,2.0,,,,,,,,552,18,Woman,Right,,,,,,,,,,,,,,,,,552,18,Woman,Right,
3,2,1.0,180,0,0,0.9368150000000242,['y'],1.0118360999999823,2.0,,,,,,,,552,18,Woman,Right,,,,,,,,,,,,,,,,,552,18,Woman,Right,
3,2,1.0,0,180,180,1.1643075999998018,['y'],0.6323511999999027,2.0,,,,,,,,552,18,Woman,Right,,,,,,,,,,,,,,,,,552,18,Woman,Right,
3,2,1.0,0,180,180,0.854299200000014,['y'],0.7327367999998842,2.0,,,,,,,,552,18,Woman,Right,,,,,,,,,,,,,,,,,552,18,Woman,Right,
3,2,1.0,0,180,180,1.0107963000000382,['y'],0.2841844999998102,2.0,,,,,,,,552,18,Woman,Right,,,,,,,,,,,,,,,,,552,18,Woman,Right,
3,2,1.0,0,180,180,0.7044299999997747,['y'],0.40527879999990546,2.0,,,,,,,,552,18,Woman,Right,,,,,,,,,,,,,,,,,552,18,Woman,Right,
3,2,1.0,0,180,180,0.5127821999999469,['y'],0.3258740000001126,2.0,,,,,,,,552,18,Woman,Right,,,,,,,,,,,,,,,,,552,18,Woman,Right,
3,2,1.0,180,0,0,1.047011399999974,['y'],0.25496830000020054,2.0,,,,,,,,552,18,Woman,Right,,,,,,,,,,,,,,,,,552,18,Woman,Right,
3,2,1.0,0,180,180,0.7467271000000437,['y'],0.2549728999997569,2.0,10,10,10,10,1.0,1.0,,552,18,Woman,Right,,,,,,,,,,,,,,,,,552,18,Woman,Right,
4,2,0.15,180,0,180,1.2835413000002518,['n'],2.5104858999998214,1.0,,,,,,,,552,18,Woman,Right,,,,,,,,,,,,,,,,,552,18,Woman,Right,
4,2,0.4,0,180,180,0.9948053999996773,['y'],0.9972222999999758,2.0,,,,,,,,552,18,Woman,Right,,,,,,,,,,,,,,,,,552,18,Woman,Right,
4,2,0.4,180,0,0,1.0042002000000139,['y'],0.5657401999997091,2.0,,,,,,,,552,18,Woman,Right,,,,,,,,,,,,,,,,,552,18,Woman,Right,
4,2,0.4,180,0,0,0.7760213999999905,['y'],0.2830715999998574,2.0,,,,,,,,552,18,Woman,Right,,,,,,,,,,,,,,,,,552,18,Woman,Right,
4,2,0.15,180,0,180,1.802948699999888,['n'],1.516529300000002,1.112,,,,,,,,552,18,Woman,Right,,,,,,,,,,,,,,,,,552,18,Woman,Right,
4,2,0.15,180,0,0,0.6460540000002766,['n'],1.3817770000000564,1.296,,,,,,,,552,18,Woman,Right,,,,,,,,,,,,,,,,,552,18,Woman,Right,
4,2,0.4,180,0,0,0.7107731999999487,['y'],0.3409580000002279,2.0,,,,,,,,552,18,Woman,Right,,,,,,,,,,,,,,,,,552,18,Woman,Right,
4,2,0.15,180,0,0,1.2262421999998878,['y'],0.8667940000000272,2.0,,,,,,,,552,18,Woman,Right,,,,,,,,,,,,,,,,,552,18,Woman,Right,
4,2,0.4,0,180,180,0.9967207999998209,['y'],1.2783398999999918,2.0,,,,,,,,552,18,Woman,Right,,,,,,,,,,,,,,,,,552,18,Woman,Right,
4,2,0.15,0,180,180,0.7866528999998081,['n'],0.2934951000002002,2.0,8,5,10,5,0.8,1.0,,552,18,Woman,Right,,,,,,,,,,,,,,,,,552,18,Woman,Right,
5,3,1.0,180,0,0,0.9108249999999316,['y'],0.2681380000003628,2.0,,,,,,,,552,18,Woman,Right,,,,,,,,,,,,,,,,,552,18,Woman,Right,
5,3,0.15,180,-,0,1.3101527000003443,['n'],1.3783705999999256,2.0,,,,,,,,552,18,Woman,Right,,,,,,,,,,,,,,,,,552,18,Woman,Right,
5,3,1.0,0,180,180,0.87538399999994,['y'],1.1382450999999492,2.0,,,,,,,,552,18,Woman,Right,,,,,,,,,,,,,,,,,552,18,Woman,Right,
5,3,1.0,0,-,0,1.0683969000001525,['n'],3.4196523000000525,2.0,,,,,,,,552,18,Woman,Right,,,,,,,,,,,,,,,,,552,18,Woman,Right,
5,3,0.15,0,180,0,1.124171799999658,['n'],1.9127860000003238,1.066,,,,,,,,552,18,Woman,Right,,,,,,,,,,,,,,,,,552,18,Woman,Right,
5,3,0.15,180,-,0,1.958973799999967,['y'],1.3936299000001782,1.266,,,,,,,,552,18,Woman,Right,,,,,,,,,,,,,,,,,552,18,Woman,Right,
5,3,0.4,0,180,180,0.9670911000002889,['y'],0.32063590000007025,2.0,,,,,,,,552,18,Woman,Right,,,,,,,,,,,,,,,,,552,18,Woman,Right,
5,3,0.4,180,0,0,0.45017150000012407,['y'],0.3819472999998652,2.0,,,,,,,,552,18,Woman,Right,,,,,,,,,,,,,,,,,552,18,Woman,Right,
5,3,1.0,0,180,180,0.919979400000102,['y'],0.3247455999999147,2.0,,,,,,,,552,18,Woman,Right,,,,,,,,,,,,,,,,,552,18,Woman,Right,
5,3,0.15,0,180,180,1.8358683999999812,['n'],0.44416699999965203,1.268,7,6,10,6,0.7,1.0,,552,18,Woman,Right,,,,,,,,,,,,,,,,,552,18,Woman,Right,
,,,,,,,,,,,,,,,,5.299999884300632e-06,552,18,Woman,Right,,,,,,,,,,,,,,,,,552,18,Woman,Right,
,,,,,,,,,,,,,,,,,552,18,Woman,Right,0,61,0.15,2,0,180,180,0.8893327000000681,['n'],1.9028318000000581,1.3900000000000001,284.43426980000004,,,,,552,18,Woman,Right,
,,,,,,,,,,,,,,,,,552,18,Woman,Right,0,15,0.4,2,180,0,0,0.557743599999867,['y'],1.3830275999998776,1.8780000000000001,289.56754150000006,,,,,552,18,Woman,Right,
,,,,,,,,,,,,,,,,,552,18,Woman,Right,0,71,0.15,2,180,0,180,1.3667884999999842,['y'],2.21475670000018,1.62,298.03415600000017,,,,,552,18,Woman,Right,
,,,,,,,,,,,,,,,,,552,18,Woman,Right,0,31,0.4,2,180,0,0,0.37920320000012,['y'],1.2949751999999535,2.0,303.6342334000001,,,,,552,18,Woman,Right,
,,,,,,,,,,,,,,,,,552,18,Woman,Right,0,52,0.15,1,0,-,180,2.4500990000001366,['n'],1.3507549000000836,1.3439999999999999,311.95095519999995,,,,,552,18,Woman,Right,
,,,,,,,,,,,,,,,,,552,18,Woman,Right,0,70,0.15,1,180,-,180,4.610592900000029,['n'],1.1909848000000238,1.434,321.9675559000002,,,,,552,18,Woman,Right,
,,,,,,,,,,,,,,,,,552,18,Woman,Right,0,75,0.15,2,180,0,180,4.435927699999866,['y'],1.6469765000001644,1.298,331.7342428000002,,,,,552,18,Woman,Right,
,,,,,,,,,,,,,,,,,552,18,Woman,Right,0,42,0.4,1,180,-,180,0.7352660000001379,['n'],1.0068469000002551,2.0,337.2677533000001,,,,,552,18,Woman,Right,
,,,,,,,,,,,,,,,,,552,18,Woman,Right,0,5,1,2,0,180,180,0.6828638000001774,['y'],1.1025546000000759,2.0,342.26784309999994,,,,,552,18,Woman,Right,
,,,,,,,,,,,,,,,,,552,18,Woman,Right,0,46,0.15,1,180,-,180,1.284108599999854,['n'],1.9670743000001494,1.748,348.6843431000002,,,,,552,18,Woman,Right,
,,,,,,,,,,,,,,,,,552,18,Woman,Right,0,41,0.4,2,0,180,180,0.7629351999999017,['y'],5.367068999999901,1.6179999999999999,359.5844975,,,,,552,18,Woman,Right,
,,,,,,,,,,,,,,,,,552,18,Woman,Right,0,33,0.4,2,0,180,180,0.6024262999999337,['y'],0.8070208999997703,1.6059999999999999,365.43453120000004,,,,,552,18,Woman,Right,
,,,,,,,,,,,,,,,,,552,18,Woman,Right,0,55,0.15,2,180,0,180,1.247168899999906,['y'],3.2228587999998126,1.55,374.7010203,,,,,552,18,Woman,Right,
,,,,,,,,,,,,,,,,,552,18,Woman,Right,0,3,1,2,180,0,0,0.6623469000001023,['y'],0.9508992000000944,1.728,379.68500270000004,,,,,552,18,Woman,Right,
,,,,,,,,,,,,,,,,,552,18,Woman,Right,0,47,0.15,2,180,0,180,0.8331075000000965,['n'],1.3909420999998474,1.674,385.3343169,,,,,552,18,Woman,Right,
,,,,,,,,,,,,,,,,,552,18,Woman,Right,0,32,0.4,1,0,-,0,0.7923353000001043,['n'],1.094962900000155,1.638,390.2175579999998,,,,,552,18,Woman,Right,
,,,,,,,,,,,,,,,,,552,18,Woman,Right,0,23,0.4,2,180,0,0,0.6127657000001818,['y'],1.078974399999879,1.704,395.2509832999999,,,,,552,18,Woman,Right,
,,,,,,,,,,,,,,,,,552,18,Woman,Right,0,7,1,2,180,0,0,0.425093299999844,['y'],1.1669259999998758,1.702,400.1676444999998,,,,,552,18,Woman,Right,
,,,,,,,,,,,,,,,,,552,18,Woman,Right,0,76,0.15,1,0,-,180,1.00851750000038,['n'],1.1431594000000587,1.416,405.73506399999997,,,,,552,18,Woman,Right,
,,,,,,,,,,,,,,,,,552,18,Woman,Right,0,66,0.15,1,180,-,180,1.5831856999998308,['n'],0.9029136999997718,1.374,411.6843054000001,,,,,552,18,Woman,Right,
,,,,,,,,,,,,,,,,,552,18,Woman,Right,0,16,0.4,1,0,-,0,0.8491392999999334,['n'],0.9349766000000272,1.572,416.5179081000001,,,,,552,18,Woman,Right,
,,,,,,,,,,,,,,,,,552,18,Woman,Right,0,74,0.15,1,180,-,0,1.8250734000002922,['n'],1.2795731999999589,1.1440000000000001,423.0843721000001,,,,,552,18,Woman,Right,
,,,,,,,,,,,,,,,,,552,18,Woman,Right,0,22,0.4,1,180,-,180,0.6489438999997219,['n'],0.8866643999999724,1.6139999999999999,428.00093419999985,,,,,552,18,Woman,Right,
,,,,,,,,,,,,,,,,,552,18,Woman,Right,0,19,0.4,2,180,0,0,0.5165620000002491,['y'],1.3666386999998394,1.748,432.8843442000002,,,,,552,18,Woman,Right,
,,,,,,,,,,,,,,,,,552,18,Woman,Right,0,49,0.15,2,0,180,180,0.7924606999999924,['n'],1.278914900000018,1.596,437.934389,,,,,552,18,Woman,Right,
,,,,,,,,,,,,,,,,,552,18,Woman,Right,0,18,0.4,1,180,-,180,1.1345962999998846,['n'],0.9511763000000428,1.786,443.1179130999999,,,,,552,18,Woman,Right,
,,,,,,,,,,,,,,,,,552,18,Woman,Right,0,40,0.4,1,0,-,0,0.745154900000216,['n'],1.2232843000001594,1.876,449.51812440000003,,,,,552,18,Woman,Right,
,,,,,,,,,,,,,,,,,552,18,Woman,Right,0,64,0.15,1,0,-,180,0.6981688999999278,['n'],1.5674096999996436,1.342,455.3681981999998,,,,,552,18,Woman,Right,
,,,,,,,,,,,,,,,,,552,18,Woman,Right,0,58,0.15,1,180,-,180,0.5539953999996214,['n'],1.111022800000228,1.3519999999999999,460.0177322999998,,,,,552,18,Woman,Right,
,,,,,,,,,,,,,,,,,552,18,Woman,Right,0,37,0.4,2,0,180,180,0.698070099999768,['y'],0.8949445000002925,1.91,465.6011174,,,,,552,18,Woman,Right,
,,,,,,,,,,,,,,,,,552,18,Woman,Right,0,25,0.4,2,0,180,180,0.7710256999998819,['y'],0.9108695999998417,1.766,470.8844471000002,,,,,552,18,Woman,Right,
,,,,,,,,,,,,,,,,,552,18,Woman,Right,0,44,0.15,1,0,-,0,0.7294206999999915,['n'],0.8553188999999293,1.3780000000000001,476.7678249999999,,,,,552,18,Woman,Right,
,,,,,,,,,,,,,,,,,552,18,Woman,Right,0,29,0.4,2,0,180,180,0.6557453000000351,['y'],0.8548786000001201,1.858,481.7346716000002,,,,,552,18,Woman,Right,
,,,,,,,,,,,,,,,,,552,18,Woman,Right,0,11,0.4,2,180,0,0,0.6682441000002655,['y'],0.6229589999998097,2.0,486.1178267,,,,,552,18,Woman,Right,
,,,,,,,,,,,,,,,,,552,18,Woman,Right,0,72,0.15,1,0,-,180,1.9381258000003072,['n'],1.038927699999931,1.544,492.4177810000001,,,,,552,18,Woman,Right,
,,,,,,,,,,,,,,,,,552,18,Woman,Right,0,38,0.4,1,180,-,180,0.8435954999999922,['n'],1.2392754000002242,1.8719999999999999,497.6847412000002,,,,,552,18,Woman,Right,
,,,,,,,,,,,,,,,,,552,18,Woman,Right,0,69,0.15,2,0,180,180,0.7850358999999116,['n'],0.9032423000003291,1.3940000000000001,502.51802720000023,,,,,552,18,Woman,Right,
,,,,,,,,,,,,,,,,,552,18,Woman,Right,0,62,0.15,1,180,-,180,1.0525218000002496,['n'],0.7350057000003289,1.432,507.48445489999995,,,,,552,18,Woman,Right,
,,,,,,,,,,,,,,,,,552,18,Woman,Right,0,1,1,2,0,180,180,0.7172236999999768,['y'],0.6206058000002486,2.0,512.1679042000001,,,,,552,18,Woman,Right,
,,,,,,,,,,,,,,,,,552,18,Woman,Right,0,24,0.4,1,0,-,0,1.0403566999998475,['n'],0.7751720999999634,1.744,517.1177877,,,,,552,18,Woman,Right,
,,,,,,,,,,,,,,,,,552,18,Woman,Right,0,26,0.4,1,180,-,180,0.7143533000003117,['n'],1.063455200000135,1.688,522.1346591000001,,,,,552,18,Woman,Right,
,,,,,,,,,,,,,,,,,552,18,Woman,Right,0,14,0.4,1,180,-,180,0.2781112999996367,['n'],1.0624637999999322,1.676,526.5178414000002,,,,,552,18,Woman,Right,
,,,,,,,,,,,,,,,,,552,18,Woman,Right,0,39,0.4,2,180,0,0,0.42413630000010016,['y'],1.0789417000000867,1.5939999999999999,531.2511745000002,,,,,552,18,Woman,Right,
,,,,,,,,,,,,,,,,,552,18,Woman,Right,0,57,0.15,2,0,180,180,1.6309449999998833,['y'],1.3589661999999407,1.422,537.6346887999998,,,,,552,18,Woman,Right,
,,,,,,,,,,,,,,,,,552,18,Woman,Right,0,35,0.4,2,180,0,0,0.37296089999972537,['y'],0.6790753000000223,1.74,541.3847150000001,,,,,552,18,Woman,Right,
,,,,,,,,,,,,,,,,,552,18,Woman,Right,0,50,0.15,1,180,-,180,1.0666882999998961,['n'],0.9363763999999719,1.196,546.7011868,,,,,552,18,Woman,Right,
,,,,,,,,,,,,,,,,,552,18,Woman,Right,0,59,0.15,2,180,0,0,0.5729194000000462,['y'],0.7349445999998352,1.836,551.1348099000002,,,,,552,18,Woman,Right,
,,,,,,,,,,,,,,,,,552,18,Woman,Right,0,2,1,1,180,-,180,0.5723244000000705,['n'],0.6789895000001707,1.9,555.8011277999999,,,,,552,18,Woman,Right,
,,,,,,,,,,,,,,,,,552,18,Woman,Right,0,48,0.15,1,0,-,0,0.5175978000002033,['n'],0.9427022999998371,1.366,560.1681008,,,,,552,18,Woman,Right,
,,,,,,,,,,,,,,,,,552,18,Woman,Right,0,34,0.4,1,180,-,180,0.7683159000002888,['n'],0.8546794999997473,1.6360000000000001,565.1178534000001,,,,,552,18,Woman,Right,
,,,,,,,,,,,,,,,,,552,18,Woman,Right,0,0,1,1,0,-,0,0.6655418999998801,['n'],0.9669975000001614,1.754,569.5845647000001,,,,,552,18,Woman,Right,
,,,,,,,,,,,,,,,,,552,18,Woman,Right,0,13,0.4,2,0,180,180,0.6451138000002175,['y'],0.7430546000000504,1.8679999999999999,574.4011541,,,,,552,18,Woman,Right,
,,,,,,,,,,,,,,,,,552,18,Woman,Right,0,6,1,1,180,-,180,0.8233471000003192,['n'],0.6388509000003069,1.946,579.1345944999998,,,,,552,18,Woman,Right,
,,,,,,,,,,,,,,,,,552,18,Woman,Right,0,51,0.15,2,180,0,0,0.6318772999998146,['y'],1.174488399999973,1.76,583.6845395999999,,,,,552,18,Woman,Right,
,,,,,,,,,,,,,,,,,552,18,Woman,Right,0,28,0.4,1,0,-,0,0.34145519999992757,['n'],0.9270863000001555,1.752,588.1012531000001,,,,,552,18,Woman,Right,
,,,,,,,,,,,,,,,,,552,18,Woman,Right,0,77,0.15,2,0,180,0,0.8948277999998027,['n'],0.7829983000001448,1.6059999999999999,594.3679006000002,,,,,552,18,Woman,Right,
,,,,,,,,,,,,,,,,,552,18,Woman,Right,0,67,0.15,2,180,0,0,1.965468299999884,['y'],0.5670113999999558,1.396,600.2514452999999,,,,,552,18,Woman,Right,
,,,,,,,,,,,,,,,,,552,18,Woman,Right,0,4,1,1,0,-,0,0.2819414999999026,['n'],0.9192391000001408,1.794,605.4012278,,,,,552,18,Woman,Right,
,,,,,,,,,,,,,,,,,552,18,Woman,Right,0,53,0.15,2,0,180,0,2.1395274000001336,['y'],1.1347743000001174,1.5979999999999999,611.9179091000001,,,,,552,18,Woman,Right,
,,,,,,,,,,,,,,,,,552,18,Woman,Right,0,8,0.4,1,0,-,0,0.9101061000001209,['n'],1.1272616999999627,1.768,617.1682421,,,,,552,18,Woman,Right,
,,,,,,,,,,,,,,,,,552,18,Woman,Right,0,65,0.15,2,0,180,180,1.2181455999998434,['n'],1.8313806999999542,1.3940000000000001,623.3512494000001,,,,,552,18,Woman,Right,
,,,,,,,,,,,,,,,,,552,18,Woman,Right,0,73,0.15,2,0,180,180,0.7783048999999664,['n'],0.8628229999999348,1.038,629.2012184,,,,,552,18,Woman,Right,
,,,,,,,,,,,,,,,,,552,18,Woman,Right,0,30,0.4,1,180,-,180,0.40620469999976194,['y'],1.495203599999968,1.362,634.7347392000001,,,,,552,18,Woman,Right,
,,,,,,,,,,,,,,,,,552,18,Woman,Right,0,68,0.15,1,0,-,0,0.2585957999999664,['n'],2.118854000000283,1.884,640.8681356000002,,,,,552,18,Woman,Right,
,,,,,,,,,,,,,,,,,552,18,Woman,Right,0,27,0.4,2,180,0,0,0.34597149999990506,['y'],0.6869455000000926,1.77,644.9847030999999,,,,,552,18,Woman,Right,
,,,,,,,,,,,,,,,,,552,18,Woman,Right,0,21,0.4,2,0,180,180,0.41996049999988827,['y'],0.8871834999999919,1.796,650.1347691000001,,,,,552,18,Woman,Right,
,,,,,,,,,,,,,,,,,552,18,Woman,Right,0,17,0.4,2,0,180,180,0.378698600000007,['y'],1.422911699999986,1.806,654.9013501999998,,,,,552,18,Woman,Right,
,,,,,,,,,,,,,,,,,552,18,Woman,Right,0,12,0.4,1,0,-,180,0.4812809999998535,['y'],0.9030227000002924,1.794,659.3846383999999,,,,,552,18,Woman,Right,
,,,,,,,,,,,,,,,,,552,18,Woman,Right,0,36,0.4,1,0,-,180,3.727479399999993,['y'],1.9352265000002262,1.3719999999999999,668.1346103999999,,,,,552,18,Woman,Right,
,,,,,,,,,,,,,,,,,552,18,Woman,Right,0,60,0.15,1,0,-,0,0.4787605999999869,['y'],1.8073434000002635,1.842,673.7680110000001,,,,,552,18,Woman,Right,
,,,,,,,,,,,,,,,,,552,18,Woman,Right,0,56,0.15,1,0,-,180,1.8188556000000062,['n'],1.119177900000068,1.294,679.9183736,,,,,552,18,Woman,Right,
,,,,,,,,,,,,,,,,,552,18,Woman,Right,0,9,0.4,2,0,180,0,0.45398830000021917,['y'],4.335094200000185,1.808,689.0012532999999,,,,,552,18,Woman,Right,
,,,,,,,,,,,,,,,,,552,18,Woman,Right,0,78,0.15,1,180,-,180,0.9479271999998673,['n'],1.095001400000001,1.042,694.2348778999999,,,,,552,18,Woman,Right,
,,,,,,,,,,,,,,,,,552,18,Woman,Right,0,20,0.4,1,0,-,0,0.6099763000001985,['y'],0.7912323999998989,1.816,698.6847693999998,,,,,552,18,Woman,Right,
,,,,,,,,,,,,,,,,,552,18,Woman,Right,0,54,0.15,1,180,-,0,0.8793711999996958,['n'],1.1107993000000533,1.452,703.9180500000002,,,,,552,18,Woman,Right,
,,,,,,,,,,,,,,,,,552,18,Woman,Right,0,45,0.15,2,0,180,0,0.6466860000000452,['y'],1.0472665000002053,1.244,709.4346882,,,,,552,18,Woman,Right,
,,,,,,,,,,,,,,,,,552,18,Woman,Right,0,63,0.15,2,180,0,0,0.5793762000002971,['y'],1.0709059999999226,2.0,714.0846723,,,,,552,18,Woman,Right,
,,,,,,,,,,,,,,,,,552,18,Woman,Right,0,10,0.4,1,180,-,180,0.6385582000002614,['y'],1.5674003999997694,1.24,719.8345911000001,,,,,552,18,Woman,Right,
,,,,,,,,,,,,,,,,,552,18,Woman,Right,0,79,0.15,2,180,0,180,0.7272594000000936,['y'],1.8068656000000374,1.6219999999999999,725.7847624000001,,,,,552,18,Woman,Right,
,,,,,,,,,,,,,,,,,552,18,Woman,Right,0,43,0.4,2,180,0,0,0.40126120000013543,['y'],0.7189152999999351,1.774,730.3182984,,,,,552,18,Woman,Right,
,,,,,,,,,,,,,,,,,552,18,Woman,Right,1,17,0.4,2,0,180,180,0.5498906999996507,['y'],2.3271217000001343,1.842,756.5347947999999,77.5,85.0,82.5,,552,18,Woman,Right,
,,,,,,,,,,,,,,,,,552,18,Woman,Right,1,74,0.15,1,180,-,180,1.2166314999999486,['n'],0.9748786000000109,1.3559999999999999,762.3681535000001,,,,,552,18,Woman,Right,
,,,,,,,,,,,,,,,,,552,18,Woman,Right,1,15,0.4,2,180,0,0,0.3658932999996978,['y'],0.7188234000000193,1.822,766.5349686,,,,,552,18,Woman,Right,
,,,,,,,,,,,,,,,,,552,18,Woman,Right,1,37,0.4,2,0,180,180,0.35656810000000405,['y'],0.9832163999999466,1.6480000000000001,771.9347785999998,,,,,552,18,Woman,Right,
,,,,,,,,,,,,,,,,,552,18,Woman,Right,1,71,0.15,2,180,0,180,0.5427292999997917,['y'],1.2790408000000753,1.888,776.9182644000002,,,,,552,18,Woman,Right,
,,,,,,,,,,,,,,,,,552,18,Woman,Right,1,41,0.4,2,0,180,180,0.40512930000022607,['y'],0.775285900000199,1.9,781.7523603,,,,,552,18,Woman,Right,
,,,,,,,,,,,,,,,,,552,18,Woman,Right,1,19,0.4,2,180,0,0,0.3114654999999402,['y'],0.999000000000251,2.0,786.9682704000002,,,,,552,18,Woman,Right,
,,,,,,,,,,,,,,,,,552,18,Woman,Right,1,10,0.4,1,180,-,180,1.196211299999959,['y'],2.2148003000002063,1.38,793.6514268000001,,,,,552,18,Woman,Right,
,,,,,,,,,,,,,,,,,552,18,Woman,Right,1,23,0.4,2,180,0,0,0.3539048000002367,['y'],0.8713530999998511,2.0,797.6850290000002,,,,,552,18,Woman,Right,
,,,,,,,,,,,,,,,,,552,18,Woman,Right,1,8,0.4,1,0,-,0,0.727958800000124,['n'],0.9190996000002087,2.0,801.9690286,,,,,552,18,Woman,Right,
,,,,,,,,,,,,,,,,,552,18,Woman,Right,1,75,0.15,2,180,0,180,0.7511773000001085,['n'],1.1112261000002945,1.35,806.4180692999998,,,,,552,18,Woman,Right,
,,,,,,,,,,,,,,,,,552,18,Woman,Right,1,60,0.15,1,0,-,180,0.7386093999998593,['n'],0.8632942000003823,1.3559999999999999,811.1183227000001,,,,,552,18,Woman,Right,
,,,,,,,,,,,,,,,,,552,18,Woman,Right,1,27,0.4,2,180,0,0,0.36520259999997506,['y'],0.6790774999999485,1.8519999999999999,815.3347035000002,,,,,552,18,Woman,Right,
,,,,,,,,,,,,,,,,,552,18,Woman,Right,1,39,0.4,2,180,0,0,0.14321539999991728,['y'],0.8315502999998898,1.85,820.1015493999998,,,,,552,18,Woman,Right,
,,,,,,,,,,,,,,,,,552,18,Woman,Right,1,77,0.15,2,0,180,180,0.6739459999998871,['y'],0.6309009000001424,1.85,824.6347897999999,,,,,552,18,Woman,Right,
,,,,,,,,,,,,,,,,,552,18,Woman,Right,1,54,0.15,1,180,-,0,1.4724581000000398,['n'],0.6392028999998729,1.162,832.4181623,,,,,552,18,Woman,Right,
,,,,,,,,,,,,,,,,,552,18,Woman,Right,1,35,0.4,2,180,0,0,0.5495163999999022,['y'],1.134900000000016,1.782,837.9684664000001,,,,,552,18,Woman,Right,
,,,,,,,,,,,,,,,,,552,18,Woman,Right,1,46,0.15,1,180,-,180,0.7564030000003186,['y'],1.4079415000001063,1.444,843.2691278000002,,,,,552,18,Woman,Right,
,,,,,,,,,,,,,,,,,552,18,Woman,Right,1,36,0.4,1,0,-,0,0.8168310999999449,['n'],2.2661204999999427,1.82,849.6514378000002,,,,,552,18,Woman,Right,
,,,,,,,,,,,,,,,,,552,18,Woman,Right,1,9,0.4,2,0,180,180,0.3971244999997907,['y'],1.5431917999999314,1.6600000000000001,857.2683059999999,,,,,552,18,Woman,Right,
,,,,,,,,,,,,,,,,,552,18,Woman,Right,1,56,0.15,1,0,-,180,0.8691756000002897,['y'],0.7432149999999638,1.6280000000000001,861.7518264999999,,,,,552,18,Woman,Right,
,,,,,,,,,,,,,,,,,552,18,Woman,Right,1,42,0.4,1,180,-,180,0.8484564000000319,['y'],0.5833427000002303,1.142,866.3517178000002,,,,,552,18,Woman,Right,
,,,,,,,,,,,,,,,,,552,18,Woman,Right,1,25,0.4,2,0,180,180,0.6311226000002534,['n'],1.063046900000245,1.78,873.1515328,,,,,552,18,Woman,Right,
,,,,,,,,,,,,,,,,,552,18,Woman,Right,1,0,1,1,0,-,0,0.7291138999999021,['n'],0.8068996000001789,1.78,877.4351258000002,,,,,552,18,Woman,Right,
,,,,,,,,,,,,,,,,,552,18,Woman,Right,1,53,0.15,2,0,180,0,2.2878911000002518,['y'],1.2148874999998043,1.474,884.3183018999998,,,,,552,18,Woman,Right,
,,,,,,,,,,,,,,,,,552,18,Woman,Right,1,21,0.4,2,0,180,180,0.5176764000002549,['y'],0.9909012999996776,1.758,888.9848381000002,,,,,552,18,Woman,Right,
,,,,,,,,,,,,,,,,,552,18,Woman,Right,1,48,0.15,1,0,-,0,1.0024538000002394,['y'],0.9829048999999941,1.27,893.8182196000002,,,,,552,18,Woman,Right,
,,,,,,,,,,,,,,,,,552,18,Woman,Right,1,50,0.15,1,180,-,0,1.0404763000001367,['y'],0.775101999999606,1.47,898.9518085,,,,,552,18,Woman,Right,
,,,,,,,,,,,,,,,,,552,18,Woman,Right,1,59,0.15,2,180,0,180,2.669028299999809,['y'],1.4791226000002098,1.888,905.8182333,,,,,552,18,Woman,Right,
,,,,,,,,,,,,,,,,,552,18,Woman,Right,1,30,0.4,1,180,-,180,0.9016603000000032,['n'],0.36698070000011285,1.6680000000000001,910.0349022,,,,,552,18,Woman,Right,
,,,,,,,,,,,,,,,,,552,18,Woman,Right,1,11,0.4,2,180,0,0,0.436402199999975,['y'],1.151303999999982,1.728,914.4181358000001,,,,,552,18,Woman,Right,
,,,,,,,,,,,,,,,,,552,18,Woman,Right,1,34,0.4,1,180,-,180,0.6983722999998463,['n'],0.9110825000002478,1.942,918.5515085000002,,,,,552,18,Woman,Right,
,,,,,,,,,,,,,,,,,552,18,Woman,Right,1,61,0.15,2,0,180,0,0.7836793000001308,['y'],1.0068514999998115,1.772,922.8684757999999,,,,,552,18,Woman,Right,
,,,,,,,,,,,,,,,,,552,18,Woman,Right,1,3,1,2,180,0,0,0.3957098999999289,['y'],0.7352952999999616,1.994,926.834934,,,,,552,18,Woman,Right,
,,,,,,,,,,,,,,,,,552,18,Woman,Right,1,12,0.4,1,0,-,0,0.6184839000002285,['n'],0.9587647000003017,1.584,930.8848767,,,,,552,18,Woman,Right,
,,,,,,,,,,,,,,,,,552,18,Woman,Right,1,31,0.4,2,180,0,0,0.3230518000000302,['y'],1.0869202000003497,1.724,935.1349211000002,,,,,552,18,Woman,Right,
,,,,,,,,,,,,,,,,,552,18,Woman,Right,1,28,0.4,1,0,-,0,0.3809805000000779,['n'],0.8308940000001712,1.95,940.4015509999999,,,,,552,18,Woman,Right,
,,,,,,,,,,,,,,,,,552,18,Woman,Right,1,52,0.15,1,0,-,0,0.633411199999955,['y'],1.0949966999996832,1.246,946.3518469,,,,,552,18,Woman,Right,
,,,,,,,,,,,,,,,,,552,18,Woman,Right,1,20,0.4,1,0,-,180,0.5270065999998224,['y'],0.9270062999999027,1.73,950.4349069,,,,,552,18,Woman,Right,
,,,,,,,,,,,,,,,,,552,18,Woman,Right,1,45,0.15,2,0,180,180,0.713025099999868,['y'],1.0628874000003634,1.576,955.4185252000002,,,,,552,18,Woman,Right,
,,,,,,,,,,,,,,,,,552,18,Woman,Right,1,2,1,1,180,-,180,0.8096639000000323,['n'],0.31089410000004136,2.0,959.8516384999998,,,,,552,18,Woman,Right,
,,,,,,,,,,,,,,,,,552,18,Woman,Right,1,79,0.15,2,180,0,0,0.4095513999996001,['y'],0.8469572999997581,2.0,963.9017368,,,,,552,18,Woman,Right,
,,,,,,,,,,,,,,,,,552,18,Woman,Right,1,62,0.15,1,180,-,180,0.42302299999983006,['y'],0.615009099999952,2.0,967.8849659000002,,,,,552,18,Woman,Right,
,,,,,,,,,,,,,,,,,552,18,Woman,Right,1,43,0.4,2,180,0,0,0.4823788999997305,['y'],0.5752144999996744,2.0,971.7849001,,,,,552,18,Woman,Right,
,,,,,,,,,,,,,,,,,552,18,Woman,Right,1,67,0.15,2,180,0,0,1.6833777000001646,['y'],0.6651210999998511,1.696,976.8516705000002,,,,,552,18,Woman,Right,
,,,,,,,,,,,,,,,,,552,18,Woman,Right,1,44,0.15,1,0,-,0,0.8882246999996823,['y'],1.4949908999997206,1.696,982.3849893000001,,,,,552,18,Woman,Right,
,,,,,,,,,,,,,,,,,552,18,Woman,Right,1,69,0.15,2,0,180,180,0.6781944999997904,['y'],1.19101529999989,1.696,987.2518433,,,,,552,18,Woman,Right,
,,,,,,,,,,,,,,,,,552,18,Woman,Right,1,7,1,2,180,0,0,0.5482424000001629,['y'],0.6710482999997112,1.966,991.6684811999999,,,,,552,18,Woman,Right,
,,,,,,,,,,,,,,,,,552,18,Woman,Right,1,55,0.15,2,180,0,0,1.1143426999997246,['y'],0.9030189000000064,1.688,996.6850162999999,,,,,552,18,Woman,Right,
,,,,,,,,,,,,,,,,,552,18,Woman,Right,1,1,1,2,0,180,180,0.6242957999997998,['y'],0.6551337000000785,1.688,1000.4192948,,,,,552,18,Woman,Right,
,,,,,,,,,,,,,,,,,552,18,Woman,Right,1,13,0.4,2,0,180,180,0.41024659999993673,['y'],0.4149210000000494,1.688,1004.0350557000002,,,,,552,18,Woman,Right,
,,,,,,,,,,,,,,,,,552,18,Woman,Right,1,68,0.15,1,0,-,0,0.6536879000000226,['y'],0.5994757000003119,1.688,1008.7852131,,,,,552,18,Woman,Right,
,,,,,,,,,,,,,,,,,552,18,Woman,Right,1,64,0.15,1,0,-,180,0.6462145999998938,['y'],0.7992922999997063,1.688,1012.6517226000001,,,,,552,18,Woman,Right,
,,,,,,,,,,,,,,,,,552,18,Woman,Right,1,65,0.15,2,0,180,0,1.1182326999996803,['n'],0.8230060999999296,1.4020000000000001,1017.4684041,,,,,552,18,Woman,Right,
,,,,,,,,,,,,,,,,,552,18,Woman,Right,1,6,1,1,180,-,180,1.2409195000000182,['n'],0.5987738999997418,1.8479999999999999,1021.9687887999999,,,,,552,18,Woman,Right,
,,,,,,,,,,,,,,,,,552,18,Woman,Right,1,70,0.15,1,180,-,180,0.6689624999999069,['y'],0.6551417999999103,1.794,1026.4016981999998,,,,,552,18,Woman,Right,
,,,,,,,,,,,,,,,,,552,18,Woman,Right,1,16,0.4,1,0,-,0,0.3934515000000829,['n'],0.759046600000147,1.794,1031.4183398999999,,,,,552,18,Woman,Right,
,,,,,,,,,,,,,,,,,552,18,Woman,Right,1,38,0.4,1,180,-,180,0.9499919999998383,['n'],0.6376226000002134,1.794,1035.7184185,,,,,552,18,Woman,Right,
,,,,,,,,,,,,,,,,,552,18,Woman,Right,1,4,1,1,0,-,0,0.8389541000001373,['n'],1.3112583000001905,1.794,1040.7352924000002,,,,,552,18,Woman,Right,
,,,,,,,,,,,,,,,,,552,18,Woman,Right,1,78,0.15,1,180,-,0,0.8667782000002262,['n'],0.8312420000002021,1.228,1047.0354736,,,,,552,18,Woman,Right,
,,,,,,,,,,,,,,,,,552,18,Woman,Right,1,63,0.15,2,180,0,0,2.8000213999998778,['y'],1.267125699999724,1.702,1054.7350857000001,,,,,552,18,Woman,Right,
,,,,,,,,,,,,,,,,,552,18,Woman,Right,1,22,0.4,1,180,-,180,0.7674940000001698,['n'],5.519611199999872,1.564,1064.2850579,,,,,552,18,Woman,Right,
,,,,,,,,,,,,,,,,,552,18,Woman,Right,1,5,1,2,0,180,180,1.1134790000000976,['y'],0.6392080999999052,1.802,1068.8686407999999,,,,,552,18,Woman,Right,
,,,,,,,,,,,,,,,,,552,18,Woman,Right,1,49,0.15,2,0,180,0,0.8220576000003348,['n'],0.7753594999999223,1.326,1073.652646,,,,,552,18,Woman,Right,
,,,,,,,,,,,,,,,,,552,18,Woman,Right,1,29,0.4,2,0,180,0,1.0334392999998272,['y'],1.6709716999998818,1.6019999999999999,1079.618446,,,,,552,18,Woman,Right,
,,,,,,,,,,,,,,,,,552,18,Woman,Right,1,24,0.4,1,0,-,0,1.6061101999998755,['n'],1.167013699999643,1.782,1085.2850827000002,,,,,552,18,Woman,Right,
,,,,,,,,,,,,,,,,,552,18,Woman,Right,1,32,0.4,1,0,-,0,1.028275399999984,['n'],1.3587988999997833,1.714,1090.1519948999999,,,,,552,18,Woman,Right,
,,,,,,,,,,,,,,,,,552,18,Woman,Right,1,14,0.4,1,180,-,180,0.7834500000003572,['y'],1.1269714000000022,1.1520000000000001,1095.6017662,,,,,552,18,Woman,Right,
,,,,,,,,,,,,,,,,,552,18,Woman,Right,1,72,0.15,1,0,-,180,0.5355011000001468,['n'],0.9112671000002592,1.63,1102.2351302000002,,,,,552,18,Woman,Right,
,,,,,,,,,,,,,,,,,552,18,Woman,Right,1,58,0.15,1,180,-,0,0.6360690000001341,['y'],1.0069496000000981,1.63,1106.268473,,,,,552,18,Woman,Right,
,,,,,,,,,,,,,,,,,552,18,Woman,Right,1,57,0.15,2,0,180,180,0.6341004999999313,['y'],1.0549826000001303,1.63,1110.2854123000002,,,,,552,18,Woman,Right,
,,,,,,,,,,,,,,,,,552,18,Woman,Right,1,66,0.15,1,180,-,180,1.2640910999998596,['y'],0.35151900000028036,1.63,1115.9188176000002,,,,,552,18,Woman,Right,
,,,,,,,,,,,,,,,,,552,18,Woman,Right,1,76,0.15,1,0,-,180,0.619561700000304,['y'],0.9989222999997764,1.63,1120.9684554,,,,,552,18,Woman,Right,
,,,,,,,,,,,,,,,,,552,18,Woman,Right,1,18,0.4,1,180,-,180,0.72797619999983,['n'],1.5991801000000123,1.63,1125.8184987999998,,,,,552,18,Woman,Right,
,,,,,,,,,,,,,,,,,552,18,Woman,Right,1,33,0.4,2,0,180,180,1.0794015999999829,['y'],0.3589617000002363,1.722,1130.0850724000002,,,,,552,18,Woman,Right,
,,,,,,,,,,,,,,,,,552,18,Woman,Right,1,51,0.15,2,180,0,0,0.39935030000015104,['y'],1.0950530000000072,1.688,1134.0354882000001,,,,,552,18,Woman,Right,
,,,,,,,,,,,,,,,,,552,18,Woman,Right,1,26,0.4,1,180,-,0,0.598681100000249,['y'],0.9751199000002089,1.608,1138.2685778,,,,,552,18,Woman,Right,
,,,,,,,,,,,,,,,,,552,18,Woman,Right,1,73,0.15,2,0,180,180,0.6341260000003786,['y'],0.9669557000001987,1.608,1142.3521931,,,,,552,18,Woman,Right,
,,,,,,,,,,,,,,,,,552,18,Woman,Right,1,47,0.15,2,180,0,180,0.39216529999976046,['y'],0.766904600000089,1.608,1145.8851479999998,,,,,552,18,Woman,Right,
,,,,,,,,,,,,,,,,,552,18,Woman,Right,1,40,0.4,1,0,-,0,0.8634497999996711,['n'],0.9509686000001238,1.708,1150.5693725,,,,,552,18,Woman,Right,
,,,,,,,,,,,,,,,,,552,18,Woman,Right,2,21,0.4,2,0,180,180,1.8007502000000386,['y'],1.907749199999671,1.708,1169.3852243000001,75.0,55.0,90.0,,552,18,Woman,Right,
,,,,,,,,,,,,,,,,,552,18,Woman,Right,2,74,0.15,1,180,-,0,1.2999909000000116,['y'],0.7166870999999446,1.708,1174.9352431000002,,,,,552,18,Woman,Right,
,,,,,,,,,,,,,,,,,552,18,Woman,Right,2,13,0.4,2,0,180,180,0.6999473999999282,['y'],0.42342520000011064,1.708,1178.718774,,,,,552,18,Woman,Right,
,,,,,,,,,,,,,,,,,552,18,Woman,Right,2,12,0.4,1,0,-,180,1.1400144999997792,['y'],0.35905370000000403,1.708,1182.818527,,,,,552,18,Woman,Right,
,,,,,,,,,,,,,,,,,552,18,Woman,Right,2,7,1,2,180,0,0,0.7499103000000105,['y'],0.471291299999848,1.708,1186.402231,,,,,552,18,Woman,Right,
,,,,,,,,,,,,,,,,,552,18,Woman,Right,2,44,0.15,1,0,-,0,0.7773234999999659,['y'],0.5589172999998482,1.708,1190.1854444,,,,,552,18,Woman,Right,
,,,,,,,,,,,,,,,,,552,18,Woman,Right,2,3,1,2,180,0,0,0.6473262999998042,['y'],0.3991916999998466,1.708,1193.6861791000001,,,,,552,18,Woman,Right,
,,,,,,,,,,,,,,,,,552,18,Woman,Right,2,78,0.15,1,180,-,180,0.5099541000004137,['y'],0.5189414999999826,1.846,1198.1685677,,,,,552,18,Woman,Right,
,,,,,,,,,,,,,,,,,552,18,Woman,Right,2,65,0.15,2,0,180,180,1.9780658999998195,['y'],0.4233957999999802,1.846,1202.9188106000001,,,,,552,18,Woman,Right,
,,,,,,,,,,,,,,,,,552,18,Woman,Right,2,64,0.15,1,0,-,0,1.2099032000000989,['y'],0.3749499000000469,1.846,1206.9021367,,,,,552,18,Woman,Right,
,,,,,,,,,,,,,,,,,552,18,Woman,Right,2,77,0.15,2,0,180,180,0.5365919000000758,['y'],0.4868509000002632,1.846,1210.2519674999999,,,,,552,18,Woman,Right,
,,,,,,,,,,,,,,,,,552,18,Woman,Right,2,10,0.4,1,180,-,180,0.9966567999999825,['y'],0.32716260000006514,1.846,1216.0519155000002,,,,,552,18,Woman,Right,
,,,,,,,,,,,,,,,,,552,18,Woman,Right,2,73,0.15,2,0,180,0,0.5672381999997924,['y'],0.4869419999999991,1.846,1219.8854895999998,,,,,552,18,Woman,Right,
,,,,,,,,,,,,,,,,,552,18,Woman,Right,2,36,0.4,1,0,-,180,1.4225430000001325,['y'],0.3272513000001709,1.846,1224.1522122000001,,,,,552,18,Woman,Right,
,,,,,,,,,,,,,,,,,552,18,Woman,Right,2,8,0.4,1,0,-,0,1.4953270999999404,['n'],0.831242100000054,1.846,1228.9025738,,,,,552,18,Woman,Right,
,,,,,,,,,,,,,,,,,552,18,Woman,Right,2,66,0.15,1,180,-,180,1.1002972999999656,['n'],0.9198577999995905,1.846,1233.1852172,,,,,552,18,Woman,Right,
,,,,,,,,,,,,,,,,,552,18,Woman,Right,2,35,0.4,2,180,0,0,0.4972898000000896,['y'],0.7349970000000212,1.846,1237.1355641999999,,,,,552,18,Woman,Right,
,,,,,,,,,,,,,,,,,552,18,Woman,Right,2,9,0.4,2,0,180,180,0.7198436000003312,['y'],0.5109352999998009,1.846,1240.7362573999999,,,,,552,18,Woman,Right,
,,,,,,,,,,,,,,,,,552,18,Woman,Right,2,70,0.15,1,180,-,180,3.122091400000045,['y'],0.7027210000001105,1.728,1247.6019261000001,,,,,552,18,Woman,Right,
,,,,,,,,,,,,,,,,,552,18,Woman,Right,2,42,0.4,1,180,-,180,0.7256944999999178,['n'],0.6863387000003058,1.728,1251.535491,,,,,552,18,Woman,Right,
,,,,,,,,,,,,,,,,,552,18,Woman,Right,2,76,0.15,1,0,-,0,0.5946528000004037,['y'],0.8870314999999209,1.728,1255.2522003,,,,,552,18,Woman,Right,
,,,,,,,,,,,,,,,,,552,18,Woman,Right,2,58,0.15,1,180,-,180,0.8199454000000514,['y'],0.7433240000000296,1.728,1259.2195954,,,,,552,18,Woman,Right,
,,,,,,,,,,,,,,,,,552,18,Woman,Right,2,61,0.15,2,0,180,0,1.291917100000319,['y'],0.4392320000001746,1.728,1263.3186993,,,,,552,18,Woman,Right,
,,,,,,,,,,,,,,,,,552,18,Woman,Right,2,39,0.4,2,180,0,0,1.045170699999744,['y'],0.5029091999999764,1.728,1267.2187221,,,,,552,18,Woman,Right,
,,,,,,,,,,,,,,,,,552,18,Woman,Right,2,48,0.15,1,0,-,180,0.7663747000001422,['y'],0.3510198000003584,1.728,1270.7188723,,,,,552,18,Woman,Right,
,,,,,,,,,,,,,,,,,552,18,Woman,Right,2,57,0.15,2,0,180,180,0.8065491000002112,['y'],0.4471435999998903,1.728,1274.2520587,,,,,552,18,Woman,Right,
,,,,,,,,,,,,,,,,,552,18,Woman,Right,2,0,1,1,0,-,0,0.7165064999999231,['n'],0.41459340000028533,2.0,1278.2862845,,,,,552,18,Woman,Right,
,,,,,,,,,,,,,,,,,552,18,Woman,Right,2,30,0.4,1,180,-,0,0.8992223000000195,['y'],0.7988469000001714,1.5899999999999999,1282.9852253,,,,,552,18,Woman,Right,
,,,,,,,,,,,,,,,,,552,18,Woman,Right,2,59,0.15,2,180,0,0,0.46930509999992864,['y'],0.5028417999997146,1.782,1287.0520368000002,,,,,552,18,Woman,Right,
,,,,,,,,,,,,,,,,,552,18,Woman,Right,2,16,0.4,1,0,-,180,0.6950294999996913,['y'],1.3671202999998968,1.884,1291.5520296999998,,,,,552,18,Woman,Right,
,,,,,,,,,,,,,,,,,552,18,Woman,Right,2,79,0.15,2,180,0,0,1.258291999999983,['y'],0.5670989000000191,1.754,1295.9186840000002,,,,,552,18,Woman,Right,
,,,,,,,,,,,,,,,,,552,18,Woman,Right,2,11,0.4,2,180,0,0,0.379423300000326,['y'],0.5346194999997351,1.754,1299.1200616,,,,,552,18,Woman,Right,
,,,,,,,,,,,,,,,,,552,18,Woman,Right,2,15,0.4,2,180,0,0,0.5072638999999981,['y'],0.3273021999998491,1.754,1302.435438,,,,,552,18,Woman,Right,
,,,,,,,,,,,,,,,,,552,18,Woman,Right,2,53,0.15,2,0,180,0,0.8770921000000271,['y'],0.5269802000002528,1.754,1306.3522813,,,,,552,18,Woman,Right,
,,,,,,,,,,,,,,,,,552,18,Woman,Right,2,28,0.4,1,0,-,0,0.9470949999999903,['n'],0.35931589999972857,1.754,1310.0523229,,,,,552,18,Woman,Right,
,,,,,,,,,,,,,,,,,552,18,Woman,Right,2,20,0.4,1,0,-,180,0.7264396000000488,['y'],0.3908929999997781,1.754,1313.718855,,,,,552,18,Woman,Right,
,,,,,,,,,,,,,,,,,552,18,Woman,Right,2,60,0.15,1,0,-,0,0.5463174999999865,['y'],0.5110512999999628,1.754,1317.2189385000001,,,,,552,18,Woman,Right,
,,,,,,,,,,,,,,,,,552,18,Woman,Right,2,33,0.4,2,0,180,180,0.41436160000012023,['y'],0.830942099999902,1.754,1320.7854836000001,,,,,552,18,Woman,Right,
,,,,,,,,,,,,,,,,,552,18,Woman,Right,2,31,0.4,2,180,0,0,0.44982859999981883,['y'],0.527373400000215,1.754,1324.0025734,,,,,552,18,Woman,Right,
,,,,,,,,,,,,,,,,,552,18,Woman,Right,2,68,0.15,1,0,-,0,0.8518257000000631,['y'],0.5749238999997033,1.754,1327.635616,,,,,552,18,Woman,Right,
,,,,,,,,,,,,,,,,,552,18,Woman,Right,2,54,0.15,1,180,-,180,0.5271096000001307,['n'],1.5510057999999844,1.358,1333.1353156,,,,,552,18,Woman,Right,
,,,,,,,,,,,,,,,,,552,18,Woman,Right,2,1,1,2,0,180,180,0.6668503000000783,['y'],0.6126294999999118,1.976,1337.3020584,,,,,552,18,Woman,Right,
,,,,,,,,,,,,,,,,,552,18,Woman,Right,2,14,0.4,1,180,-,180,0.8992448999997578,['n'],0.9669840999999906,1.608,1341.9523571999998,,,,,552,18,Woman,Right,
,,,,,,,,,,,,,,,,,552,18,Woman,Right,2,40,0.4,1,0,-,0,0.3551864999999452,['n'],0.8393707000000177,1.782,1345.752124,,,,,552,18,Woman,Right,
,,,,,,,,,,,,,,,,,552,18,Woman,Right,2,63,0.15,2,180,0,180,0.7374006000000008,['n'],1.0468974999998863,1.4140000000000001,1350.3353544000001,,,,,552,18,Woman,Right,
,,,,,,,,,,,,,,,,,552,18,Woman,Right,2,2,1,1,180,-,180,0.7324502000001303,['n'],0.5112008000000969,1.932,1354.6687348,,,,,552,18,Woman,Right,
,,,,,,,,,,,,,,,,,552,18,Woman,Right,2,4,1,1,0,-,0,0.26440139999976964,['n'],1.103139999999712,1.858,1359.0853224000002,,,,,552,18,Woman,Right,
,,,,,,,,,,,,,,,,,552,18,Woman,Right,2,41,0.4,2,0,180,180,0.7807936999997764,['y'],0.6146316999997907,1.858,1362.7686991,,,,,552,18,Woman,Right,
,,,,,,,,,,,,,,,,,552,18,Woman,Right,2,47,0.15,2,180,0,0,0.5749313999999686,['y'],0.7029286999995747,1.858,1366.2523270000002,,,,,552,18,Woman,Right,
,,,,,,,,,,,,,,,,,552,18,Woman,Right,2,43,0.4,2,180,0,0,1.8627959000000374,['y'],0.4792403000001286,1.858,1371.1188576,,,,,552,18,Woman,Right,
,,,,,,,,,,,,,,,,,552,18,Woman,Right,2,56,0.15,1,0,-,180,2.1629861000001256,['y'],0.9512383999999656,1.858,1376.8029553000001,,,,,552,18,Woman,Right,
,,,,,,,,,,,,,,,,,552,18,Woman,Right,2,75,0.15,2,180,0,0,0.4971093000003748,['y'],0.4151395999997476,1.858,1379.9021409000002,,,,,552,18,Woman,Right,
,,,,,,,,,,,,,,,,,552,18,Woman,Right,2,37,0.4,2,0,180,180,0.8924413999998251,['y'],0.5828921000002083,1.962,1384.0189555000002,,,,,552,18,Woman,Right,
,,,,,,,,,,,,,,,,,552,18,Woman,Right,2,34,0.4,1,180,-,180,0.7432619999999588,['n'],0.6709900000000744,1.702,1388.3354261999998,,,,,552,18,Woman,Right,
,,,,,,,,,,,,,,,,,552,18,Woman,Right,2,23,0.4,2,180,0,0,0.283799899999849,['y'],0.5511188000000402,1.702,1391.635565,,,,,552,18,Woman,Right,
,,,,,,,,,,,,,,,,,552,18,Woman,Right,2,17,0.4,2,0,180,180,0.34155230000033043,['y'],0.783058500000152,1.806,1395.1356231999998,,,,,552,18,Woman,Right,
,,,,,,,,,,,,,,,,,552,18,Woman,Right,2,22,0.4,1,180,-,180,1.0498302999999396,['n'],0.41723680000040986,1.756,1399.0520322000002,,,,,552,18,Woman,Right,
,,,,,,,,,,,,,,,,,552,18,Woman,Right,2,19,0.4,2,180,0,0,0.3111735000002227,['y'],0.6310359999997672,1.756,1402.2191539,,,,,552,18,Woman,Right,
,,,,,,,,,,,,,,,,,552,18,Woman,Right,2,50,0.15,1,180,-,0,1.1504697999998825,['y'],0.7589923999998973,1.756,1406.5688657,,,,,552,18,Woman,Right,
,,,,,,,,,,,,,,,,,552,18,Woman,Right,2,5,1,2,0,180,180,0.44176050000032774,['y'],0.6549708000002283,1.756,1409.8521495,,,,,552,18,Woman,Right,
,,,,,,,,,,,,,,,,,552,18,Woman,Right,2,46,0.15,1,180,-,180,0.4833883999999671,['y'],0.6300909000001411,1.756,1413.3864079,,,,,552,18,Woman,Right,
,,,,,,,,,,,,,,,,,552,18,Woman,Right,2,27,0.4,2,180,0,0,0.22688249999964683,['y'],1.3029903999999988,1.756,1417.1356655999998,,,,,552,18,Woman,Right,
,,,,,,,,,,,,,,,,,552,18,Woman,Right,2,25,0.4,2,0,180,180,0.43946109999978944,['y'],0.4388955999997961,1.756,1417.1356655999998,,,,,552,18,Woman,Right,
,,,,,,,,,,,,,,,,,552,18,Woman,Right,2,32,0.4,1,0,-,0,0.6706782999999632,['n'],0.8387449000001652,1.85,1424.4855598,,,,,552,18,Woman,Right,
,,,,,,,,,,,,,,,,,552,18,Woman,Right,2,55,0.15,2,180,0,180,0.755203199999869,['y'],0.6469381999995676,1.468,1429.2188431999998,,,,,552,18,Woman,Right,
,,,,,,,,,,,,,,,,,552,18,Woman,Right,2,69,0.15,2,0,180,180,1.7518498999997973,['y'],0.5189076999999997,1.6480000000000001,1433.8688519000002,,,,,552,18,Woman,Right,
,,,,,,,,,,,,,,,,,552,18,Woman,Right,2,26,0.4,1,180,-,180,0.771824800000104,['n'],0.7351579999999558,1.638,1438.1022071000002,,,,,552,18,Woman,Right,
,,,,,,,,,,,,,,,,,552,18,Woman,Right,2,6,1,1,180,-,180,0.34480119999989256,['y'],0.8710936000002221,1.3639999999999999,1442.9355273,,,,,552,18,Woman,Right,
,,,,,,,,,,,,,,,,,552,18,Woman,Right,2,51,0.15,2,180,0,0,0.6835364999997182,['y'],0.5026527999998507,1.678,1447.4854958,,,,,552,18,Woman,Right,
,,,,,,,,,,,,,,,,,552,18,Woman,Right,2,72,0.15,1,0,-,0,0.4988103000000592,['y'],0.5349552999996376,1.678,1450.9521924,,,,,552,18,Woman,Right,
,,,,,,,,,,,,,,,,,552,18,Woman,Right,2,52,0.15,1,0,-,180,0.40767730000015945,['y'],1.0710306000000855,1.678,1454.6688513,,,,,552,18,Woman,Right,
,,,,,,,,,,,,,,,,,552,18,Woman,Right,2,45,0.15,2,0,180,0,0.45012880000012956,['y'],0.49918380000008256,1.678,1458.0190806,,,,,552,18,Woman,Right,
,,,,,,,,,,,,,,,,,552,18,Woman,Right,2,71,0.15,2,180,0,180,0.5555828000001384,['y'],0.3912071999998261,1.678,1461.3356914,,,,,552,18,Woman,Right,
,,,,,,,,,,,,,,,,,552,18,Woman,Right,2,18,0.4,1,180,-,180,0.8417115999995985,['n'],1.2468960000001061,1.678,1465.9359054000001,,,,,552,18,Woman,Right,
,,,,,,,,,,,,,,,,,552,18,Woman,Right,2,24,0.4,1,0,-,0,0.24156919999995807,['n'],0.9590728000002855,1.678,1469.3688576,,,,,552,18,Woman,Right,
,,,,,,,,,,,,,,,,,552,18,Woman,Right,2,49,0.15,2,0,180,180,0.3999676999997064,['y'],0.5380841999999575,1.678,1473.1522654,,,,,552,18,Woman,Right,
,,,,,,,,,,,,,,,,,552,18,Woman,Right,2,38,0.4,1,180,-,180,0.28160879999995814,['n'],0.44003680000014356,1.85,1476.6022116,,,,,552,18,Woman,Right,
,,,,,,,,,,,,,,,,,552,18,Woman,Right,2,62,0.15,1,180,-,0,0.7751312000000325,['y'],1.1027788999999757,1.8519999999999999,1480.819113,,,,,552,18,Woman,Right,
,,,,,,,,,,,,,,,,,552,18,Woman,Right,2,67,0.15,2,180,0,180,1.3635177999999541,['n'],1.1429120000002513,1.684,1486.0524488,,,,,552,18,Woman,Right,
,,,,,,,,,,,,,,,,,552,18,Woman,Right,2,29,0.4,2,0,180,180,0.9197988999999325,['y'],0.5747031999999308,1.924,1489.9688663000002,,,,,552,18,Woman,Right,
,,,,,,,,,,,,,,,,,552,18,Woman,Right,3,58,0.15,1,180,-,0,1.1056189000000813,['y'],1.8949862999998004,1.6440000000000001,1512.5354860000002,76.25,42.5,95.0,,552,18,Woman,Right,
,,,,,,,,,,,,,,,,,552,18,Woman,Right,3,72,0.15,1,0,-,0,0.3442045000001599,['y'],0.6153113999998823,1.6440000000000001,1515.8690115,,,,,552,18,Woman,Right,
,,,,,,,,,,,,,,,,,552,18,Woman,Right,3,39,0.4,2,180,0,0,0.833457400000043,['y'],0.45709249999981694,1.6440000000000001,1519.4356898,,,,,552,18,Woman,Right,
,,,,,,,,,,,,,,,,,552,18,Woman,Right,3,28,0.4,1,0,-,0,0.5608858999999029,['n'],0.7750829000001431,1.6440000000000001,1523.3023142000002,,,,,552,18,Woman,Right,
,,,,,,,,,,,,,,,,,552,18,Woman,Right,3,17,0.4,2,0,180,180,0.6054079000000456,['y'],0.6551570000001448,1.6440000000000001,1526.752204,,,,,552,18,Woman,Right,
,,,,,,,,,,,,,,,,,552,18,Woman,Right,3,27,0.4,2,180,0,0,0.2907922999997936,['y'],1.607582800000273,1.6440000000000001,1531.1688840000002,,,,,552,18,Woman,Right,
,,,,,,,,,,,,,,,,,552,18,Woman,Right,3,36,0.4,1,0,-,0,0.95271670000011,['n'],0.5104225000000042,1.6440000000000001,1534.9031956,,,,,552,18,Woman,Right,
,,,,,,,,,,,,,,,,,552,18,Woman,Right,3,16,0.4,1,0,-,0,1.0774305999998433,['n'],0.4068912000002456,1.53,1538.9858383,,,,,552,18,Woman,Right,
,,,,,,,,,,,,,,,,,552,18,Woman,Right,3,67,0.15,2,180,0,180,1.22085079999988,['y'],1.0629462000001695,1.528,1543.8190439,,,,,552,18,Woman,Right,
,,,,,,,,,,,,,,,,,552,18,Woman,Right,3,61,0.15,2,0,180,0,0.39343679999956294,['y'],0.863049300000057,1.6360000000000001,1547.7191566000001,,,,,552,18,Woman,Right,
,,,,,,,,,,,,,,,,,552,18,Woman,Right,3,42,0.4,1,180,-,180,1.2843338999996377,['n'],0.3347108000002663,1.6360000000000001,1552.6525808000001,,,,,552,18,Woman,Right,
,,,,,,,,,,,,,,,,,552,18,Woman,Right,3,79,0.15,2,180,0,0,0.33937290000039866,['y'],0.5189935999997033,1.6360000000000001,1556.1688983,,,,,552,18,Woman,Right,
,,,,,,,,,,,,,,,,,552,18,Woman,Right,3,19,0.4,2,180,0,0,0.8554654999998093,['y'],0.3348363000000063,1.6360000000000001,1560.1358443,,,,,552,18,Woman,Right,
,,,,,,,,,,,,,,,,,552,18,Woman,Right,3,26,0.4,1,180,-,0,0.8829848000000311,['y'],0.5750828000000183,1.95,1564.1022469,,,,,552,18,Woman,Right,
,,,,,,,,,,,,,,,,,552,18,Woman,Right,3,10,0.4,1,180,-,180,2.117817300000297,['n'],0.3906412999999702,1.63,1569.2026515000002,,,,,552,18,Woman,Right,
,,,,,,,,,,,,,,,,,552,18,Woman,Right,3,14,0.4,1,180,-,180,0.596746599999733,['n'],0.5909822999997232,1.6360000000000001,1572.5689788999998,,,,,552,18,Woman,Right,
,,,,,,,,,,,,,,,,,552,18,Woman,Right,3,29,0.4,2,0,180,180,0.6350353000002542,['y'],0.5507351000001108,1.6360000000000001,1576.1689700000002,,,,,552,18,Woman,Right,
,,,,,,,,,,,,,,,,,552,18,Woman,Right,3,53,0.15,2,0,180,0,0.5001053999999385,['y'],0.37997660000019096,1.6360000000000001,1579.3190654,,,,,552,18,Woman,Right,
,,,,,,,,,,,,,,,,,552,18,Woman,Right,3,6,1,1,180,-,180,0.857432499999959,['n'],0.3752802999997584,1.6360000000000001,1582.8356950000002,,,,,552,18,Woman,Right,
,,,,,,,,,,,,,,,,,552,18,Woman,Right,3,18,0.4,1,180,-,180,0.5192520000000513,['n'],0.8950283999997737,1.8719999999999999,1586.5525944,,,,,552,18,Woman,Right,
,,,,,,,,,,,,,,,,,552,18,Woman,Right,3,9,0.4,2,0,180,180,0.9156312000000071,['y'],0.3030452999996669,1.81,1589.868958,,,,,552,18,Woman,Right,
,,,,,,,,,,,,,,,,,552,18,Woman,Right,3,57,0.15,2,0,180,0,1.016684400000031,['y'],0.5819951999997102,1.81,1593.8858964,,,,,552,18,Woman,Right,
,,,,,,,,,,,,,,,,,552,18,Woman,Right,3,51,0.15,2,180,0,0,0.6241533000002164,['y'],0.4712710999997398,1.81,1597.0694024,,,,,552,18,Woman,Right,
,,,,,,,,,,,,,,,,,552,18,Woman,Right,3,64,0.15,1,0,-,180,1.0235676000002059,['y'],0.35099440000021787,1.81,1600.6859799,,,,,552,18,Woman,Right,
,,,,,,,,,,,,,,,,,552,18,Woman,Right,3,74,0.15,1,180,-,0,0.904162599999836,['y'],0.3192039000000477,1.81,1604.0524483,,,,,552,18,Woman,Right,
,,,,,,,,,,,,,,,,,552,18,Woman,Right,3,12,0.4,1,0,-,0,0.3066681000000244,['n'],0.45523299999968003,1.81,1607.4859328000002,,,,,552,18,Woman,Right,
,,,,,,,,,,,,,,,,,552,18,Woman,Right,3,46,0.15,1,180,-,180,0.8360412000001816,['y'],1.5190120000002025,1.81,1611.9192451,,,,,552,18,Woman,Right,
,,,,,,,,,,,,,,,,,552,18,Woman,Right,3,40,0.4,1,0,-,0,0.16872809999995297,['n'],0.7113682999997764,1.81,1614.9524000000001,,,,,552,18,Woman,Right,
,,,,,,,,,,,,,,,,,552,18,Woman,Right,3,23,0.4,2,180,0,0,0.42675999999983105,['y'],0.9188751000001503,1.81,1618.7023671000002,,,,,552,18,Woman,Right,
,,,,,,,,,,,,,,,,,552,18,Woman,Right,3,25,0.4,2,0,180,180,0.3974810999998226,['y'],0.4950979999998708,1.81,1621.7190042000002,,,,,552,18,Woman,Right,
,,,,,,,,,,,,,,,,,552,18,Woman,Right,3,49,0.15,2,0,180,180,1.6197589999997035,['n'],1.094626099999914,1.53,1627.7033219999998,,,,,552,18,Woman,Right,
,,,,,,,,,,,,,,,,,552,18,Woman,Right,3,33,0.4,2,0,180,180,0.6382376999999906,['y'],0.40698010000005524,1.5739999999999998,1631.5357405999998,,,,,552,18,Woman,Right,
,,,,,,,,,,,,,,,,,552,18,Woman,Right,3,75,0.15,2,180,0,0,0.5501957000001312,['y'],0.678979100000106,1.576,1635.2857932000002,,,,,552,18,Woman,Right,
,,,,,,,,,,,,,,,,,552,18,Woman,Right,3,34,0.4,1,180,-,180,0.40020640000011554,['n'],0.35490070000014384,1.576,1638.1689855999998,,,,,552,18,Woman,Right,
,,,,,,,,,,,,,,,,,552,18,Woman,Right,3,76,0.15,1,0,-,0,0.3373583000002327,['y'],1.1913291000000754,1.576,1641.7858308999998,,,,,552,18,Woman,Right,
,,,,,,,,,,,,,,,,,552,18,Woman,Right,3,20,0.4,1,0,-,0,0.41189810000014404,['n'],0.8629957999996805,1.88,1645.2857660999998,,,,,552,18,Woman,Right,
,,,,,,,,,,,,,,,,,552,18,Woman,Right,3,63,0.15,2,180,0,0,0.47673429999986183,['y'],0.9749025999999503,1.88,1648.7523302,,,,,552,18,Woman,Right,
,,,,,,,,,,,,,,,,,552,18,Woman,Right,3,73,0.15,2,0,180,180,1.2501155999998446,['y'],0.40293330000031347,1.88,1652.6690856999999,,,,,552,18,Woman,Right,
,,,,,,,,,,,,,,,,,552,18,Woman,Right,3,52,0.15,1,0,-,180,0.9121312000002035,['y'],0.32687680000026376,1.88,1656.1357555,,,,,552,18,Woman,Right,
,,,,,,,,,,,,,,,,,552,18,Woman,Right,3,15,0.4,2,180,0,0,0.6460081000000173,['y'],0.43092769999975644,1.88,1659.2359744999999,,,,,552,18,Woman,Right,
,,,,,,,,,,,,,,,,,552,18,Woman,Right,3,55,0.15,2,180,0,0,0.6726380999998582,['y'],0.3348713000000316,1.88,1662.4526758000002,,,,,552,18,Woman,Right,
,,,,,,,,,,,,,,,,,552,18,Woman,Right,3,38,0.4,1,180,-,180,0.5358900999999605,['n'],0.39130930000010267,1.88,1666.1858308,,,,,552,18,Woman,Right,
,,,,,,,,,,,,,,,,,552,18,Woman,Right,3,66,0.15,1,180,-,0,0.5784941000001709,['n'],0.742915400000129,1.88,1669.5359741000002,,,,,552,18,Woman,Right,
,,,,,,,,,,,,,,,,,552,18,Woman,Right,3,7,1,2,180,0,0,0.49327190000030896,['y'],0.6149549000001571,1.88,1672.8691577,,,,,552,18,Woman,Right,
,,,,,,,,,,,,,,,,,552,18,Woman,Right,3,68,0.15,1,0,-,0,0.6459395000001678,['n'],0.6312988999998197,1.88,1676.8691595,,,,,552,18,Woman,Right,
,,,,,,,,,,,,,,,,,552,18,Woman,Right,3,59,0.15,2,180,0,180,0.8053692000003139,['n'],2.0793691999997463,1.276,1682.7361042000002,,,,,552,18,Woman,Right,
,,,,,,,,,,,,,,,,,552,18,Woman,Right,3,30,0.4,1,180,-,0,0.4986118000001625,['n'],1.1909903000000668,1.276,1686.8026482,,,,,552,18,Woman,Right,
,,,,,,,,,,,,,,,,,552,18,Woman,Right,3,22,0.4,1,180,-,180,0.4205885000001217,['n'],0.6308669999998529,1.562,1690.6691339,,,,,552,18,Woman,Right,
,,,,,,,,,,,,,,,,,552,18,Woman,Right,3,4,1,1,0,-,0,0.3059230000003481,['n'],0.6949589000000742,2.0,1694.2691598000001,,,,,552,18,Woman,Right,
,,,,,,,,,,,,,,,,,552,18,Woman,Right,3,78,0.15,1,180,-,0,0.5767034000000422,['y'],1.1431155999998737,1.768,1698.7357542,,,,,552,18,Woman,Right,
,,,,,,,,,,,,,,,,,552,18,Woman,Right,3,3,1,2,180,0,0,0.38485110000010536,['y'],0.5510075000001962,1.768,1701.9859978999998,,,,,552,18,Woman,Right,
,,,,,,,,,,,,,,,,,552,18,Woman,Right,3,35,0.4,2,180,0,0,0.3793222999997852,['y'],0.4791226000002098,1.768,1704.9859826000002,,,,,552,18,Woman,Right,
,,,,,,,,,,,,,,,,,552,18,Woman,Right,3,69,0.15,2,0,180,0,0.7921331000002283,['y'],0.43087839999998323,1.768,1708.3863147000002,,,,,552,18,Woman,Right,
,,,,,,,,,,,,,,,,,552,18,Woman,Right,3,21,0.4,2,0,180,180,0.6500386999996408,['y'],0.3825830999999198,1.768,1711.6861014,,,,,552,18,Woman,Right,
,,,,,,,,,,,,,,,,,552,18,Woman,Right,3,24,0.4,1,0,-,0,0.18203929999981483,['n'],0.574948200000108,1.768,1714.4524213,,,,,552,18,Woman,Right,
,,,,,,,,,,,,,,,,,552,18,Woman,Right,3,1,1,2,0,180,180,0.4793761999999333,['y'],0.3509070000000065,1.768,1717.5704218,,,,,552,18,Woman,Right,
,,,,,,,,,,,,,,,,,552,18,Woman,Right,3,13,0.4,2,0,180,180,0.7713447000000997,['y'],0.5589910000003329,1.768,1721.2533806000001,,,,,552,18,Woman,Right,
,,,,,,,,,,,,,,,,,552,18,Woman,Right,3,54,0.15,1,180,-,0,0.7165844000001016,['n'],0.8469824000003427,1.768,1724.936878,,,,,552,18,Woman,Right,
,,,,,,,,,,,,,,,,,552,18,Woman,Right,3,11,0.4,2,180,0,0,0.369894800000111,['y'],0.31131230000028154,1.768,1727.7858520999998,,,,,552,18,Woman,Right,
,,,,,,,,,,,,,,,,,552,18,Woman,Right,3,50,0.15,1,180,-,180,0.5152831999998853,['y'],0.5908824000002824,1.768,1731.0191055,,,,,552,18,Woman,Right,
,,,,,,,,,,,,,,,,,552,18,Woman,Right,3,8,0.4,1,0,-,0,0.40860760000032315,['y'],0.35894710000002306,1.768,1734.1524640000002,,,,,552,18,Woman,Right,
,,,,,,,,,,,,,,,,,552,18,Woman,Right,3,37,0.4,2,0,180,180,0.5452904999997372,['y'],0.31117219999987356,1.768,1737.4026678999999,,,,,552,18,Woman,Right,
,,,,,,,,,,,,,,,,,552,18,Woman,Right,3,0,1,1,0,-,0,0.482068999999683,['n'],0.5270341000000371,1.768,1740.4526844000002,,,,,552,18,Woman,Right,
,,,,,,,,,,,,,,,,,552,18,Woman,Right,3,41,0.4,2,0,180,180,0.47575460000007297,['y'],0.27906880000000456,1.768,1743.4194772,,,,,552,18,Woman,Right,
,,,,,,,,,,,,,,,,,552,18,Woman,Right,3,45,0.15,2,0,180,180,0.8168267999999443,['y'],0.18479089999982534,1.768,1746.6358974,,,,,552,18,Woman,Right,
,,,,,,,,,,,,,,,,,552,18,Woman,Right,3,71,0.15,2,180,0,180,0.5845287000001917,['y'],0.29486869999982446,1.768,1750.1191862,,,,,552,18,Woman,Right,
,,,,,,,,,,,,,,,,,552,18,Woman,Right,3,62,0.15,1,180,-,0,0.5592050000000199,['y'],0.31123359999992317,1.768,1753.2859936999998,,,,,552,18,Woman,Right,
,,,,,,,,,,,,,,,,,552,18,Woman,Right,3,48,0.15,1,0,-,0,0.81661559999975,['y'],0.4072281999997358,1.768,1756.8525353999999,,,,,552,18,Woman,Right,
,,,,,,,,,,,,,,,,,552,18,Woman,Right,3,70,0.15,1,180,-,180,0.30004709999957413,['y'],0.5981821999998829,1.768,1760.1195498000002,,,,,552,18,Woman,Right,
,,,,,,,,,,,,,,,,,552,18,Woman,Right,3,60,0.15,1,0,-,0,0.42071359999999913,['n'],0.5751140000002124,1.768,1763.2358808,,,,,552,18,Woman,Right,
,,,,,,,,,,,,,,,,,552,18,Woman,Right,3,56,0.15,1,0,-,0,1.0527702000003956,['y'],0.6712170000000697,1.768,1767.8360544000002,,,,,552,18,Woman,Right,
,,,,,,,,,,,,,,,,,552,18,Woman,Right,3,2,1,1,180,-,180,0.8835277000002861,['n'],0.54680210000015,1.768,1772.0367689,,,,,552,18,Woman,Right,
,,,,,,,,,,,,,,,,,552,18,Woman,Right,3,5,1,2,0,180,180,0.8233043999998699,['y'],0.6472649000002093,1.9020000000000001,1776.1362159999999,,,,,552,18,Woman,Right,
,,,,,,,,,,,,,,,,,552,18,Woman,Right,3,65,0.15,2,0,180,180,1.3658197999998265,['y'],0.43882010000015725,1.846,1780.3195396,,,,,552,18,Woman,Right,
,,,,,,,,,,,,,,,,,552,18,Woman,Right,3,47,0.15,2,180,0,180,1.5065356000000065,['y'],0.4789248000001862,1.846,1784.6692337,,,,,552,18,Woman,Right,
,,,,,,,,,,,,,,,,,552,18,Woman,Right,3,44,0.15,1,0,-,0,0.2553635999997823,['y'],1.1032705000002352,1.6019999999999999,1789.5191994000002,,,,,552,18,Woman,Right,
,,,,,,,,,,,,,,,,,552,18,Woman,Right,3,31,0.4,2,180,0,0,0.38652779999983977,['y'],0.9349202000003061,1.6019999999999999,1793.9361798,,,,,552,18,Woman,Right,
,,,,,,,,,,,,,,,,,552,18,Woman,Right,3,32,0.4,1,0,-,180,0.6425875999998425,['n'],0.8310907999998562,1.6219999999999999,1797.8526735,,,,,552,18,Woman,Right,
,,,,,,,,,,,,,,,,,552,18,Woman,Right,3,77,0.15,2,0,180,0,0.30317269999977725,['y'],1.4149345000000721,1.6219999999999999,1801.9691892,,,,,552,18,Woman,Right,
,,,,,,,,,,,,,,,,,552,18,Woman,Right,3,43,0.4,2,180,0,0,0.2757747000000563,['y'],0.4789671999997154,1.6219999999999999,1804.7193183,,,,,552,18,Woman,Right,
,,,,,,,,,,,,,,,,,552,18,Woman,Right,4,23,0.4,2,180,0,0,0.29649879999988116,['y'],0.5990409999999429,1.62,1826.9692638000001,75.0,60.0,95.0,,552,18,Woman,Right,
,,,,,,,,,,,,,,,,,552,18,Woman,Right,4,37,0.4,2,0,180,180,0.627902400000039,['y'],0.38286840000000666,1.62,1830.1024687,,,,,552,18,Woman,Right,
,,,,,,,,,,,,,,,,,552,18,Woman,Right,4,17,0.4,2,0,180,180,1.4618740999999318,['y'],0.34289119999994,1.62,1833.9861415,,,,,552,18,Woman,Right,
,,,,,,,,,,,,,,,,,552,18,Woman,Right,4,51,0.15,2,180,0,0,0.5445202000000791,['y'],0.31901029999971797,1.62,1837.0693768,,,,,552,18,Woman,Right,
,,,,,,,,,,,,,,,,,552,18,Woman,Right,4,2,1,1,180,-,180,0.7670696000000135,['n'],0.518864499999836,1.62,1840.3695041,,,,,552,18,Woman,Right,
,,,,,,,,,,,,,,,,,552,18,Woman,Right,4,39,0.4,2,180,0,0,0.35247220000019297,['y'],0.7030525999998645,1.62,1843.6860588999998,,,,,552,18,Woman,Right,
,,,,,,,,,,,,,,,,,552,18,Woman,Right,4,78,0.15,1,180,-,0,1.6570380999996814,['y'],0.687362099999973,1.62,1848.7526209000002,,,,,552,18,Woman,Right,
,,,,,,,,,,,,,,,,,552,18,Woman,Right,4,56,0.15,1,0,-,180,0.7378481999999167,['y'],0.3347446000002492,1.62,1852.5861656000002,,,,,552,18,Woman,Right,
,,,,,,,,,,,,,,,,,552,18,Woman,Right,4,24,0.4,1,0,-,0,0.2364839000001666,['n'],0.6072306999999455,1.714,1855.9692135,,,,,552,18,Woman,Right,
,,,,,,,,,,,,,,,,,552,18,Woman,Right,4,19,0.4,2,180,0,0,0.34121070000037435,['y'],0.49588459999995393,1.714,1858.9693978,,,,,552,18,Woman,Right,
,,,,,,,,,,,,,,,,,552,18,Woman,Right,4,11,0.4,2,180,0,0,0.33713319999969826,['y'],0.2952033000001393,1.714,1862.3860292,,,,,552,18,Woman,Right,
,,,,,,,,,,,,,,,,,552,18,Woman,Right,4,46,0.15,1,180,-,0,0.5773426999999174,['y'],0.6228019000000131,1.714,1866.1693877000002,,,,,552,18,Woman,Right,
,,,,,,,,,,,,,,,,,552,18,Woman,Right,4,8,0.4,1,0,-,0,0.8057965999996668,['n'],0.6471965000000637,1.938,1871.5527425999999,,,,,552,18,Woman,Right,
,,,,,,,,,,,,,,,,,552,18,Woman,Right,4,75,0.15,2,180,0,0,0.6084621000004518,['y'],0.49506239999982427,1.932,1875.2362001000001,,,,,552,18,Woman,Right,
,,,,,,,,,,,,,,,,,552,18,Woman,Right,4,71,0.15,2,180,0,0,0.9876322000000073,['y'],0.799398900000142,1.73,1879.8365451,,,,,552,18,Woman,Right,
,,,,,,,,,,,,,,,,,552,18,Woman,Right,4,22,0.4,1,180,-,180,0.7132243000000926,['n'],0.334849999999733,1.73,1883.552803,,,,,552,18,Woman,Right,
,,,,,,,,,,,,,,,,,552,18,Woman,Right,4,54,0.15,1,180,-,0,0.7518647000001693,['y'],0.6389784000002692,1.73,1887.6360276999999,,,,,552,18,Woman,Right,
,,,,,,,,,,,,,,,,,552,18,Woman,Right,4,18,0.4,1,180,-,0,0.3833321000001888,['y'],0.6227481000000807,1.73,1891.0526541,,,,,552,18,Woman,Right,
,,,,,,,,,,,,,,,,,552,18,Woman,Right,4,26,0.4,1,180,-,180,0.8000338000001648,['n'],0.3905633999997917,1.73,1894.7692349,,,,,552,18,Woman,Right,
,,,,,,,,,,,,,,,,,552,18,Woman,Right,4,6,1,1,180,-,180,0.6070126999998138,['n'],1.07088849999991,1.73,1899.6693878,,,,,552,18,Woman,Right,
,,,,,,,,,,,,,,,,,552,18,Woman,Right,4,5,1,2,0,180,180,0.8116755000000921,['y'],0.31087299999990137,1.73,1903.0026877999999,,,,,552,18,Woman,Right,
,,,,,,,,,,,,,,,,,552,18,Woman,Right,4,50,0.15,1,180,-,180,0.5250584999998864,['n'],0.6712062999999944,1.73,1906.3203125999999,,,,,552,18,Woman,Right,
,,,,,,,,,,,,,,,,,552,18,Woman,Right,4,43,0.4,2,180,0,0,0.48175190000029033,['y'],0.5273061000002599,1.73,1909.4692925,,,,,552,18,Woman,Right,
,,,,,,,,,,,,,,,,,552,18,Woman,Right,4,48,0.15,1,0,-,0,0.7262906999999359,['y'],0.27895669999998063,1.73,1909.4692925,,,,,552,18,Woman,Right,
,,,,,,,,,,,,,,,,,552,18,Woman,Right,4,20,0.4,1,0,-,0,0.17957079999996495,['n'],0.6714050000000498,1.73,1915.6194021000001,,,,,552,18,Woman,Right,
,,,,,,,,,,,,,,,,,552,18,Woman,Right,4,14,0.4,1,180,-,180,0.41680989999986195,['n'],0.8709899000000405,1.73,1919.1193371,,,,,552,18,Woman,Right,
,,,,,,,,,,,,,,,,,552,18,Woman,Right,4,35,0.4,2,180,0,0,1.0188182000001689,['y'],0.3908744000000297,1.73,1923.1526893999999,,,,,552,18,Woman,Right,
,,,,,,,,,,,,,,,,,552,18,Woman,Right,4,16,0.4,1,0,-,0,0.6364505000001373,['n'],0.7108898999999838,1.73,1926.7204384000001,,,,,552,18,Woman,Right,
,,,,,,,,,,,,,,,,,552,18,Woman,Right,4,65,0.15,2,0,180,0,1.0777556999996705,['y'],0.35082239999974263,1.73,1930.4861114999999,,,,,552,18,Woman,Right,
,,,,,,,,,,,,,,,,,552,18,Woman,Right,4,69,0.15,2,0,180,180,0.6457684999995763,['y'],0.9589132999999492,1.73,1934.1863489000002,,,,,552,18,Woman,Right,
,,,,,,,,,,,,,,,,,552,18,Woman,Right,4,30,0.4,1,180,-,180,0.6583095000000867,['n'],0.7909475999999813,1.73,1938.2860299,,,,,552,18,Woman,Right,
,,,,,,,,,,,,,,,,,552,18,Woman,Right,4,15,0.4,2,180,0,0,0.6597554999998465,['y'],0.5589184999998906,1.846,1942.2197417000002,,,,,552,18,Woman,Right,
,,,,,,,,,,,,,,,,,552,18,Woman,Right,4,29,0.4,2,0,180,180,0.870250599999963,['y'],0.23094859999991968,1.8479999999999999,1945.9029455,,,,,552,18,Woman,Right,
,,,,,,,,,,,,,,,,,552,18,Woman,Right,4,34,0.4,1,180,-,0,1.0501389000000927,['y'],0.551386900000125,1.694,1950.5526906,,,,,552,18,Woman,Right,
,,,,,,,,,,,,,,,,,552,18,Woman,Right,4,77,0.15,2,0,180,180,0.4234908000003088,['y'],0.3668939999997747,1.694,1953.5527977000002,,,,,552,18,Woman,Right,
,,,,,,,,,,,,,,,,,552,18,Woman,Right,4,41,0.4,2,0,180,180,0.8343516999998428,['y'],1.1829545999999027,1.812,1957.8360819,,,,,552,18,Woman,Right,
,,,,,,,,,,,,,,,,,552,18,Woman,Right,4,12,0.4,1,0,-,0,0.5901588000001539,['n'],0.7510949000002256,1.812,1961.5036377000001,,,,,552,18,Woman,Right,
,,,,,,,,,,,,,,,,,552,18,Woman,Right,4,68,0.15,1,0,-,180,0.611701599999833,['y'],0.5912478999998712,1.812,1965.1528621000002,,,,,552,18,Woman,Right,
,,,,,,,,,,,,,,,,,552,18,Woman,Right,4,36,0.4,1,0,-,0,0.3867611999999099,['n'],0.6150375000001986,1.812,1968.3861296,,,,,552,18,Woman,Right,
,,,,,,,,,,,,,,,,,552,18,Woman,Right,4,25,0.4,2,0,180,180,0.4655588999999054,['y'],0.3749422999999297,1.812,1971.5527499999998,,,,,552,18,Woman,Right,
,,,,,,,,,,,,,,,,,552,18,Woman,Right,4,13,0.4,2,0,180,180,0.7322048000000905,['y'],0.5593177000000651,1.812,1975.0860773999998,,,,,552,18,Woman,Right,
,,,,,,,,,,,,,,,,,552,18,Woman,Right,4,38,0.4,1,180,-,0,0.4062799000002997,['y'],1.111051899999893,1.812,1978.8360830000001,,,,,552,18,Woman,Right,
,,,,,,,,,,,,,,,,,552,18,Woman,Right,4,10,0.4,1,180,-,180,0.5742617000000791,['y'],0.2788097000002381,1.812,1982.1196642999998,,,,,552,18,Woman,Right,
,,,,,,,,,,,,,,,,,552,18,Woman,Right,4,49,0.15,2,0,180,0,0.31281639999997424,['y'],0.5509855000000243,1.812,1985.1529725,,,,,552,18,Woman,Right,
,,,,,,,,,,,,,,,,,552,18,Woman,Right,4,9,0.4,2,0,180,180,0.47507599999971717,['y'],0.6311962999998286,1.812,1988.3195899000002,,,,,552,18,Woman,Right,
,,,,,,,,,,,,,,,,,552,18,Woman,Right,4,60,0.15,1,0,-,0,0.38232890000017505,['n'],1.0629655000002458,1.812,1992.4861412999999,,,,,552,18,Woman,Right,
,,,,,,,,,,,,,,,,,552,18,Woman,Right,4,59,0.15,2,180,0,0,0.4049451999999292,['y'],2.6233154000001377,1.812,1998.0528393999998,,,,,552,18,Woman,Right,
,,,,,,,,,,,,,,,,,552,18,Woman,Right,4,64,0.15,1,0,-,180,1.4309097000000293,['y'],0.8308520999999018,1.816,2002.5028085,,,,,552,18,Woman,Right,
,,,,,,,,,,,,,,,,,552,18,Woman,Right,4,32,0.4,1,0,-,0,1.4923343000000386,['n'],0.5349092000001292,1.816,2006.6531712,,,,,552,18,Woman,Right,
,,,,,,,,,,,,,,,,,552,18,Woman,Right,4,70,0.15,1,180,-,180,0.8000313999996251,['n'],0.2650381000003108,1.816,2009.9862210000001,,,,,552,18,Woman,Right,
,,,,,,,,,,,,,,,,,552,18,Woman,Right,4,7,1,2,180,0,0,0.5051817999997184,['y'],0.6389510999997583,1.816,2013.769558,,,,,552,18,Woman,Right,
,,,,,,,,,,,,,,,,,552,18,Woman,Right,4,73,0.15,2,0,180,180,0.5221796000000722,['y'],0.9669421999997212,1.662,2017.9361097,,,,,552,18,Woman,Right,
,,,,,,,,,,,,,,,,,552,18,Woman,Right,4,52,0.15,1,0,-,0,0.7122778000002654,['y'],1.1432035000002543,1.68,2022.4363455000002,,,,,552,18,Woman,Right,
,,,,,,,,,,,,,,,,,552,18,Woman,Right,4,33,0.4,2,0,180,180,0.6781825999996727,['y'],0.31097019999970144,1.874,2026.7028292999998,,,,,552,18,Woman,Right,
,,,,,,,,,,,,,,,,,552,18,Woman,Right,4,40,0.4,1,0,-,0,0.30753709999999046,['n'],0.9747495000001436,1.874,2030.3028539000002,,,,,552,18,Woman,Right,
,,,,,,,,,,,,,,,,,552,18,Woman,Right,4,1,1,2,0,180,180,0.48555039999973815,['y'],1.4550764999999046,1.926,2034.9527904000001,,,,,552,18,Woman,Right,
,,,,,,,,,,,,,,,,,552,18,Woman,Right,4,63,0.15,2,180,0,180,0.8718634000001657,['n'],0.662725600000158,1.334,2039.7865544,,,,,552,18,Woman,Right,
,,,,,,,,,,,,,,,,,552,18,Woman,Right,4,79,0.15,2,180,0,0,0.35893940000005387,['n'],0.967049599999882,1.404,2044.4363231000002,,,,,552,18,Woman,Right,
,,,,,,,,,,,,,,,,,552,18,Woman,Right,4,62,0.15,1,180,-,180,0.7834335000002284,['n'],0.6614571000000069,1.5779999999999998,2048.7861679000002,,,,,552,18,Woman,Right,
,,,,,,,,,,,,,,,,,552,18,Woman,Right,4,44,0.15,1,0,-,0,0.2056671999998798,['y'],0.8072157000001425,1.5779999999999998,2052.2030209,,,,,552,18,Woman,Right,
,,,,,,,,,,,,,,,,,552,18,Woman,Right,4,4,1,1,0,-,0,0.38214419999985694,['n'],0.51892719999978,1.866,2055.4862498,,,,,552,18,Woman,Right,
,,,,,,,,,,,,,,,,,552,18,Woman,Right,4,31,0.4,2,180,0,0,0.749648900000011,['y'],0.7589151000001948,1.866,2059.2362162,,,,,552,18,Woman,Right,
,,,,,,,,,,,,,,,,,552,18,Woman,Right,4,55,0.15,2,180,0,180,0.4928037999998196,['y'],0.4789694999999483,1.866,2062.4029094,,,,,552,18,Woman,Right,
,,,,,,,,,,,,,,,,,552,18,Woman,Right,4,27,0.4,2,180,0,0,0.4060511999996379,['y'],0.31899410000005446,1.866,2065.3028685,,,,,552,18,Woman,Right,
,,,,,,,,,,,,,,,,,552,18,Woman,Right,4,45,0.15,2,0,180,180,2.2496806999997716,['y'],0.23516319999998814,1.866,2069.9031419,,,,,552,18,Woman,Right,
,,,,,,,,,,,,,,,,,552,18,Woman,Right,4,67,0.15,2,180,0,0,0.420093000000179,['y'],0.2791839000001346,1.866,2072.7196219,,,,,552,18,Woman,Right,
,,,,,,,,,,,,,,,,,552,18,Woman,Right,4,0,1,1,0,-,0,0.19003079999993133,['n'],0.5109650999997939,1.866,2072.7196219,,,,,552,18,Woman,Right,
,,,,,,,,,,,,,,,,,552,18,Woman,Right,4,58,0.15,1,180,-,180,1.6467060999998466,['y'],1.9430307000002358,1.866,2081.3028613,,,,,552,18,Woman,Right,
,,,,,,,,,,,,,,,,,552,18,Woman,Right,4,53,0.15,2,0,180,0,0.2942118000000846,['y'],0.3668880000000172,1.866,2081.3028613,,,,,552,18,Woman,Right,
,,,,,,,,,,,,,,,,,552,18,Woman,Right,4,42,0.4,1,180,-,180,1.8380484999997861,['n'],0.6628871000002619,1.866,2088.6362629,,,,,552,18,Woman,Right,
,,,,,,,,,,,,,,,,,552,18,Woman,Right,4,72,0.15,1,0,-,0,0.27951109999958135,['n'],0.7673230000000331,1.866,2091.7363144,,,,,552,18,Woman,Right,
,,,,,,,,,,,,,,,,,552,18,Woman,Right,4,57,0.15,2,0,180,0,0.8821791000000303,['y'],0.39890790000026755,1.866,2095.6198364,,,,,552,18,Woman,Right,
,,,,,,,,,,,,,,,,,552,18,Woman,Right,4,66,0.15,1,180,-,180,0.4441458999999668,['n'],0.4229389000001902,1.546,2099.919616,,,,,552,18,Woman,Right,
,,,,,,,,,,,,,,,,,552,18,Woman,Right,4,47,0.15,2,180,0,0,0.4179805000003398,['y'],0.5351645000000644,1.552,2103.2863423999997,,,,,552,18,Woman,Right,
,,,,,,,,,,,,,,,,,552,18,Woman,Right,4,74,0.15,1,180,-,0,0.6753577999998015,['y'],0.8789906000001793,1.552,2107.1029142999996,,,,,552,18,Woman,Right,
,,,,,,,,,,,,,,,,,552,18,Woman,Right,4,3,1,2,180,0,0,0.46089740000024904,['y'],0.8792216000001645,1.81,2110.8363148,,,,,552,18,Woman,Right,
,,,,,,,,,,,,,,,,,552,18,Woman,Right,4,61,0.15,2,0,180,180,1.4467547000003833,['y'],0.36696829999982583,1.81,2114.8862274000003,,,,,552,18,Woman,Right,
,,,,,,,,,,,,,,,,,552,18,Woman,Right,4,28,0.4,1,0,-,0,0.26203540000005887,['n'],0.4790321000000404,1.81,2117.6697352,,,,,552,18,Woman,Right,
,,,,,,,,,,,,,,,,,552,18,Woman,Right,4,76,0.15,1,0,-,180,0.6167448999995031,['y'],0.31501509999998234,1.81,2122.2198448,,,,,552,18,Woman,Right,
,,,,,,,,,,,,,,,,,552,18,Woman,Right,4,21,0.4,2,0,180,180,0.711390799999208,['y'],0.9270982999996704,1.81,2126.0029502999996,,,,,552,18,Woman,Right,
,,,,,,,,,,,,,,,,,552,18,Woman,Right,5,54,0.15,1,180,-,0,0.6833370000003924,['n'],0.9157193999999436,1.81,2134.6865262,78.75,60.0,95.0,,552,18,Woman,Right,
,,,,,,,,,,,,,,,,,552,18,Woman,Right,5,49,0.15,2,0,180,180,0.6286126000004515,['y'],1.1989917999999307,1.81,2138.7364915,,,,,552,18,Woman,Right,
,,,,,,,,,,,,,,,,,552,18,Woman,Right,5,60,0.15,1,0,-,0,0.2752954999996291,['n'],0.3109098000004451,1.81,2141.7529109999996,,,,,552,18,Woman,Right,
,,,,,,,,,,,,,,,,,552,18,Woman,Right,5,66,0.15,1,180,-,180,0.5714288999997734,['n'],0.7589005999998335,1.81,2145.1207964000005,,,,,552,18,Woman,Right,
,,,,,,,,,,,,,,,,,552,18,Woman,Right,5,57,0.15,2,0,180,0,0.3013480999998137,['n'],0.47123800000008487,1.81,2148.2363586,,,,,552,18,Woman,Right,
,,,,,,,,,,,,,,,,,552,18,Woman,Right,5,30,0.4,1,180,-,180,0.5038843000002089,['n'],0.9670360000000073,1.81,2151.7529790999997,,,,,552,18,Woman,Right,
,,,,,,,,,,,,,,,,,552,18,Woman,Right,5,36,0.4,1,0,-,0,0.24080330000015238,['n'],1.327059800000825,1.81,2155.6364887,,,,,552,18,Woman,Right,
,,,,,,,,,,,,,,,,,552,18,Woman,Right,5,33,0.4,2,0,180,180,0.5465055999993638,['y'],0.574587099999917,1.81,2159.3865623,,,,,552,18,Woman,Right,
,,,,,,,,,,,,,,,,,552,18,Woman,Right,5,29,0.4,2,0,180,180,0.3394138000003295,['y'],0.7190215000000535,1.81,2162.5031976,,,,,552,18,Woman,Right,
,,,,,,,,,,,,,,,,,552,18,Woman,Right,5,69,0.15,2,0,180,180,0.5552846999999019,['y'],0.43907839999974385,1.81,2165.6030041000004,,,,,552,18,Woman,Right,
,,,,,,,,,,,,,,,,,552,18,Woman,Right,5,10,0.4,1,180,-,180,0.7541516999999658,['n'],0.26318429999992077,1.81,2169.1364085000005,,,,,552,18,Woman,Right,
,,,,,,,,,,,,,,,,,552,18,Woman,Right,5,73,0.15,2,0,180,180,0.3801954000000478,['n'],0.8149128999993991,1.134,2173.5200639000004,,,,,552,18,Woman,Right,
,,,,,,,,,,,,,,,,,552,18,Woman,Right,5,72,0.15,1,0,-,180,0.5628334999992148,['n'],0.5507715000003373,1.6139999999999999,2177.8698789,,,,,552,18,Woman,Right,
,,,,,,,,,,,,,,,,,552,18,Woman,Right,5,22,0.4,1,180,-,180,1.413558300000659,['n'],0.3827553999999509,1.5779999999999998,2183.4530704999997,,,,,552,18,Woman,Right,
,,,,,,,,,,,,,,,,,552,18,Woman,Right,5,45,0.15,2,0,180,180,0.7207106999994721,['y'],1.0389776000001802,1.5779999999999998,2187.8696793,,,,,552,18,Woman,Right,
,,,,,,,,,,,,,,,,,552,18,Woman,Right,5,5,1,2,0,180,180,1.0999596999999994,['y'],0.20220070000050328,1.8820000000000001,2191.9531196,,,,,552,18,Woman,Right,
,,,,,,,,,,,,,,,,,552,18,Woman,Right,5,41,0.4,2,0,180,180,0.8834108999999444,['y'],0.286599699999897,1.8820000000000001,2195.2030723999997,,,,,552,18,Woman,Right,
,,,,,,,,,,,,,,,,,552,18,Woman,Right,5,7,1,2,180,0,0,0.4399499000001015,['y'],0.3671432000001005,1.8820000000000001,2199.1030983,,,,,552,18,Woman,Right,
,,,,,,,,,,,,,,,,,552,18,Woman,Right,5,56,0.15,1,0,-,0,0.2966114999999263,['y'],0.38346029999956954,1.8820000000000001,2202.5874606999996,,,,,552,18,Woman,Right,
,,,,,,,,,,,,,,,,,552,18,Woman,Right,5,12,0.4,1,0,-,0,0.29667439999957423,['n'],0.5352332000002207,1.5939999999999999,2207.3697386000003,,,,,552,18,Woman,Right,
,,,,,,,,,,,,,,,,,552,18,Woman,Right,5,31,0.4,2,180,0,0,0.936018299999887,['y'],0.4309115000005477,1.92,2211.1864652000004,,,,,552,18,Woman,Right,
,,,,,,,,,,,,,,,,,552,18,Woman,Right,5,52,0.15,1,0,-,0,0.5672998000000007,['y'],0.6232475999995586,1.6560000000000001,2215.4698093999996,,,,,552,18,Woman,Right,
,,,,,,,,,,,,,,,,,552,18,Woman,Right,5,40,0.4,1,0,-,0,0.5946784999996453,['n'],0.9268377999997028,1.6520000000000001,2219.4197035999996,,,,,552,18,Woman,Right,
,,,,,,,,,,,,,,,,,552,18,Woman,Right,5,6,1,1,180,-,180,0.6246708999997281,['n'],0.7671615999997812,1.6520000000000001,2222.8363984,,,,,552,18,Woman,Right,
,,,,,,,,,,,,,,,,,552,18,Woman,Right,5,47,0.15,2,180,0,0,0.9492963999991844,['y'],0.7109952000000703,1.708,2226.9366216,,,,,552,18,Woman,Right,
,,,,,,,,,,,,,,,,,552,18,Woman,Right,5,27,0.4,2,180,0,0,0.25922759999957634,['y'],0.5828965999999127,1.708,2230.4530879000004,,,,,552,18,Woman,Right,
,,,,,,,,,,,,,,,,,552,18,Woman,Right,5,3,1,2,180,0,0,0.4140060999998241,['y'],0.8230751999999484,1.708,2233.7697242000004,,,,,552,18,Woman,Right,
,,,,,,,,,,,,,,,,,552,18,Woman,Right,5,19,0.4,2,180,0,0,0.419828599999164,['y'],0.30289799999991374,1.708,2237.3199513,,,,,552,18,Woman,Right,
,,,,,,,,,,,,,,,,,552,18,Woman,Right,5,70,0.15,1,180,-,180,0.48350290000053064,['y'],0.8169169000002512,1.708,2240.9198083,,,,,552,18,Woman,Right,
,,,,,,,,,,,,,,,,,552,18,Woman,Right,5,46,0.15,1,180,-,180,0.9694176000002699,['y'],0.4229058000000805,1.708,2244.4866739999998,,,,,552,18,Woman,Right,
,,,,,,,,,,,,,,,,,552,18,Woman,Right,5,17,0.4,2,0,180,180,0.43854339999961667,['y'],0.4631881000004796,1.708,2247.4531653000004,,,,,552,18,Woman,Right,
,,,,,,,,,,,,,,,,,552,18,Woman,Right,5,63,0.15,2,180,0,0,0.5168435000005047,['y'],0.4733269999996992,1.708,2250.5032682,,,,,552,18,Woman,Right,
,,,,,,,,,,,,,,,,,552,18,Woman,Right,5,9,0.4,2,0,180,180,0.5532269999994242,['y'],0.30359500000031403,1.708,2254.0197298000003,,,,,552,18,Woman,Right,
,,,,,,,,,,,,,,,,,552,18,Woman,Right,5,59,0.15,2,180,0,0,0.40850159999990865,['y'],0.295422399999552,1.708,2256.8030386,,,,,552,18,Woman,Right,
,,,,,,,,,,,,,,,,,552,18,Woman,Right,5,14,0.4,1,180,-,180,0.3385269000000335,['n'],0.6789177000000564,1.708,2259.8198614000003,,,,,552,18,Woman,Right,
,,,,,,,,,,,,,,,,,552,18,Woman,Right,5,67,0.15,2,180,0,0,0.3272073999996792,['y'],0.3913004000005458,1.708,2262.5865175,,,,,552,18,Woman,Right,
,,,,,,,,,,,,,,,,,552,18,Woman,Right,5,64,0.15,1,0,-,0,0.4172174000004816,['y'],0.34323289999974804,1.708,2265.4698304000003,,,,,552,18,Woman,Right,
,,,,,,,,,,,,,,,,,552,18,Woman,Right,5,53,0.15,2,0,180,180,0.3098939000001337,['n'],0.3351959999999963,1.708,2268.1363803000004,,,,,552,18,Woman,Right,
,,,,,,,,,,,,,,,,,552,18,Woman,Right,5,43,0.4,2,180,0,0,0.25791860000026645,['y'],0.2868787000006705,1.708,2270.8367177,,,,,552,18,Woman,Right,
,,,,,,,,,,,,,,,,,552,18,Woman,Right,5,55,0.15,2,180,0,180,0.7271732999997766,['y'],0.9509594000001016,1.81,2275.0533349999996,,,,,552,18,Woman,Right,
,,,,,,,,,,,,,,,,,552,18,Woman,Right,5,79,0.15,2,180,0,0,0.23327789999984816,['y'],0.5908564999999726,1.81,2278.1034224000005,,,,,552,18,Woman,Right,
,,,,,,,,,,,,,,,,,552,18,Woman,Right,5,24,0.4,1,0,-,0,0.7729959000007511,['n'],0.3429503000006662,1.81,2281.3867456,,,,,552,18,Woman,Right,
,,,,,,,,,,,,,,,,,552,18,Woman,Right,5,21,0.4,2,0,180,180,0.6570978000008836,['y'],0.2551997000000483,1.81,2281.3867456,,,,,552,18,Woman,Right,
,,,,,,,,,,,,,,,,,552,18,Woman,Right,5,44,0.15,1,0,-,180,2.32468340000014,['y'],0.27892900000006193,1.81,2289.8031911,,,,,552,18,Woman,Right,
,,,,,,,,,,,,,,,,,552,18,Woman,Right,5,62,0.15,1,180,-,180,0.34435369999937393,['n'],0.6549632000005658,1.81,2292.8533810999998,,,,,552,18,Woman,Right,
,,,,,,,,,,,,,,,,,552,18,Woman,Right,5,13,0.4,2,0,180,0,0.5844855000004827,['y'],0.9029149999996662,1.81,2296.5198179999998,,,,,552,18,Woman,Right,
,,,,,,,,,,,,,,,,,552,18,Woman,Right,5,74,0.15,1,180,-,180,0.4000367999997252,['n'],0.473993700000392,1.81,2300.2697825000005,,,,,552,18,Woman,Right,
,,,,,,,,,,,,,,,,,552,18,Woman,Right,5,16,0.4,1,0,-,0,0.3384291000002122,['n'],0.758955700000115,1.81,2303.6709583,,,,,552,18,Woman,Right,
,,,,,,,,,,,,,,,,,552,18,Woman,Right,5,11,0.4,2,180,0,180,0.4153370999993058,['y'],0.5269892000005711,1.81,2306.6699027000004,,,,,552,18,Woman,Right,
,,,,,,,,,,,,,,,,,552,18,Woman,Right,5,76,0.15,1,0,-,0,0.48687900000004447,['n'],0.5349876000000222,1.81,2309.7531503,,,,,552,18,Woman,Right,
,,,,,,,,,,,,,,,,,552,18,Woman,Right,5,0,1,1,0,-,0,1.1989197000002605,['n'],1.6631049999996321,2.0,2315.8864856,,,,,552,18,Woman,Right,
,,,,,,,,,,,,,,,,,552,18,Woman,Right,5,25,0.4,2,0,180,180,0.4386617000000115,['y'],0.43092839999917487,1.936,2318.9698242000004,,,,,552,18,Woman,Right,
,,,,,,,,,,,,,,,,,552,18,Woman,Right,5,78,0.15,1,180,-,0,0.41769120000026305,['y'],0.791382600000361,1.79,2322.5866067999996,,,,,552,18,Woman,Right,
,,,,,,,,,,,,,,,,,552,18,Woman,Right,5,71,0.15,2,180,0,0,0.401994900000318,['y'],0.3190111000003526,1.79,2325.7536778000003,,,,,552,18,Woman,Right,
,,,,,,,,,,,,,,,,,552,18,Woman,Right,5,26,0.4,1,180,-,180,0.7437755999999354,['n'],0.33487909999985277,1.79,2329.2034997,,,,,552,18,Woman,Right,
,,,,,,,,,,,,,,,,,552,18,Woman,Right,5,68,0.15,1,0,-,0,0.16979770000034478,['n'],0.5991067000004477,1.79,2329.2034997,,,,,552,18,Woman,Right,
,,,,,,,,,,,,,,,,,552,18,Woman,Right,5,1,1,2,0,180,180,0.5150661999996373,['y'],0.398906899999929,1.79,2334.9375394,,,,,552,18,Woman,Right,
,,,,,,,,,,,,,,,,,552,18,Woman,Right,5,20,0.4,1,0,-,0,0.8791020999997272,['n'],0.990930599999956,1.79,2338.9364603000004,,,,,552,18,Woman,Right,
,,,,,,,,,,,,,,,,,552,18,Woman,Right,5,18,0.4,1,180,-,180,0.3042002999991382,['y'],0.56657770000038,1.358,2343.3199238999996,,,,,552,18,Woman,Right,
,,,,,,,,,,,,,,,,,552,18,Woman,Right,5,50,0.15,1,180,-,180,2.0833788999998433,['n'],0.13985460000003513,1.76,2348.3032456,,,,,552,18,Woman,Right,
,,,,,,,,,,,,,,,,,552,18,Woman,Right,5,35,0.4,2,180,0,0,0.7423621999996612,['y'],0.6873101999999562,1.814,2352.0374491000002,,,,,552,18,Woman,Right,
,,,,,,,,,,,,,,,,,552,18,Woman,Right,5,42,0.4,1,180,-,180,0.7985834999999497,['n'],0.5430409000000509,1.814,2355.6365738000004,,,,,552,18,Woman,Right,
,,,,,,,,,,,,,,,,,552,18,Woman,Right,5,61,0.15,2,0,180,0,0.6044574999996257,['y'],0.7189914999999019,1.814,2359.0865722999997,,,,,552,18,Woman,Right,
,,,,,,,,,,,,,,,,,552,18,Woman,Right,5,37,0.4,2,0,180,180,0.9999032999994597,['y'],0.5126673000004303,1.814,2362.6867921000003,,,,,552,18,Woman,Right,
,,,,,,,,,,,,,,,,,552,18,Woman,Right,5,2,1,1,180,-,180,0.5577172000002975,['n'],0.3428893000000244,1.814,2365.6034587000004,,,,,552,18,Woman,Right,
,,,,,,,,,,,,,,,,,552,18,Woman,Right,5,4,1,1,0,-,0,0.20828119999987393,['n'],0.7269823000005999,1.814,2365.6034587000004,,,,,552,18,Woman,Right,
,,,,,,,,,,,,,,,,,552,18,Woman,Right,5,75,0.15,2,180,0,180,0.26448489999984304,['y'],1.0313425000003917,1.814,2371.9199756999997,,,,,552,18,Woman,Right,
,,,,,,,,,,,,,,,,,552,18,Woman,Right,5,65,0.15,2,0,180,0,0.3243923999998515,['y'],1.0310393999998269,1.814,2375.7699525999997,,,,,552,18,Woman,Right,
,,,,,,,,,,,,,,,,,552,18,Woman,Right,5,34,0.4,1,180,-,180,0.5164291999999477,['n'],0.9589445000001433,1.442,2380.6532945999998,,,,,552,18,Woman,Right,
,,,,,,,,,,,,,,,,,552,18,Woman,Right,5,51,0.15,2,180,0,0,1.0343559999992067,['n'],0.35183599999982107,1.562,2384.7036767,,,,,552,18,Woman,Right,
,,,,,,,,,,,,,,,,,552,18,Woman,Right,5,58,0.15,1,180,-,0,1.6497761000000537,['n'],1.3832118999998784,1.562,2391.7032288,,,,,552,18,Woman,Right,
,,,,,,,,,,,,,,,,,552,18,Woman,Right,5,8,0.4,1,0,-,0,0.36442149999948015,['n'],0.3991934999994555,1.562,2394.4875595000003,,,,,552,18,Woman,Right,
,,,,,,,,,,,,,,,,,552,18,Woman,Right,5,15,0.4,2,180,0,0,1.4710758999999598,['y'],0.31920629999967787,1.562,2398.8533970999997,,,,,552,18,Woman,Right,
,,,,,,,,,,,,,,,,,552,18,Woman,Right,5,28,0.4,1,0,-,0,0.862893599999552,['n'],0.2868975000001228,1.562,2402.1532876,,,,,552,18,Woman,Right,
,,,,,,,,,,,,,,,,,552,18,Woman,Right,5,23,0.4,2,180,0,0,0.34166970000023866,['y'],0.5029590000003736,1.788,2405.3866863000003,,,,,552,18,Woman,Right,
,,,,,,,,,,,,,,,,,552,18,Woman,Right,5,32,0.4,1,0,-,0,0.3674901000003956,['n'],0.3272852000000057,1.732,2408.3700713999997,,,,,552,18,Woman,Right,
,,,,,,,,,,,,,,,,,552,18,Woman,Right,5,38,0.4,1,180,-,180,0.7764434999999139,['n'],0.7429172000001927,1.732,2411.9201573,,,,,552,18,Woman,Right,
,,,,,,,,,,,,,,,,,552,18,Woman,Right,5,39,0.4,2,180,0,0,0.40240890000040963,['y'],0.9669347999997626,1.732,2415.8868205999997,,,,,552,18,Woman,Right,
,,,,,,,,,,,,,,,,,552,18,Woman,Right,5,77,0.15,2,0,180,180,0.32433820000005653,['y'],0.2953176999999414,1.732,2420.669981,,,,,552,18,Woman,Right,
,,,,,,,,,,,,,,,,,552,18,Woman,Right,5,48,0.15,1,0,-,0,0.27552710000054503,['n'],0.5030275999997684,1.732,2423.7368761999996,,,,,552,18,Woman,Right,
,,,,,,,,,,,,,,,,,,,,,,,,,,,,,,,,,85.0,80.0,90.0,2149.7994557,,,,,
