p_block,p_section,p_coherence,p_direction1,p_direction2,p_direction_response,p_direction_RT,p_change_response,p_change_RT,p_confidence,p_full_correct,p_without5_correct,p_full_total,p_without5_total,p_full_avg,p_witout5_avg,p_total_time,sub,age,sex,handedness,loop,trial randomization,coherence,condition,direction1,direction2,direction_response,direction_RT,change_response,change_RT,change_confidence,change_confidence_RT,block_direction_avg,block_stable_avg,block_change_avg,total_time,sub,age,sex,handedness,
1,1,1.0,0,-,0,3.722576400003163,-,-,-,,,,,,,,522,20,Man,Right,,,,,,,,,,,,,,,,,522,20,Man,Right,
1,1,1.0,180,-,180,0.4968996000025072,-,-,-,,,,,,,,522,20,Man,Right,,,,,,,,,,,,,,,,,522,20,Man,Right,
1,1,1.0,0,-,0,0.29570850000163773,-,-,-,,,,,,,,522,20,Man,Right,,,,,,,,,,,,,,,,,522,20,Man,Right,
1,1,1.0,180,-,180,0.127222700000857,-,-,-,,,,,,,,522,20,Man,Right,,,,,,,,,,,,,,,,,522,20,Man,Right,
1,1,1.0,180,-,180,0.016734800003177952,-,-,-,,,,,,,,522,20,Man,Right,,,,,,,,,,,,,,,,,522,20,Man,Right,
1,1,1.0,0,-,0,1.2147040999989258,-,-,-,,,,,,,,522,20,Man,Right,,,,,,,,,,,,,,,,,522,20,Man,Right,
1,1,1.0,0,-,0,0.28138449999823933,-,-,-,,,,,,,,522,20,Man,Right,,,,,,,,,,,,,,,,,522,20,Man,Right,
1,1,1.0,0,-,0,0.9353284000026179,-,-,-,,,,,,,,522,20,Man,Right,,,,,,,,,,,,,,,,,522,20,Man,Right,
1,1,1.0,180,-,180,0.2928385999985039,-,-,-,,,,,,,,522,20,Man,Right,,,,,,,,,,,,,,,,,522,20,Man,Right,
1,1,1.0,180,-,180,0.18715209999936633,-,-,-,10,10,10,10,1.0,1.0,,522,20,Man,Right,,,,,,,,,,,,,,,,,522,20,Man,Right,
2,1,0.4,180,-,180,0.016432500000519212,-,-,-,,,,,,,,522,20,Man,Right,,,,,,,,,,,,,,,,,522,20,Man,Right,
2,1,0.4,0,-,0,0.595045800000662,-,-,-,,,,,,,,522,20,Man,Right,,,,,,,,,,,,,,,,,522,20,Man,Right,
2,1,0.15,0,-,180,0.5279805999962264,-,-,-,,,,,,,,522,20,Man,Right,,,,,,,,,,,,,,,,,522,20,Man,Right,
2,1,0.4,180,-,180,0.3327028000057908,-,-,-,,,,,,,,522,20,Man,Right,,,,,,,,,,,,,,,,,522,20,Man,Right,
2,1,0.4,180,-,180,0.2190195999937714,-,-,-,,,,,,,,522,20,Man,Right,,,,,,,,,,,,,,,,,522,20,Man,Right,
2,1,0.4,0,-,0,0.24419330000091577,-,-,-,,,,,,,,522,20,Man,Right,,,,,,,,,,,,,,,,,522,20,Man,Right,
2,1,0.15,180,-,180,0.4375910000017029,-,-,-,,,,,,,,522,20,Man,Right,,,,,,,,,,,,,,,,,522,20,Man,Right,
2,1,0.4,180,-,180,0.14237339999817777,-,-,-,,,,,,,,522,20,Man,Right,,,,,,,,,,,,,,,,,522,20,Man,Right,
2,1,0.15,0,-,0,0.3875317999991239,-,-,-,,,,,,,,522,20,Man,Right,,,,,,,,,,,,,,,,,522,20,Man,Right,
2,1,0.4,0,-,0,0.28670200000487966,-,-,-,9,7,10,7,0.9,1.0,,522,20,Man,Right,,,,,,,,,,,,,,,,,522,20,Man,Right,
3,2,1.0,180,0,0,3.8002206000019214,['y'],5.234750499999791,2,,,,,,,,522,20,Man,Right,,,,,,,,,,,,,,,,,522,20,Man,Right,
3,2,1.0,180,0,0,0.7727186999982223,['y'],0.8890319999991334,2.0,,,,,,,,522,20,Man,Right,,,,,,,,,,,,,,,,,522,20,Man,Right,
3,2,1.0,0,180,180,0.6003277999989223,['y'],1.6208578000005218,2.0,,,,,,,,522,20,Man,Right,,,,,,,,,,,,,,,,,522,20,Man,Right,
3,2,1.0,0,180,180,0.6361740000065765,['y'],0.733775799999421,2.0,,,,,,,,522,20,Man,Right,,,,,,,,,,,,,,,,,522,20,Man,Right,
3,2,1.0,180,0,0,0.6641702999986592,['y'],1.1116649999967194,2.0,,,,,,,,522,20,Man,Right,,,,,,,,,,,,,,,,,522,20,Man,Right,
3,2,1.0,180,0,0,0.6881884000031278,['y'],1.0237464999954682,2.0,,,,,,,,522,20,Man,Right,,,,,,,,,,,,,,,,,522,20,Man,Right,
3,2,1.0,180,0,0,0.3852298999991035,['y'],1.084270599996671,2.0,,,,,,,,522,20,Man,Right,,,,,,,,,,,,,,,,,522,20,Man,Right,
3,2,1.0,180,0,0,0.4485610999981873,['y'],0.737363499996718,2.0,,,,,,,,522,20,Man,Right,,,,,,,,,,,,,,,,,522,20,Man,Right,
3,2,1.0,0,180,180,0.36582320000161417,['y'],0.9305590000003576,2.0,,,,,,,,522,20,Man,Right,,,,,,,,,,,,,,,,,522,20,Man,Right,
3,2,1.0,180,0,0,0.4332222000011825,['y'],0.8745127000001958,2.0,10,10,10,10,1.0,1.0,,522,20,Man,Right,,,,,,,,,,,,,,,,,522,20,Man,Right,
4,2,0.15,0,180,180,2.2113870999965,['y'],2.957633200006967,1.0,,,,,,,,522,20,Man,Right,,,,,,,,,,,,,,,,,522,20,Man,Right,
4,2,0.4,0,180,180,0.6480068000018946,['y'],0.8334218000018154,2.0,,,,,,,,522,20,Man,Right,,,,,,,,,,,,,,,,,522,20,Man,Right,
4,2,0.4,0,180,180,0.62469279999641,['y'],0.3388055000032182,2.0,,,,,,,,522,20,Man,Right,,,,,,,,,,,,,,,,,522,20,Man,Right,
4,2,0.4,0,180,180,0.44316729999991367,['y'],2.8364234999971814,2.0,,,,,,,,522,20,Man,Right,,,,,,,,,,,,,,,,,522,20,Man,Right,
4,2,0.4,0,180,180,0.7611369000005652,['y'],0.7411730000021635,2.0,,,,,,,,522,20,Man,Right,,,,,,,,,,,,,,,,,522,20,Man,Right,
4,2,0.15,180,0,0,1.6796340000000782,['y'],0.7187479999993229,1.268,,,,,,,,522,20,Man,Right,,,,,,,,,,,,,,,,,522,20,Man,Right,
4,2,0.15,0,180,0,0.5335565000059432,['y'],2.9313266999961343,1.0,,,,,,,,522,20,Man,Right,,,,,,,,,,,,,,,,,522,20,Man,Right,
4,2,0.15,0,180,180,0.4926555000056396,['y'],0.4509621999968658,1.768,,,,,,,,522,20,Man,Right,,,,,,,,,,,,,,,,,522,20,Man,Right,
4,2,0.15,180,0,0,0.5676725000012084,['y'],0.7076470000029076,2.0,,,,,,,,522,20,Man,Right,,,,,,,,,,,,,,,,,522,20,Man,Right,
4,2,0.4,0,180,180,0.29741529999591876,['y'],1.1443247999995947,2.0,9,5,10,5,0.9,1.0,,522,20,Man,Right,,,,,,,,,,,,,,,,,522,20,Man,Right,
5,3,0.15,0,180,0,1.6833827000009478,['y'],3.979035999996995,1.734,,,,,,,,522,20,Man,Right,,,,,,,,,,,,,,,,,522,20,Man,Right,
5,3,0.4,0,180,180,1.5641610000020592,['y'],2.953368700000283,2.0,,,,,,,,522,20,Man,Right,,,,,,,,,,,,,,,,,522,20,Man,Right,
5,3,0.15,180,-,0,0.310721800000465,['y'],0.4291047999940929,1.0,,,,,,,,522,20,Man,Right,,,,,,,,,,,,,,,,,522,20,Man,Right,
5,3,1.0,0,-,180,1.3932485000041197,['y'],4.909562100001494,1.0,,,,,,,,522,20,Man,Right,,,,,,,,,,,,,,,,,522,20,Man,Right,
5,3,0.15,180,0,180,1.0536808000033488,['n'],4.487168500003463,1.0,,,,,,,,522,20,Man,Right,,,,,,,,,,,,,,,,,522,20,Man,Right,
5,3,0.4,180,0,0,0.4571492000031867,['y'],0.5777585999967414,2.0,,,,,,,,522,20,Man,Right,,,,,,,,,,,,,,,,,522,20,Man,Right,
5,3,0.15,0,180,0,3.1056661999973585,['n'],1.5375545999995666,1.0,,,,,,,,522,20,Man,Right,,,,,,,,,,,,,,,,,522,20,Man,Right,
5,3,1.0,0,-,0,3.8163820000045234,['n'],0.26665109999885317,2.0,,,,,,,,522,20,Man,Right,,,,,,,,,,,,,,,,,522,20,Man,Right,
5,3,0.15,180,-,0,3.7505683999988833,['n'],0.755075000000943,1.5899999999999999,,,,,,,,522,20,Man,Right,,,,,,,,,,,,,,,,,522,20,Man,Right,
5,3,1.0,180,0,0,2.048561099996732,['y'],5.033338900000672,1.862,,,,,,,,522,20,Man,Right,,,,,,,,,,,,,,,,,522,20,Man,Right,
5,3,1.0,0,-,0,0.867612400004873,['y'],2.4678492000020924,1.3519999999999999,,,,,,,,522,20,Man,Right,,,,,,,,,,,,,,,,,522,20,Man,Right,
5,3,1.0,180,0,180,1.2189032999958727,['y'],0.2761238000020967,1.312,,,,,,,,522,20,Man,Right,,,,,,,,,,,,,,,,,522,20,Man,Right,
5,3,1.0,180,0,0,0.9335688999999547,['y'],0.3641069000004791,2.0,,,,,,,,522,20,Man,Right,,,,,,,,,,,,,,,,,522,20,Man,Right,
5,3,0.4,0,-,0,2.3226157999961288,['n'],0.32876979999855394,2.0,,,,,,,,522,20,Man,Right,,,,,,,,,,,,,,,,,522,20,Man,Right,
5,3,1.0,180,-,180,1.0617357000010088,['n'],1.6941542999993544,1.732,,,,,,,,522,20,Man,Right,,,,,,,,,,,,,,,,,522,20,Man,Right,
5,3,1.0,0,-,0,0.6613919000010355,['n'],0.27787370000442024,2.0,,,,,,,,522,20,Man,Right,,,,,,,,,,,,,,,,,522,20,Man,Right,
5,3,1.0,180,0,0,2.67461049999838,['y'],4.146071600000141,1.862,,,,,,,,522,20,Man,Right,,,,,,,,,,,,,,,,,522,20,Man,Right,
5,3,1.0,180,-,180,1.5893593000000692,['n'],0.3125676999989082,2.0,,,,,,,,522,20,Man,Right,,,,,,,,,,,,,,,,,522,20,Man,Right,
5,3,0.4,180,-,180,1.218061999999918,['n'],0.32371770000463584,1.876,,,,,,,,522,20,Man,Right,,,,,,,,,,,,,,,,,522,20,Man,Right,
5,3,0.4,0,180,180,1.5112187000049744,['y'],0.7485966999956872,1.994,9,9,10,10,0.9,0.9,,522,20,Man,Right,,,,,,,,,,,,,,,,,522,20,Man,Right,
,,,,,,,,,,,,,,,,4.4000043999403715e-06,522,20,Man,Right,,,,,,,,,,,,,,,,,522,20,Man,Right,
,,,,,,,,,,,,,,,,,522,20,Man,Right,0,34,0.4,1,180,-,180,1.8792199000017717,['y'],5.896375900003477,1.686,438.9016511000009,,,,,522,20,Man,Right,
,,,,,,,,,,,,,,,,,522,20,Man,Right,0,36,0.4,1,0,-,0,0.7739519000024302,['n'],1.1283443000065745,1.6139999999999999,444.08408580000105,,,,,522,20,Man,Right,
,,,,,,,,,,,,,,,,,522,20,Man,Right,0,62,0.15,1,180,-,0,3.4505214000018896,['y'],1.7967537000004086,1.536,452.4508286000055,,,,,522,20,Man,Right,
,,,,,,,,,,,,,,,,,522,20,Man,Right,0,60,0.15,1,0,-,0,2.026800200001162,['n'],1.135242800002743,1.0,459.784187199999,,,,,522,20,Man,Right,
,,,,,,,,,,,,,,,,,522,20,Man,Right,0,33,0.4,2,0,180,180,1.1597813999978825,['y'],0.839814999999362,2.0,464.41742570000497,,,,,522,20,Man,Right,
,,,,,,,,,,,,,,,,,522,20,Man,Right,0,32,0.4,1,0,-,0,1.2487117999990005,['n'],1.6874090999990585,1.6280000000000001,472.1675230000037,,,,,522,20,Man,Right,
,,,,,,,,,,,,,,,,,522,20,Man,Right,0,59,0.15,2,180,0,0,1.1668605000013486,['y'],0.9272841999991215,1.756,478.0507394000015,,,,,522,20,Man,Right,
,,,,,,,,,,,,,,,,,522,20,Man,Right,0,43,0.4,2,180,0,0,1.2590149999959976,['y'],0.8313439000048675,1.76,482.95185570000467,,,,,522,20,Man,Right,
,,,,,,,,,,,,,,,,,522,20,Man,Right,0,78,0.15,1,180,-,180,1.3545713999992586,['n'],0.8956440999972983,1.276,488.9342166999995,,,,,522,20,Man,Right,
,,,,,,,,,,,,,,,,,522,20,Man,Right,0,26,0.4,1,180,-,180,1.8652097999947728,['n'],0.7837043999970774,1.612,494.91768969999976,,,,,522,20,Man,Right,
,,,,,,,,,,,,,,,,,522,20,Man,Right,0,23,0.4,2,180,0,0,0.9396372999981395,['y'],3.560134300001664,1.8980000000000001,502.9842056000052,,,,,522,20,Man,Right,
,,,,,,,,,,,,,,,,,522,20,Man,Right,0,38,0.4,1,180,-,0,1.11180880000029,['y'],1.0240351999964332,1.712,508.5852722000054,,,,,522,20,Man,Right,
,,,,,,,,,,,,,,,,,522,20,Man,Right,0,51,0.15,2,180,0,180,0.8235718000069028,['n'],4.672127199999522,1.3,517.4847836000044,,,,,522,20,Man,Right,
,,,,,,,,,,,,,,,,,522,20,Man,Right,0,48,0.15,1,0,-,0,1.6624261000033584,['n'],0.9839257999992697,1.224,523.5508463000006,,,,,522,20,Man,Right,
,,,,,,,,,,,,,,,,,522,20,Man,Right,0,39,0.4,2,180,0,0,0.9165434999958961,['y'],0.7949392000009539,1.918,528.6015864000001,,,,,522,20,Man,Right,
,,,,,,,,,,,,,,,,,522,20,Man,Right,0,8,0.4,1,0,-,180,0.9145149999967543,['y'],0.8391530000008061,1.96,534.4848566000001,,,,,522,20,Man,Right,
,,,,,,,,,,,,,,,,,522,20,Man,Right,0,30,0.4,1,180,-,180,0.6017551999975694,['n'],0.8312072999979137,1.948,539.7516130000004,,,,,522,20,Man,Right,
,,,,,,,,,,,,,,,,,522,20,Man,Right,0,17,0.4,2,0,180,180,0.782326100001228,['n'],0.6790661999984877,1.69,545.4175964000024,,,,,522,20,Man,Right,
,,,,,,,,,,,,,,,,,522,20,Man,Right,0,41,0.4,2,0,180,180,1.201835799998662,['y'],0.783420899999328,1.92,550.9509191000034,,,,,522,20,Man,Right,
,,,,,,,,,,,,,,,,,522,20,Man,Right,0,54,0.15,1,180,-,180,0.5885557000001427,['n'],0.647544100000232,1.608,555.6009154999992,,,,,522,20,Man,Right,
,,,,,,,,,,,,,,,,,522,20,Man,Right,0,74,0.15,1,180,-,180,1.6588145999994595,['n'],4.320141500000318,1.222,565.0844406000033,,,,,522,20,Man,Right,
,,,,,,,,,,,,,,,,,522,20,Man,Right,0,70,0.15,1,180,-,180,0.4103744000021834,['n'],1.4075779000049806,1.87,569.8014569000006,,,,,522,20,Man,Right,
,,,,,,,,,,,,,,,,,522,20,Man,Right,0,71,0.15,2,180,0,180,0.4486689999976079,['n'],0.7035026000012294,1.838,573.8514351999984,,,,,522,20,Man,Right,
,,,,,,,,,,,,,,,,,522,20,Man,Right,0,75,0.15,2,180,0,180,0.650009199998749,['n'],1.5361526999986381,1.8679999999999999,579.0678759000002,,,,,522,20,Man,Right,
,,,,,,,,,,,,,,,,,522,20,Man,Right,0,27,0.4,2,180,0,0,1.0699445999998716,['y'],3.311579499997606,1.684,587.9009447999997,,,,,522,20,Man,Right,
,,,,,,,,,,,,,,,,,522,20,Man,Right,0,77,0.15,2,0,180,180,1.6652599000008195,['y'],0.9755962000053842,1.6600000000000001,595.0176705000049,,,,,522,20,Man,Right,
,,,,,,,,,,,,,,,,,522,20,Man,Right,0,3,1,2,180,0,0,0.9470727999942028,['y'],3.4878280999982962,2.0,603.834869600003,,,,,522,20,Man,Right,
,,,,,,,,,,,,,,,,,522,20,Man,Right,0,25,0.4,2,0,180,180,0.7500674000038998,['y'],1.2798899999979767,2.0,610.1849150999988,,,,,522,20,Man,Right,
,,,,,,,,,,,,,,,,,522,20,Man,Right,0,5,1,2,0,180,180,0.6883065999936662,['y'],2.648351600000751,1.992,617.2516823000042,,,,,522,20,Man,Right,
,,,,,,,,,,,,,,,,,522,20,Man,Right,0,11,0.4,2,180,0,0,0.6904128000023775,['y'],0.9278077999988454,2.0,621.6516361000031,,,,,522,20,Man,Right,
,,,,,,,,,,,,,,,,,522,20,Man,Right,0,2,1,1,180,-,180,1.5122426000016276,['n'],4.392228400000022,1.88,631.601267900005,,,,,522,20,Man,Right,
,,,,,,,,,,,,,,,,,522,20,Man,Right,0,68,0.15,1,0,-,180,2.152270899998257,['n'],1.0314509000018006,1.054,637.6676608999987,,,,,522,20,Man,Right,
,,,,,,,,,,,,,,,,,522,20,Man,Right,0,31,0.4,2,180,0,0,0.5893123999994714,['y'],2.4156449000001885,1.782,644.4849721999999,,,,,522,20,Man,Right,
,,,,,,,,,,,,,,,,,522,20,Man,Right,0,4,1,1,0,-,180,4.817627799995535,['y'],2.3590818000011495,1.248,655.0510549000028,,,,,522,20,Man,Right,
,,,,,,,,,,,,,,,,,522,20,Man,Right,0,69,0.15,2,0,180,0,1.1920175999985076,['n'],1.4717183999964618,1.204,660.8686769999986,,,,,522,20,Man,Right,
,,,,,,,,,,,,,,,,,522,20,Man,Right,0,22,0.4,1,180,-,180,0.7743549000006169,['n'],0.7193530000004102,2.0,665.6511893999996,,,,,522,20,Man,Right,
,,,,,,,,,,,,,,,,,522,20,Man,Right,0,45,0.15,2,0,180,180,3.147238700003072,['y'],0.9994328999964637,1.6139999999999999,673.2023824999997,,,,,522,20,Man,Right,
,,,,,,,,,,,,,,,,,522,20,Man,Right,0,49,0.15,2,0,180,180,0.5077518000034615,['n'],0.695560199994361,1.686,677.0845225000012,,,,,522,20,Man,Right,
,,,,,,,,,,,,,,,,,522,20,Man,Right,0,1,1,2,0,180,180,2.6611678000044776,['y'],2.0633207999999286,1.686,677.0845225000012,,,,,522,20,Man,Right,
,,,,,,,,,,,,,,,,,522,20,Man,Right,0,12,0.4,1,0,-,180,1.2670748999953503,['y'],4.533729800001311,1.91,694.5009780000037,,,,,522,20,Man,Right,
,,,,,,,,,,,,,,,,,522,20,Man,Right,0,18,0.4,1,180,-,180,0.8931341999996221,['n'],0.6718073999945773,1.3479999999999999,699.7016653000028,,,,,522,20,Man,Right,
,,,,,,,,,,,,,,,,,522,20,Man,Right,0,64,0.15,1,0,-,0,0.6496260999992955,['n'],0.8314775999970152,1.346,704.2516299000054,,,,,522,20,Man,Right,
,,,,,,,,,,,,,,,,,522,20,Man,Right,0,24,0.4,1,0,-,0,0.40012040000146953,['n'],0.6765441000025021,1.736,709.5351119000043,,,,,522,20,Man,Right,
,,,,,,,,,,,,,,,,,522,20,Man,Right,0,56,0.15,1,0,-,180,1.2784868000017013,['n'],5.24006609999924,1.1139999999999999,718.9676155999987,,,,,522,20,Man,Right,
,,,,,,,,,,,,,,,,,522,20,Man,Right,0,63,0.15,2,180,0,180,0.40553129999898374,['n'],0.9916899999952875,1.904,723.751056400004,,,,,522,20,Man,Right,
,,,,,,,,,,,,,,,,,522,20,Man,Right,0,42,0.4,1,180,-,180,0.7972308000025805,['n'],10.00057740000193,1.1360000000000001,738.0676835999984,,,,,522,20,Man,Right,
,,,,,,,,,,,,,,,,,522,20,Man,Right,0,58,0.15,1,180,-,180,0.5955229999963194,['n'],2.9596852000031504,1.5979999999999999,744.4177175000004,,,,,522,20,Man,Right,
,,,,,,,,,,,,,,,,,522,20,Man,Right,0,20,0.4,1,0,-,0,0.437673000000359,['n'],1.3519575000027544,1.666,748.7510983000029,,,,,522,20,Man,Right,
,,,,,,,,,,,,,,,,,522,20,Man,Right,0,13,0.4,2,0,180,180,0.8092328000057023,['y'],5.287799800003995,1.728,759.9016004000005,,,,,522,20,Man,Right,
,,,,,,,,,,,,,,,,,522,20,Man,Right,0,28,0.4,1,0,-,0,0.5148778999937349,['n'],0.759992900006182,1.734,763.9011649000022,,,,,522,20,Man,Right,
,,,,,,,,,,,,,,,,,522,20,Man,Right,0,0,1,1,0,-,0,1.2671924000023864,['n'],0.8578000999987125,1.754,768.3677363000024,,,,,522,20,Man,Right,
,,,,,,,,,,,,,,,,,522,20,Man,Right,0,50,0.15,1,180,-,180,0.5144959000026574,['n'],2.8399620999989565,1.87,776.0353754000025,,,,,522,20,Man,Right,
,,,,,,,,,,,,,,,,,522,20,Man,Right,0,35,0.4,2,180,0,0,0.5449309999967227,['y'],1.0955223999990267,1.764,782.8344447000054,,,,,522,20,Man,Right,
,,,,,,,,,,,,,,,,,522,20,Man,Right,0,14,0.4,1,180,-,180,0.7522623999975622,['n'],0.6000012000004062,1.432,789.2345282000024,,,,,522,20,Man,Right,
,,,,,,,,,,,,,,,,,522,20,Man,Right,0,53,0.15,2,0,180,180,2.2379762000055052,['n'],1.2318454999985988,1.716,797.4351425999994,,,,,522,20,Man,Right,
,,,,,,,,,,,,,,,,,522,20,Man,Right,0,67,0.15,2,180,0,180,0.40816910000285134,['y'],2.287511700000323,1.8559999999999999,802.6677277999988,,,,,522,20,Man,Right,
,,,,,,,,,,,,,,,,,522,20,Man,Right,0,72,0.15,1,0,-,180,1.204199100000551,['y'],1.2398436999937985,1.926,808.286168300001,,,,,522,20,Man,Right,
,,,,,,,,,,,,,,,,,522,20,Man,Right,0,10,0.4,1,180,-,0,1.8832680999985314,['y'],0.9513854999968316,1.6680000000000001,815.284436300004,,,,,522,20,Man,Right,
,,,,,,,,,,,,,,,,,522,20,Man,Right,0,47,0.15,2,180,0,0,0.3857406000024639,['y'],1.1836413999990327,1.6099999999999999,819.3011734000029,,,,,522,20,Man,Right,
,,,,,,,,,,,,,,,,,522,20,Man,Right,0,9,0.4,2,0,180,180,0.77364619999571,['y'],3.023782799995388,1.932,827.467910899999,,,,,522,20,Man,Right,
,,,,,,,,,,,,,,,,,522,20,Man,Right,0,7,1,2,180,0,0,0.5236650999941048,['y'],1.9039013000001432,2.0,833.319016100002,,,,,522,20,Man,Right,
,,,,,,,,,,,,,,,,,522,20,Man,Right,0,52,0.15,1,0,-,0,1.114406599997892,['n'],3.6799084000012954,1.178,841.1017347000015,,,,,522,20,Man,Right,
,,,,,,,,,,,,,,,,,522,20,Man,Right,0,76,0.15,1,0,-,180,1.6336854999972275,['y'],0.6155876999982866,1.178,841.1017347000015,,,,,522,20,Man,Right,
,,,,,,,,,,,,,,,,,522,20,Man,Right,0,19,0.4,2,180,0,0,0.7762053000042215,['y'],0.935970400008955,2.0,851.0345923000059,,,,,522,20,Man,Right,
,,,,,,,,,,,,,,,,,522,20,Man,Right,0,66,0.15,1,180,-,0,2.1521192000072915,['y'],1.0318482000002405,1.184,857.4012954999998,,,,,522,20,Man,Right,
,,,,,,,,,,,,,,,,,522,20,Man,Right,0,61,0.15,2,0,180,180,0.7679722000029869,['y'],0.8150431999965804,1.84,863.0017874999976,,,,,522,20,Man,Right,
,,,,,,,,,,,,,,,,,522,20,Man,Right,0,6,1,1,180,-,180,1.256464500009315,['y'],0.7356590000126744,2.0,869.0017359999983,,,,,522,20,Man,Right,
,,,,,,,,,,,,,,,,,522,20,Man,Right,0,16,0.4,1,0,-,0,0.4746175000036601,['n'],9.832997300007264,1.732,883.1845598,,,,,522,20,Man,Right,
,,,,,,,,,,,,,,,,,522,20,Man,Right,0,44,0.15,1,0,-,180,0.7696145999943838,['n'],0.895046600009664,1.746,889.0851411999975,,,,,522,20,Man,Right,
,,,,,,,,,,,,,,,,,522,20,Man,Right,0,46,0.15,1,180,-,0,0.7498364999919431,['n'],1.7117541000043275,1.272,895.0012177999961,,,,,522,20,Man,Right,
,,,,,,,,,,,,,,,,,522,20,Man,Right,0,65,0.15,2,0,180,180,0.45045780000509694,['n'],1.239862999995239,1.3319999999999999,900.4680139000047,,,,,522,20,Man,Right,
,,,,,,,,,,,,,,,,,522,20,Man,Right,0,15,0.4,2,180,0,0,0.6885582999966573,['y'],1.9436822999996366,1.77,906.452346099999,,,,,522,20,Man,Right,
,,,,,,,,,,,,,,,,,522,20,Man,Right,0,55,0.15,2,180,0,180,0.4256959999911487,['n'],1.3675446999986889,1.02,912.2847218000024,,,,,522,20,Man,Right,
,,,,,,,,,,,,,,,,,522,20,Man,Right,0,57,0.15,2,0,180,0,1.7799265000066953,['n'],0.1915339999977732,1.0,917.5687556999983,,,,,522,20,Man,Right,
,,,,,,,,,,,,,,,,,522,20,Man,Right,0,29,0.4,2,0,180,180,0.6476204000064172,['y'],3.192154099990148,1.718,924.6020997000087,,,,,522,20,Man,Right,
,,,,,,,,,,,,,,,,,522,20,Man,Right,0,79,0.15,2,180,0,0,0.3998723999975482,['y'],1.0316593000025023,1.674,929.5013583000036,,,,,522,20,Man,Right,
,,,,,,,,,,,,,,,,,522,20,Man,Right,0,40,0.4,1,0,-,180,0.36058870000124443,['y'],1.6478157000092324,1.354,940.2519646000073,,,,,522,20,Man,Right,
,,,,,,,,,,,,,,,,,522,20,Man,Right,0,21,0.4,2,0,180,180,0.39001099999586586,['y'],2.511714899999788,1.354,940.2519646000073,,,,,522,20,Man,Right,
,,,,,,,,,,,,,,,,,522,20,Man,Right,0,73,0.15,2,0,180,180,4.734540499994182,['n'],1.4156853000022238,1.0,956.5351233000038,,,,,522,20,Man,Right,
,,,,,,,,,,,,,,,,,522,20,Man,Right,0,37,0.4,2,0,180,180,0.39935140000307,['y'],0.9120062999863876,2.0,960.7691019999984,,,,,522,20,Man,Right,
,,,,,,,,,,,,,,,,,522,20,Man,Right,1,1,1,2,0,180,180,0.33418360000359826,['y'],5.384139200003119,1.912,995.6517883999986,72.5,70.0,70.0,,522,20,Man,Right,
,,,,,,,,,,,,,,,,,522,20,Man,Right,1,11,0.4,2,180,0,0,0.42076670000096783,['y'],0.9279840000090189,2.0,1000.1679991000055,,,,,522,20,Man,Right,
,,,,,,,,,,,,,,,,,522,20,Man,Right,1,53,0.15,2,0,180,180,0.3769581999949878,['y'],2.7601342999987537,1.828,1005.9859742000044,,,,,522,20,Man,Right,
,,,,,,,,,,,,,,,,,522,20,Man,Right,1,59,0.15,2,180,0,0,0.35116009999183007,['y'],1.6571723999950336,2.0,1011.0353698000035,,,,,522,20,Man,Right,
,,,,,,,,,,,,,,,,,522,20,Man,Right,1,61,0.15,2,0,180,0,2.341360500009614,['y'],0.41517219999514055,1.134,1016.6520226000066,,,,,522,20,Man,Right,
,,,,,,,,,,,,,,,,,522,20,Man,Right,1,55,0.15,2,180,0,0,1.1276614000089467,['y'],0.6633682999963639,1.168,1021.834829899999,,,,,522,20,Man,Right,
,,,,,,,,,,,,,,,,,522,20,Man,Right,1,62,0.15,1,180,-,180,1.1939739999943413,['y'],0.5674256999918725,1.396,1026.4180544000046,,,,,522,20,Man,Right,
,,,,,,,,,,,,,,,,,522,20,Man,Right,1,45,0.15,2,0,180,180,0.48604670001077466,['y'],0.6315609000012046,1.162,1031.6181509999951,,,,,522,20,Man,Right,
,,,,,,,,,,,,,,,,,522,20,Man,Right,1,42,0.4,1,180,-,180,0.6985831000056351,['n'],4.4157345999992685,1.782,1039.2520952999985,,,,,522,20,Man,Right,
,,,,,,,,,,,,,,,,,522,20,Man,Right,1,3,1,2,180,0,0,0.7214059999969322,['y'],3.576113199989777,1.178,1047.334698300001,,,,,522,20,Man,Right,
,,,,,,,,,,,,,,,,,522,20,Man,Right,1,18,0.4,1,180,-,180,1.3673730000009527,['n'],1.759260799997719,1.812,1053.018118400003,,,,,522,20,Man,Right,
,,,,,,,,,,,,,,,,,522,20,Man,Right,1,26,0.4,1,180,-,180,1.4524691999977222,['n'],3.191530199997942,1.994,1060.7348853000076,,,,,522,20,Man,Right,
,,,,,,,,,,,,,,,,,522,20,Man,Right,1,33,0.4,2,0,180,180,0.3600374999950873,['n'],1.511452399994596,1.942,1065.9180957999997,,,,,522,20,Man,Right,
,,,,,,,,,,,,,,,,,522,20,Man,Right,1,66,0.15,1,180,-,0,2.2827350000006845,['n'],0.775344399997266,1.126,1072.1680946000051,,,,,522,20,Man,Right,
,,,,,,,,,,,,,,,,,522,20,Man,Right,1,65,0.15,2,0,180,180,0.5272588999941945,['n'],6.376539799995953,1.256,1082.2013774000006,,,,,522,20,Man,Right,
,,,,,,,,,,,,,,,,,522,20,Man,Right,1,69,0.15,2,0,180,0,1.7784991000080481,['y'],2.1118180000048596,1.252,1090.8353442000007,,,,,522,20,Man,Right,
,,,,,,,,,,,,,,,,,522,20,Man,Right,1,79,0.15,2,180,0,180,1.353384800007916,['n'],1.343460399992182,1.638,1096.352802100002,,,,,522,20,Man,Right,
,,,,,,,,,,,,,,,,,522,20,Man,Right,1,60,0.15,1,0,-,0,2.4842724000045564,['n'],0.951401900005294,1.18,1103.935398900001,,,,,522,20,Man,Right,
,,,,,,,,,,,,,,,,,522,20,Man,Right,1,7,1,2,180,0,0,2.6536046999972314,['y'],3.912351499995566,2.0,1113.3855568000072,,,,,522,20,Man,Right,
,,,,,,,,,,,,,,,,,522,20,Man,Right,1,24,0.4,1,0,-,0,0.751202800005558,['n'],0.7918659999995725,2.0,1117.4347340000022,,,,,522,20,Man,Right,
,,,,,,,,,,,,,,,,,522,20,Man,Right,1,78,0.15,1,180,-,180,0.6280705999961356,['n'],0.6071766999957617,2.0,1121.1521264999974,,,,,522,20,Man,Right,
,,,,,,,,,,,,,,,,,522,20,Man,Right,1,63,0.15,2,180,0,180,3.2113399999943795,['n'],0.9838519000040833,1.0,1128.302629699996,,,,,522,20,Man,Right,
,,,,,,,,,,,,,,,,,522,20,Man,Right,1,9,0.4,2,0,180,180,1.2103562999982387,['y'],4.712381599994842,1.0,1128.302629699996,,,,,522,20,Man,Right,
,,,,,,,,,,,,,,,,,522,20,Man,Right,1,57,0.15,2,0,180,180,0.7586932999984128,['n'],1.39165609999327,2.0,1141.451485999998,,,,,522,20,Man,Right,
,,,,,,,,,,,,,,,,,522,20,Man,Right,1,71,0.15,2,180,0,180,1.6639939000015147,['n'],0.9677847999992082,2.0,1146.551633700008,,,,,522,20,Man,Right,
,,,,,,,,,,,,,,,,,522,20,Man,Right,1,25,0.4,2,0,180,180,0.8664340999966953,['y'],0.8711383000045316,2.0,1151.3521223000062,,,,,522,20,Man,Right,
,,,,,,,,,,,,,,,,,522,20,Man,Right,1,52,0.15,1,0,-,180,0.39245389999996405,['n'],3.3118983000022126,1.3559999999999999,1158.6854074000075,,,,,522,20,Man,Right,
,,,,,,,,,,,,,,,,,522,20,Man,Right,1,76,0.15,1,0,-,180,0.834545599995181,['n'],0.49560680000286084,1.728,1162.7020286999978,,,,,522,20,Man,Right,
,,,,,,,,,,,,,,,,,522,20,Man,Right,1,49,0.15,2,0,180,180,1.0321380000095814,['y'],3.3922769999917364,2.0,1170.0180995000046,,,,,522,20,Man,Right,
,,,,,,,,,,,,,,,,,522,20,Man,Right,1,12,0.4,1,0,-,0,1.2938623999943957,['n'],0.6872852999949828,1.134,1174.5348442000031,,,,,522,20,Man,Right,
,,,,,,,,,,,,,,,,,522,20,Man,Right,1,37,0.4,2,0,180,180,0.5586258999974234,['n'],3.767769500002032,1.62,1182.934892600002,,,,,522,20,Man,Right,
,,,,,,,,,,,,,,,,,522,20,Man,Right,1,21,0.4,2,0,180,180,0.7431366000091657,['y'],3.335680299991509,1.76,1189.7352281999993,,,,,522,20,Man,Right,
,,,,,,,,,,,,,,,,,522,20,Man,Right,1,32,0.4,1,0,-,180,1.7310939999879338,['y'],2.895241200007149,1.3639999999999999,1197.3522500000036,,,,,522,20,Man,Right,
,,,,,,,,,,,,,,,,,522,20,Man,Right,1,14,0.4,1,180,-,0,0.8211034999985714,['y'],0.7830261000053724,1.5939999999999999,1202.1682071000032,,,,,522,20,Man,Right,
,,,,,,,,,,,,,,,,,522,20,Man,Right,1,10,0.4,1,180,-,180,0.8037824000057299,['n'],0.624159500002861,1.6179999999999999,1205.984958100009,,,,,522,20,Man,Right,
,,,,,,,,,,,,,,,,,522,20,Man,Right,1,36,0.4,1,0,-,180,0.8253872999921441,['y'],0.5998858000093605,1.774,1210.7688560000024,,,,,522,20,Man,Right,
,,,,,,,,,,,,,,,,,522,20,Man,Right,1,23,0.4,2,180,0,0,0.7628922000003513,['y'],2.015722600001027,1.862,1217.0349046999982,,,,,522,20,Man,Right,
,,,,,,,,,,,,,,,,,522,20,Man,Right,1,47,0.15,2,180,0,0,1.9060938000038732,['y'],0.45541369999409653,1.294,1222.4181582999954,,,,,522,20,Man,Right,
,,,,,,,,,,,,,,,,,522,20,Man,Right,1,46,0.15,1,180,-,0,1.226028099990799,['y'],0.5117654000059702,1.596,1227.451603600006,,,,,522,20,Man,Right,
,,,,,,,,,,,,,,,,,522,20,Man,Right,1,19,0.4,2,180,0,0,0.7362458999996306,['y'],3.135743499995442,2.0,1233.7849463999955,,,,,522,20,Man,Right,
,,,,,,,,,,,,,,,,,522,20,Man,Right,1,56,0.15,1,0,-,180,1.790493400010746,['y'],0.9436494000110542,1.5899999999999999,1239.7182138999997,,,,,522,20,Man,Right,
,,,,,,,,,,,,,,,,,522,20,Man,Right,1,67,0.15,2,180,0,0,1.3497687000053702,['y'],0.7277168000000529,1.412,1245.6017868999988,,,,,522,20,Man,Right,
,,,,,,,,,,,,,,,,,522,20,Man,Right,1,31,0.4,2,180,0,0,1.9832862000039313,['y'],0.7081879999896046,1.876,1251.3855033000073,,,,,522,20,Man,Right,
,,,,,,,,,,,,,,,,,522,20,Man,Right,1,4,1,1,0,-,180,0.7796997999976156,['y'],4.904401800013147,2.0,1260.7355404000045,,,,,522,20,Man,Right,
,,,,,,,,,,,,,,,,,522,20,Man,Right,1,75,0.15,2,180,0,180,2.8031305000040447,['n'],1.615119100009906,1.942,1268.4856521999973,,,,,522,20,Man,Right,
,,,,,,,,,,,,,,,,,522,20,Man,Right,1,30,0.4,1,180,-,180,0.4791671000130009,['n'],0.5917661999992561,2.0,1272.0354736000081,,,,,522,20,Man,Right,
,,,,,,,,,,,,,,,,,522,20,Man,Right,1,20,0.4,1,0,-,0,0.9750429999985499,['n'],1.6400256999913836,2.0,1276.8849497999981,,,,,522,20,Man,Right,
,,,,,,,,,,,,,,,,,522,20,Man,Right,1,39,0.4,2,180,0,0,1.1110642999992706,['y'],1.4154644000082044,2.0,1281.885654500009,,,,,522,20,Man,Right,
,,,,,,,,,,,,,,,,,522,20,Man,Right,1,13,0.4,2,0,180,180,1.5150745999999344,['y'],0.8156829000072321,2.0,1286.6025880000016,,,,,522,20,Man,Right,
,,,,,,,,,,,,,,,,,522,20,Man,Right,1,15,0.4,2,180,0,0,1.6666339999937918,['y'],0.817267799997353,2.0,1291.6021739000062,,,,,522,20,Man,Right,
,,,,,,,,,,,,,,,,,522,20,Man,Right,1,77,0.15,2,0,180,0,3.334852599989972,['n'],0.4072902000043541,1.334,1299.152208300009,,,,,522,20,Man,Right,
,,,,,,,,,,,,,,,,,522,20,Man,Right,1,54,0.15,1,180,-,180,0.43622509999840986,['n'],0.5519154000066919,1.334,1302.952170800003,,,,,522,20,Man,Right,
,,,,,,,,,,,,,,,,,522,20,Man,Right,1,38,0.4,1,180,-,180,1.5413681000063661,['n'],0.792086699992069,1.822,1309.1683337000068,,,,,522,20,Man,Right,
,,,,,,,,,,,,,,,,,522,20,Man,Right,1,16,0.4,1,0,-,180,2.5177439999970375,['n'],0.3517878999991808,1.302,1315.8183949000013,,,,,522,20,Man,Right,
,,,,,,,,,,,,,,,,,522,20,Man,Right,1,70,0.15,1,180,-,0,0.6735932000010507,['n'],7.256309200005489,1.354,1326.8521832000042,,,,,522,20,Man,Right,
,,,,,,,,,,,,,,,,,522,20,Man,Right,1,22,0.4,1,180,-,0,0.5792504999990342,['y'],0.7036467000143602,2.0,1331.3517475000044,,,,,522,20,Man,Right,
,,,,,,,,,,,,,,,,,522,20,Man,Right,1,68,0.15,1,0,-,180,1.5164638999995077,['n'],1.2878082999959588,1.268,1337.0016118999993,,,,,522,20,Man,Right,
,,,,,,,,,,,,,,,,,522,20,Man,Right,1,17,0.4,2,0,180,180,0.9769203000032576,['n'],3.624387999996543,1.3319999999999999,1346.1016351000071,,,,,522,20,Man,Right,
,,,,,,,,,,,,,,,,,522,20,Man,Right,1,8,0.4,1,0,-,0,0.38414259999990463,['n'],3.311834899999667,1.29,1352.4016493000017,,,,,522,20,Man,Right,
,,,,,,,,,,,,,,,,,522,20,Man,Right,1,73,0.15,2,0,180,180,2.0434296999883372,['y'],1.5282383000012487,1.798,1358.619238899999,,,,,522,20,Man,Right,
,,,,,,,,,,,,,,,,,522,20,Man,Right,1,72,0.15,1,0,-,180,1.1127134999987902,['n'],1.0308555999945384,1.188,1364.5356194999986,,,,,522,20,Man,Right,
,,,,,,,,,,,,,,,,,522,20,Man,Right,1,6,1,1,180,-,180,1.1037197999976343,['n'],0.29552450000483077,1.188,1364.5356194999986,,,,,522,20,Man,Right,
,,,,,,,,,,,,,,,,,522,20,Man,Right,1,74,0.15,1,180,-,180,1.7227962000033585,['n'],0.40716849999444094,1.806,1373.8183323000048,,,,,522,20,Man,Right,
,,,,,,,,,,,,,,,,,522,20,Man,Right,1,40,0.4,1,0,-,180,1.817354200000409,['y'],0.2308173000055831,1.58,1379.1522876000017,,,,,522,20,Man,Right,
,,,,,,,,,,,,,,,,,522,20,Man,Right,1,2,1,1,180,-,180,0.7461055000021588,['n'],1.5358180000039283,2.0,1384.0855280000033,,,,,522,20,Man,Right,
,,,,,,,,,,,,,,,,,522,20,Man,Right,1,51,0.15,2,180,0,180,0.35912519998964854,['y'],0.20767990000604186,2.0,1388.0356133999958,,,,,522,20,Man,Right,
,,,,,,,,,,,,,,,,,522,20,Man,Right,1,48,0.15,1,0,-,180,11.50521899999876,['y'],2.7357873000000836,1.294,1405.718407100001,,,,,522,20,Man,Right,
,,,,,,,,,,,,,,,,,522,20,Man,Right,1,41,0.4,2,0,180,180,1.1506539000110934,['y'],0.9672301999962656,2.0,1412.885827099999,,,,,522,20,Man,Right,
,,,,,,,,,,,,,,,,,522,20,Man,Right,1,5,1,2,0,180,180,2.576256000000285,['y'],1.4160417999955826,2.0,1419.735137100004,,,,,522,20,Man,Right,
,,,,,,,,,,,,,,,,,522,20,Man,Right,1,35,0.4,2,180,0,0,2.723611900000833,['y'],1.3680080000049202,1.796,1427.6023948000002,,,,,522,20,Man,Right,
,,,,,,,,,,,,,,,,,522,20,Man,Right,1,29,0.4,2,0,180,180,1.1225360999960685,['y'],0.6395100000081584,1.676,1432.4850885999986,,,,,522,20,Man,Right,
,,,,,,,,,,,,,,,,,522,20,Man,Right,1,50,0.15,1,180,-,180,2.2524602000048617,['n'],1.9120056999963708,1.238,1439.6688527000006,,,,,522,20,Man,Right,
,,,,,,,,,,,,,,,,,522,20,Man,Right,1,44,0.15,1,0,-,180,0.6919326000061119,['y'],0.6553610999981174,2.0,1443.7352614000047,,,,,522,20,Man,Right,
,,,,,,,,,,,,,,,,,522,20,Man,Right,1,64,0.15,1,0,-,0,1.4290691000060178,['n'],0.6874133999954211,2.0,1448.102635299998,,,,,522,20,Man,Right,
,,,,,,,,,,,,,,,,,522,20,Man,Right,1,34,0.4,1,180,-,180,1.4683447999996133,['n'],5.6481421000062255,1.568,1458.201773700006,,,,,522,20,Man,Right,
,,,,,,,,,,,,,,,,,522,20,Man,Right,1,58,0.15,1,180,-,0,1.2405933000118239,['y'],0.8877023999957601,1.306,1463.3358640000006,,,,,522,20,Man,Right,
,,,,,,,,,,,,,,,,,522,20,Man,Right,1,43,0.4,2,180,0,0,0.4466318000049796,['y'],1.0712333999981638,2.0,1467.2523628999988,,,,,522,20,Man,Right,
,,,,,,,,,,,,,,,,,522,20,Man,Right,1,28,0.4,1,0,-,0,7.527462600002764,['n'],0.37645809999958146,1.192,1478.6017966,,,,,522,20,Man,Right,
,,,,,,,,,,,,,,,,,522,20,Man,Right,1,0,1,1,0,-,0,0.7602672000066377,['n'],0.8154662000015378,1.5779999999999998,1483.6017451000007,,,,,522,20,Man,Right,
,,,,,,,,,,,,,,,,,522,20,Man,Right,1,27,0.4,2,180,0,180,1.6295031000045128,['y'],1.199888999995892,1.616,1488.802313900007,,,,,522,20,Man,Right,
,,,,,,,,,,,,,,,,,522,20,Man,Right,2,16,0.4,1,0,-,0,0.5114964000094915,['n'],3.2718526999960886,1.328,1535.3859695000065,66.25,70.0,75.0,,522,20,Man,Right,
,,,,,,,,,,,,,,,,,522,20,Man,Right,2,47,0.15,2,180,0,180,0.35713489999761805,['y'],0.9676679999975022,1.328,1535.3859695000065,,,,,522,20,Man,Right,
,,,,,,,,,,,,,,,,,522,20,Man,Right,2,63,0.15,2,180,0,0,0.7444893999927444,['y'],0.4639770000067074,1.626,1545.8859201999949,,,,,522,20,Man,Right,
,,,,,,,,,,,,,,,,,522,20,Man,Right,2,22,0.4,1,180,-,180,0.31885850000253413,['y'],1.6561492000037106,1.752,1551.3857998999956,,,,,522,20,Man,Right,
,,,,,,,,,,,,,,,,,522,20,Man,Right,2,46,0.15,1,180,-,180,0.31201660000078846,['y'],0.39986799999314826,1.686,1554.8519784000018,,,,,522,20,Man,Right,
,,,,,,,,,,,,,,,,,522,20,Man,Right,2,57,0.15,2,0,180,180,1.214648599998327,['n'],1.3677777999982936,1.638,1559.8194139000043,,,,,522,20,Man,Right,
,,,,,,,,,,,,,,,,,522,20,Man,Right,2,31,0.4,2,180,0,0,0.9468839000037406,['y'],1.0630451000033645,1.314,1564.386047,,,,,522,20,Man,Right,
,,,,,,,,,,,,,,,,,522,20,Man,Right,2,37,0.4,2,0,180,180,2.384147500008112,['y'],1.008341399996425,1.986,1571.4359865000079,,,,,522,20,Man,Right,
,,,,,,,,,,,,,,,,,522,20,Man,Right,2,72,0.15,1,0,-,180,1.039128200005507,['y'],3.151915000009467,1.986,1571.4359865000079,,,,,522,20,Man,Right,
,,,,,,,,,,,,,,,,,522,20,Man,Right,2,35,0.4,2,180,0,0,0.3605394000041997,['y'],0.6797374000016134,2.0,1582.851888600002,,,,,522,20,Man,Right,
,,,,,,,,,,,,,,,,,522,20,Man,Right,2,52,0.15,1,0,-,180,0.41585449999547563,['n'],0.7351984999986598,1.0,1586.835308600006,,,,,522,20,Man,Right,
,,,,,,,,,,,,,,,,,522,20,Man,Right,2,58,0.15,1,180,-,0,1.9112859000015305,['y'],0.19179589999839664,1.208,1591.3860375000004,,,,,522,20,Man,Right,
,,,,,,,,,,,,,,,,,522,20,Man,Right,2,11,0.4,2,180,0,0,1.5304575000045588,['y'],1.1038507999910507,1.726,1596.7028122999982,,,,,522,20,Man,Right,
,,,,,,,,,,,,,,,,,522,20,Man,Right,2,48,0.15,1,0,-,0,6.784544399997685,['y'],2.4875981000077445,1.0,1608.9360352000003,,,,,522,20,Man,Right,
,,,,,,,,,,,,,,,,,522,20,Man,Right,2,9,0.4,2,0,180,180,1.6004240000038408,['y'],1.7572261999885086,1.814,1615.318605200002,,,,,522,20,Man,Right,
,,,,,,,,,,,,,,,,,522,20,Man,Right,2,71,0.15,2,180,0,0,2.626582299999427,['y'],0.4154088000068441,1.1520000000000001,1622.0358602999986,,,,,522,20,Man,Right,
,,,,,,,,,,,,,,,,,522,20,Man,Right,2,79,0.15,2,180,0,180,1.1965745999914361,['y'],6.264528500003507,1.192,1632.7527364000052,,,,,522,20,Man,Right,
,,,,,,,,,,,,,,,,,522,20,Man,Right,2,54,0.15,1,180,-,180,1.4808485000103246,['n'],4.999999799998477,1.116,1642.2358260999972,,,,,522,20,Man,Right,
,,,,,,,,,,,,,,,,,522,20,Man,Right,2,30,0.4,1,180,-,0,5.153235300007509,['y'],4.008663199987495,1.316,1654.9521578000058,,,,,522,20,Man,Right,
,,,,,,,,,,,,,,,,,522,20,Man,Right,2,7,1,2,180,0,0,0.8508641999942483,['y'],0.32704230000672396,2.0,1659.9186487000043,,,,,522,20,Man,Right,
,,,,,,,,,,,,,,,,,522,20,Man,Right,2,38,0.4,1,180,-,180,1.533640599998762,['y'],13.736667199991643,1.236,1680.3186064999973,,,,,522,20,Man,Right,
,,,,,,,,,,,,,,,,,522,20,Man,Right,2,4,1,1,0,-,0,0.7578713999973843,['n'],0.7672782000008738,2.0,1684.9186719000063,,,,,522,20,Man,Right,
,,,,,,,,,,,,,,,,,522,20,Man,Right,2,75,0.15,2,180,0,180,2.303610800008755,['n'],2.9919265000062296,1.67,1692.6022224999979,,,,,522,20,Man,Right,
,,,,,,,,,,,,,,,,,522,20,Man,Right,2,50,0.15,1,180,-,180,0.7355498999968404,['n'],2.943403199999011,1.642,1699.5519874999954,,,,,522,20,Man,Right,
,,,,,,,,,,,,,,,,,522,20,Man,Right,2,20,0.4,1,0,-,0,0.3039905000041472,['n'],3.584184899998945,1.5899999999999999,1707.0519977000004,,,,,522,20,Man,Right,
,,,,,,,,,,,,,,,,,522,20,Man,Right,2,10,0.4,1,180,-,0,0.6469375000015134,['n'],1.3919538000045577,1.3439999999999999,1713.9187257000085,,,,,522,20,Man,Right,
,,,,,,,,,,,,,,,,,522,20,Man,Right,2,53,0.15,2,0,180,180,1.591831000012462,['y'],0.8157275000121444,1.658,1719.7852620999984,,,,,522,20,Man,Right,
,,,,,,,,,,,,,,,,,522,20,Man,Right,2,25,0.4,2,0,180,0,3.642967799998587,['n'],5.520536800002446,1.624,1732.7527188000022,,,,,522,20,Man,Right,
,,,,,,,,,,,,,,,,,522,20,Man,Right,2,45,0.15,2,0,180,180,1.5053125000122236,['y'],0.31136660001357086,2.0,1737.2353955000071,,,,,522,20,Man,Right,
,,,,,,,,,,,,,,,,,522,20,Man,Right,2,14,0.4,1,180,-,0,2.5534722000011243,['n'],0.6316055999923265,1.0,1743.0854717999973,,,,,522,20,Man,Right,
,,,,,,,,,,,,,,,,,522,20,Man,Right,2,69,0.15,2,0,180,180,4.448949199999333,['n'],4.296504600002663,1.3479999999999999,1763.586147800008,,,,,522,20,Man,Right,
,,,,,,,,,,,,,,,,,522,20,Man,Right,2,21,0.4,2,0,180,180,2.172597400000086,['y'],1.3039042000018526,1.596,1774.186164000006,,,,,522,20,Man,Right,
,,,,,,,,,,,,,,,,,522,20,Man,Right,2,43,0.4,2,180,0,0,1.0718751000094926,['y'],1.0317918000073405,2.0,1779.9360593999954,,,,,522,20,Man,Right,
,,,,,,,,,,,,,,,,,522,20,Man,Right,2,26,0.4,1,180,-,180,1.242568300003768,['n'],1.263739899994107,1.392,1788.3687391000058,,,,,522,20,Man,Right,
,,,,,,,,,,,,,,,,,522,20,Man,Right,2,1,1,2,0,180,180,0.9464761999988696,['y'],3.0478954999998678,2.0,1794.8354619999955,,,,,522,20,Man,Right,
,,,,,,,,,,,,,,,,,522,20,Man,Right,2,0,1,1,0,-,0,0.5122912999941036,['n'],3.031961400003638,2.0,1800.9854884000015,,,,,522,20,Man,Right,
,,,,,,,,,,,,,,,,,522,20,Man,Right,2,78,0.15,1,180,-,180,0.8309872999961954,['n'],2.2478867000027094,1.242,1806.936240700008,,,,,522,20,Man,Right,
,,,,,,,,,,,,,,,,,522,20,Man,Right,2,32,0.4,1,0,-,180,3.3326193999964744,['n'],6.000739399998565,1.204,1819.9690024000083,,,,,522,20,Man,Right,
,,,,,,,,,,,,,,,,,522,20,Man,Right,2,74,0.15,1,180,-,0,1.9166262999933679,['n'],2.496999399998458,1.682,1827.8869715999972,,,,,522,20,Man,Right,
,,,,,,,,,,,,,,,,,522,20,Man,Right,2,2,1,1,180,-,180,0.3879629000002751,['n'],6.568697599999723,1.334,1838.0521093000061,,,,,522,20,Man,Right,
,,,,,,,,,,,,,,,,,522,20,Man,Right,2,39,0.4,2,180,0,0,0.6158813000074588,['y'],1.24786609999137,2.0,1842.452920600008,,,,,522,20,Man,Right,
,,,,,,,,,,,,,,,,,522,20,Man,Right,2,6,1,1,180,-,180,0.42587019999336917,['n'],0.9597285000054399,1.3980000000000001,1846.8362679000056,,,,,522,20,Man,Right,
,,,,,,,,,,,,,,,,,522,20,Man,Right,2,67,0.15,2,180,0,180,0.4661603999993531,['n'],1.343068799993489,1.6440000000000001,1851.3862014999977,,,,,522,20,Man,Right,
,,,,,,,,,,,,,,,,,522,20,Man,Right,2,3,1,2,180,0,0,1.3264599999965867,['y'],7.848632599998382,1.752,1863.1360517000066,,,,,522,20,Man,Right,
,,,,,,,,,,,,,,,,,522,20,Man,Right,2,33,0.4,2,0,180,180,0.9669427000044379,['y'],4.704039500007639,1.752,1863.1360517000066,,,,,522,20,Man,Right,
,,,,,,,,,,,,,,,,,522,20,Man,Right,2,73,0.15,2,0,180,0,1.8699301000015112,['y'],0.1356348999979673,1.646,1875.7187713999956,,,,,522,20,Man,Right,
,,,,,,,,,,,,,,,,,522,20,Man,Right,2,49,0.15,2,0,180,0,3.7797443000017665,['n'],0.2955079000093974,1.638,1882.468774800007,,,,,522,20,Man,Right,
,,,,,,,,,,,,,,,,,522,20,Man,Right,2,59,0.15,2,180,0,0,2.6880291999987094,['n'],0.3670700999937253,1.3900000000000001,1888.8354968999993,,,,,522,20,Man,Right,
,,,,,,,,,,,,,,,,,522,20,Man,Right,2,51,0.15,2,180,0,0,1.1137281999981496,['y'],0.22377870000491384,1.77,1892.8856351000068,,,,,522,20,Man,Right,
,,,,,,,,,,,,,,,,,522,20,Man,Right,2,13,0.4,2,0,180,180,2.348262200001045,['n'],2.744009999994887,1.3860000000000001,1901.0862299000073,,,,,522,20,Man,Right,
,,,,,,,,,,,,,,,,,522,20,Man,Right,2,55,0.15,2,180,0,180,1.847036199993454,['y'],0.15111479999904986,1.688,1905.5188419999977,,,,,522,20,Man,Right,
,,,,,,,,,,,,,,,,,522,20,Man,Right,2,36,0.4,1,0,-,180,1.10858119999466,['n'],1.3679864000005182,1.8820000000000001,1910.169320299996,,,,,522,20,Man,Right,
,,,,,,,,,,,,,,,,,522,20,Man,Right,2,8,0.4,1,0,-,180,0.7130079000053229,['y'],6.5522474000026705,1.8820000000000001,1910.169320299996,,,,,522,20,Man,Right,
,,,,,,,,,,,,,,,,,522,20,Man,Right,2,28,0.4,1,0,-,180,2.892310900002485,['y'],1.2792393999989145,1.5,1926.3073852000016,,,,,522,20,Man,Right,
,,,,,,,,,,,,,,,,,522,20,Man,Right,2,29,0.4,2,0,180,180,2.161274300000514,['y'],2.0240043999947375,1.75,1933.236123200004,,,,,522,20,Man,Right,
,,,,,,,,,,,,,,,,,522,20,Man,Right,2,62,0.15,1,180,-,180,1.1841300000087358,['n'],0.21574110000801738,2.0,1937.0856374000068,,,,,522,20,Man,Right,
,,,,,,,,,,,,,,,,,522,20,Man,Right,2,42,0.4,1,180,-,180,1.2448206999979448,['n'],1.2881188000028487,2.0,1941.6856479000053,,,,,522,20,Man,Right,
,,,,,,,,,,,,,,,,,522,20,Man,Right,2,23,0.4,2,180,0,0,1.2600975999957882,['y'],0.27153650000400376,2.0,1945.5855624000033,,,,,522,20,Man,Right,
,,,,,,,,,,,,,,,,,522,20,Man,Right,2,24,0.4,1,0,-,0,2.184201599986409,['y'],0.8157877999910852,1.3679999999999999,1953.4863447000025,,,,,522,20,Man,Right,
,,,,,,,,,,,,,,,,,522,20,Man,Right,2,17,0.4,2,0,180,180,0.8120113000040874,['y'],1.4556695999926887,1.996,1958.252301499997,,,,,522,20,Man,Right,
,,,,,,,,,,,,,,,,,522,20,Man,Right,2,70,0.15,1,180,-,0,0.8470540999987861,['n'],1.7842554000089876,1.0,1963.6189540999985,,,,,522,20,Man,Right,
,,,,,,,,,,,,,,,,,522,20,Man,Right,2,65,0.15,2,0,180,0,1.7929689000011422,['n'],0.24780460000329185,1.0,1968.103112600009,,,,,522,20,Man,Right,
,,,,,,,,,,,,,,,,,522,20,Man,Right,2,19,0.4,2,180,0,0,0.8699324999906821,['y'],1.9922958000097424,2.0,1973.7530808000083,,,,,522,20,Man,Right,
,,,,,,,,,,,,,,,,,522,20,Man,Right,2,66,0.15,1,180,-,0,0.6630667999997968,['y'],1.463760699989507,1.6,1979.052322399999,,,,,522,20,Man,Right,
,,,,,,,,,,,,,,,,,522,20,Man,Right,2,12,0.4,1,0,-,0,1.1865936999965925,['y'],1.8800324000039836,1.752,1984.3364920999957,,,,,522,20,Man,Right,
,,,,,,,,,,,,,,,,,522,20,Man,Right,2,5,1,2,0,180,0,1.145344999997178,['y'],2.2157468000077643,2.0,1990.3699596000006,,,,,522,20,Man,Right,
,,,,,,,,,,,,,,,,,522,20,Man,Right,2,56,0.15,1,0,-,0,1.8560486000060337,['y'],2.7277503999939654,1.408,1998.4355668999997,,,,,522,20,Man,Right,
,,,,,,,,,,,,,,,,,522,20,Man,Right,2,64,0.15,1,0,-,0,1.9669981000042753,['n'],0.9434429999964777,1.354,2008.2362829999984,,,,,522,20,Man,Right,
,,,,,,,,,,,,,,,,,522,20,Man,Right,2,68,0.15,1,0,-,180,2.236923199990997,['y'],1.6879681999998866,1.62,2015.068910599999,,,,,522,20,Man,Right,
,,,,,,,,,,,,,,,,,522,20,Man,Right,2,44,0.15,1,0,-,0,0.897636000008788,['n'],0.43959810001251753,1.726,2019.3028818999956,,,,,522,20,Man,Right,
,,,,,,,,,,,,,,,,,522,20,Man,Right,2,40,0.4,1,0,-,0,0.21724729999550618,['n'],0.8795178000000305,1.838,2023.5192054,,,,,522,20,Man,Right,
,,,,,,,,,,,,,,,,,522,20,Man,Right,2,76,0.15,1,0,-,0,1.6378595999995014,['y'],0.5038512000028277,1.592,2028.5362122000006,,,,,522,20,Man,Right,
,,,,,,,,,,,,,,,,,522,20,Man,Right,2,60,0.15,1,0,-,0,0.9644281999935629,['n'],3.7676558999955887,1.592,2028.5362122000006,,,,,522,20,Man,Right,
,,,,,,,,,,,,,,,,,522,20,Man,Right,2,77,0.15,2,0,180,0,0.6914844999992056,['n'],0.8001988000032725,1.5,2039.3954950999978,,,,,522,20,Man,Right,
,,,,,,,,,,,,,,,,,522,20,Man,Right,2,27,0.4,2,180,0,0,0.7025965000066208,['y'],1.9437868999957573,2.0,2045.4523971999952,,,,,522,20,Man,Right,
,,,,,,,,,,,,,,,,,522,20,Man,Right,2,61,0.15,2,0,180,0,2.5946506000036607,['y'],0.34331579999707174,1.126,2051.4690368000083,,,,,522,20,Man,Right,
,,,,,,,,,,,,,,,,,522,20,Man,Right,2,18,0.4,1,180,-,180,0.6504725999984657,['n'],0.6633784000005107,1.0,2055.3540183000077,,,,,522,20,Man,Right,
,,,,,,,,,,,,,,,,,522,20,Man,Right,2,15,0.4,2,180,0,0,0.6156192000053125,['n'],2.2635925999929896,1.6560000000000001,2060.8030287000074,,,,,522,20,Man,Right,
,,,,,,,,,,,,,,,,,522,20,Man,Right,2,34,0.4,1,180,-,0,1.5095739000098547,['y'],0.24785810000321362,1.6560000000000001,2060.8030287000074,,,,,522,20,Man,Right,
,,,,,,,,,,,,,,,,,522,20,Man,Right,2,41,0.4,2,0,180,180,1.992909700013115,['y'],0.18316909999703057,1.3559999999999999,2069.4688996999976,,,,,522,20,Man,Right,
,,,,,,,,,,,,,,,,,522,20,Man,Right,3,76,0.15,1,0,-,0,0.7518034000095213,['n'],1.4236728999967454,1.3860000000000001,2111.7364386000045,66.25,60.0,72.5,,522,20,Man,Right,
,,,,,,,,,,,,,,,,,522,20,Man,Right,3,67,0.15,2,180,0,0,0.29648289999749977,['y'],1.6074071000039112,1.572,2117.069695799997,,,,,522,20,Man,Right,
,,,,,,,,,,,,,,,,,522,20,Man,Right,3,24,0.4,1,0,-,0,1.485981300007552,['n'],0.6959448999987217,1.688,2122.5859636000023,,,,,522,20,Man,Right,
,,,,,,,,,,,,,,,,,522,20,Man,Right,3,36,0.4,1,0,-,180,1.6721702000068035,['y'],0.15160679999098647,1.698,2127.102451100007,,,,,522,20,Man,Right,
,,,,,,,,,,,,,,,,,522,20,Man,Right,3,37,0.4,2,0,180,0,2.1041333000030136,['n'],0.19925099999818485,1.28,2131.9524340999997,,,,,522,20,Man,Right,
,,,,,,,,,,,,,,,,,522,20,Man,Right,3,21,0.4,2,0,180,180,3.1794502999982797,['y'],0.16786239999055397,1.754,2137.985846500007,,,,,522,20,Man,Right,
,,,,,,,,,,,,,,,,,522,20,Man,Right,3,50,0.15,1,180,-,0,2.808232399998815,['n'],1.4715815000090515,1.0,2144.9541635999994,,,,,522,20,Man,Right,
,,,,,,,,,,,,,,,,,522,20,Man,Right,3,54,0.15,1,180,-,0,1.8989071999967564,['y'],1.2959701000072528,1.338,2152.019181200005,,,,,522,20,Man,Right,
,,,,,,,,,,,,,,,,,522,20,Man,Right,3,19,0.4,2,180,0,0,0.9171043999958783,['y'],1.734631699990132,1.8940000000000001,2157.235770300009,,,,,522,20,Man,Right,
,,,,,,,,,,,,,,,,,522,20,Man,Right,3,66,0.15,1,180,-,180,0.6494493000063812,['n'],0.3432042000058573,1.204,2160.903335300005,,,,,522,20,Man,Right,
,,,,,,,,,,,,,,,,,522,20,Man,Right,3,15,0.4,2,180,0,0,1.2940115000092192,['y'],2.1278966999961995,1.752,2166.969066800004,,,,,522,20,Man,Right,
,,,,,,,,,,,,,,,,,522,20,Man,Right,3,34,0.4,1,180,-,180,0.45712650001223665,['n'],0.5594914000103017,1.788,2170.9692558000024,,,,,522,20,Man,Right,
,,,,,,,,,,,,,,,,,522,20,Man,Right,3,72,0.15,1,0,-,180,1.2703425000072457,['n'],1.1594100999936927,1.774,2176.1533439999985,,,,,522,20,Man,Right,
,,,,,,,,,,,,,,,,,522,20,Man,Right,3,43,0.4,2,180,0,0,2.305133300003945,['y'],1.1832924999907846,1.938,2181.9695520000023,,,,,522,20,Man,Right,
,,,,,,,,,,,,,,,,,522,20,Man,Right,3,65,0.15,2,0,180,180,2.478140799998073,['y'],2.239654100005282,2.0,2189.335904700005,,,,,522,20,Man,Right,
,,,,,,,,,,,,,,,,,522,20,Man,Right,3,56,0.15,1,0,-,0,0.9147334000008414,['n'],0.7437118000088958,1.58,2193.2363549000074,,,,,522,20,Man,Right,
,,,,,,,,,,,,,,,,,522,20,Man,Right,3,63,0.15,2,180,0,180,3.043963599993731,['n'],0.1993547000020044,1.738,2199.202464000009,,,,,522,20,Man,Right,
,,,,,,,,,,,,,,,,,522,20,Man,Right,3,22,0.4,1,180,-,0,0.6877749999985099,['n'],2.9601536999980453,1.694,2205.4357756000027,,,,,522,20,Man,Right,
,,,,,,,,,,,,,,,,,522,20,Man,Right,3,59,0.15,2,180,0,0,0.8255349999963073,['n'],3.152078999992227,1.324,2211.819197900004,,,,,522,20,Man,Right,
,,,,,,,,,,,,,,,,,522,20,Man,Right,3,71,0.15,2,180,0,0,0.6832700000086334,['n'],2.494664700003341,1.816,2220.4692552999986,,,,,522,20,Man,Right,
,,,,,,,,,,,,,,,,,522,20,Man,Right,3,18,0.4,1,180,-,180,0.5294327999872621,['n'],0.5357530000037514,2.0,2224.4357960999987,,,,,522,20,Man,Right,
,,,,,,,,,,,,,,,,,522,20,Man,Right,3,51,0.15,2,180,0,0,1.4574932999967132,['y'],0.343525000003865,1.6640000000000001,2229.120065899995,,,,,522,20,Man,Right,
,,,,,,,,,,,,,,,,,522,20,Man,Right,3,74,0.15,1,180,-,0,1.7297655000002123,['n'],2.5194042999937665,1.6480000000000001,2235.7691525000046,,,,,522,20,Man,Right,
,,,,,,,,,,,,,,,,,522,20,Man,Right,3,27,0.4,2,180,0,0,3.9498546999966493,['y'],0.3753411000070628,1.6480000000000001,2235.7691525000046,,,,,522,20,Man,Right,
,,,,,,,,,,,,,,,,,522,20,Man,Right,3,38,0.4,1,180,-,180,1.4113533000054304,['n'],0.41561310000543017,2.0,2249.2366999000005,,,,,522,20,Man,Right,
,,,,,,,,,,,,,,,,,522,20,Man,Right,3,47,0.15,2,180,0,0,3.0754326000023866,['y'],0.41499089999706484,1.5739999999999998,2255.436668900009,,,,,522,20,Man,Right,
,,,,,,,,,,,,,,,,,522,20,Man,Right,3,53,0.15,2,0,180,180,1.0948223000013968,['n'],1.1041918999981135,1.216,2259.803291299999,,,,,522,20,Man,Right,
,,,,,,,,,,,,,,,,,522,20,Man,Right,3,73,0.15,2,0,180,0,1.0709318000008352,['n'],0.23163219999696594,2.0,2263.386849399998,,,,,522,20,Man,Right,
,,,,,,,,,,,,,,,,,522,20,Man,Right,3,13,0.4,2,0,180,180,1.3744241999957012,['y'],0.23954360000789165,2.0,2267.453014999999,,,,,522,20,Man,Right,
,,,,,,,,,,,,,,,,,522,20,Man,Right,3,68,0.15,1,0,-,0,1.8213930999918375,['y'],0.23961730000155512,2.0,2271.7525122000006,,,,,522,20,Man,Right,
,,,,,,,,,,,,,,,,,522,20,Man,Right,3,17,0.4,2,0,180,180,1.4839869999996154,['y'],5.055263200003537,2.0,2280.670309000001,,,,,522,20,Man,Right,
,,,,,,,,,,,,,,,,,522,20,Man,Right,3,14,0.4,1,180,-,180,1.2846979000023566,['n'],0.43154069999582134,2.0,2280.670309000001,,,,,522,20,Man,Right,
,,,,,,,,,,,,,,,,,522,20,Man,Right,3,25,0.4,2,0,180,180,2.400216599999112,['y'],0.2394685000035679,2.0,2289.969820999999,,,,,522,20,Man,Right,
,,,,,,,,,,,,,,,,,522,20,Man,Right,3,57,0.15,2,0,180,180,2.1511906000087038,['y'],0.19145890000800136,2.0,2295.0195481000046,,,,,522,20,Man,Right,
,,,,,,,,,,,,,,,,,522,20,Man,Right,3,12,0.4,1,0,-,0,2.756462899997132,['n'],0.5914130000019213,2.0,2301.3032362000013,,,,,522,20,Man,Right,
,,,,,,,,,,,,,,,,,522,20,Man,Right,3,58,0.15,1,180,-,180,0.7912129999895114,['y'],0.6161897999991197,2.0,2304.935867900007,,,,,522,20,Man,Right,
,,,,,,,,,,,,,,,,,522,20,Man,Right,3,1,1,2,0,180,180,0.6569111999997403,['y'],0.5593672999966657,2.0,2304.935867900007,,,,,522,20,Man,Right,
,,,,,,,,,,,,,,,,,522,20,Man,Right,3,77,0.15,2,0,180,180,2.9096857999975327,['y'],0.19925779999175575,1.762,2315.0194190999973,,,,,522,20,Man,Right,
,,,,,,,,,,,,,,,,,522,20,Man,Right,3,0,1,1,0,-,0,0.8089910999988206,['n'],1.3596178000007058,2.0,2320.436378300008,,,,,522,20,Man,Right,
,,,,,,,,,,,,,,,,,522,20,Man,Right,3,28,0.4,1,0,-,0,3.062573400005931,['n'],1.6487461000069743,1.358,2328.187275299999,,,,,522,20,Man,Right,
,,,,,,,,,,,,,,,,,522,20,Man,Right,3,11,0.4,2,180,0,0,0.8753336999943713,['n'],2.680431899992982,1.678,2335.0692640999987,,,,,522,20,Man,Right,
,,,,,,,,,,,,,,,,,522,20,Man,Right,3,40,0.4,1,0,-,180,1.289588300001924,['n'],1.239474700007122,1.108,2341.119201100002,,,,,522,20,Man,Right,
,,,,,,,,,,,,,,,,,522,20,Man,Right,3,70,0.15,1,180,-,180,1.4941208999953233,['y'],6.344216500001494,1.704,2356.4192619000023,,,,,522,20,Man,Right,
,,,,,,,,,,,,,,,,,522,20,Man,Right,3,52,0.15,1,0,-,0,3.1929313000000548,['y'],2.4797209999960614,1.316,2369.652657599996,,,,,522,20,Man,Right,
,,,,,,,,,,,,,,,,,522,20,Man,Right,3,39,0.4,2,180,0,0,1.1549502999987453,['n'],5.8728324999974575,2.0,2389.936100900006,,,,,522,20,Man,Right,
,,,,,,,,,,,,,,,,,522,20,Man,Right,3,62,0.15,1,180,-,180,0.40309190000698436,['n'],1.9199816000036662,2.0,2396.3692794000017,,,,,522,20,Man,Right,
,,,,,,,,,,,,,,,,,522,20,Man,Right,3,42,0.4,1,180,-,180,0.2980269999970915,['n'],1.1599467000050936,2.0,2401.019409499997,,,,,522,20,Man,Right,
,,,,,,,,,,,,,,,,,522,20,Man,Right,3,32,0.4,1,0,-,0,1.6349441000056686,['n'],1.774682400005986,1.796,2407.9192654,,,,,522,20,Man,Right,
,,,,,,,,,,,,,,,,,522,20,Man,Right,3,30,0.4,1,180,-,180,3.855827799998224,['n'],0.23952379998809192,2.0,2414.8702068000057,,,,,522,20,Man,Right,
,,,,,,,,,,,,,,,,,522,20,Man,Right,3,4,1,1,0,-,0,1.032956600000034,['n'],0.519178299990017,2.0,2419.1700195000085,,,,,522,20,Man,Right,
,,,,,,,,,,,,,,,,,522,20,Man,Right,3,64,0.15,1,0,-,0,0.44443060000776313,['n'],1.5995403999986593,1.874,2423.6365502000044,,,,,522,20,Man,Right,
,,,,,,,,,,,,,,,,,522,20,Man,Right,3,26,0.4,1,180,-,180,0.3007497000071453,['n'],0.6953749999956926,1.6680000000000001,2427.003733800004,,,,,522,20,Man,Right,
,,,,,,,,,,,,,,,,,522,20,Man,Right,3,9,0.4,2,0,180,180,2.2335189000004902,['y'],0.17151390000071842,1.798,2432.153560400002,,,,,522,20,Man,Right,
,,,,,,,,,,,,,,,,,522,20,Man,Right,3,23,0.4,2,180,0,0,4.007784899993567,['y'],0.959552900007111,2.0,2439.236427600008,,,,,522,20,Man,Right,
,,,,,,,,,,,,,,,,,522,20,Man,Right,3,8,0.4,1,0,-,0,0.572449700004654,['n'],0.8717347000056179,2.0,2444.054123300004,,,,,522,20,Man,Right,
,,,,,,,,,,,,,,,,,522,20,Man,Right,3,6,1,1,180,-,180,2.1162082999944687,['n'],2.183915999994497,2.0,2451.1860559999986,,,,,522,20,Man,Right,
,,,,,,,,,,,,,,,,,522,20,Man,Right,3,46,0.15,1,180,-,0,4.265520800006925,['y'],1.1196751999959815,1.634,2459.1695951000074,,,,,522,20,Man,Right,
,,,,,,,,,,,,,,,,,522,20,Man,Right,3,61,0.15,2,0,180,180,2.812042300007306,['n'],1.4076828999968711,2.0,2465.8702287999986,,,,,522,20,Man,Right,
,,,,,,,,,,,,,,,,,522,20,Man,Right,3,2,1,1,180,-,180,2.751590200001374,['n'],0.6637320000008913,2.0,2471.9369147000034,,,,,522,20,Man,Right,
,,,,,,,,,,,,,,,,,522,20,Man,Right,3,35,0.4,2,180,0,0,0.6315391999960411,['y'],0.8482508000015514,2.0,2475.636965100006,,,,,522,20,Man,Right,
,,,,,,,,,,,,,,,,,522,20,Man,Right,3,3,1,2,180,0,0,0.9075333999935538,['y'],0.7596445000090171,2.0,2479.402809600004,,,,,522,20,Man,Right,
,,,,,,,,,,,,,,,,,522,20,Man,Right,3,10,0.4,1,180,-,180,2.211774100011098,['y'],0.2392968999920413,1.946,2484.1868295999957,,,,,522,20,Man,Right,
,,,,,,,,,,,,,,,,,522,20,Man,Right,3,69,0.15,2,0,180,180,0.46534759999485686,['n'],0.6792378999962239,1.322,2489.0027004000076,,,,,522,20,Man,Right,
,,,,,,,,,,,,,,,,,522,20,Man,Right,3,79,0.15,2,180,0,0,3.556872700006352,['y'],2.087971300003119,1.576,2496.8526972000036,,,,,522,20,Man,Right,
,,,,,,,,,,,,,,,,,522,20,Man,Right,3,55,0.15,2,180,0,0,1.4296300999994855,['n'],0.35201950000191573,1.304,2501.1696234000046,,,,,522,20,Man,Right,
,,,,,,,,,,,,,,,,,522,20,Man,Right,3,7,1,2,180,0,0,0.7666943999938667,['y'],3.0162247999978717,2.0,2507.5196163,,,,,522,20,Man,Right,
,,,,,,,,,,,,,,,,,522,20,Man,Right,3,75,0.15,2,180,0,0,1.5329423000075622,['n'],1.1601281000039307,1.0,2513.869395900001,,,,,522,20,Man,Right,
,,,,,,,,,,,,,,,,,522,20,Man,Right,3,44,0.15,1,0,-,180,1.2336740999890026,['n'],0.22756430000299588,1.188,2518.3869812999983,,,,,522,20,Man,Right,
,,,,,,,,,,,,,,,,,522,20,Man,Right,3,41,0.4,2,0,180,180,0.6311248999991221,['n'],0.7843670000002021,2.0,2522.2195124000064,,,,,522,20,Man,Right,
,,,,,,,,,,,,,,,,,522,20,Man,Right,3,45,0.15,2,0,180,180,1.7435830000031274,['n'],0.5671801999997115,2.0,2526.6696217000062,,,,,522,20,Man,Right,
,,,,,,,,,,,,,,,,,522,20,Man,Right,3,20,0.4,1,0,-,0,0.9027777000010246,['n'],1.320192200000747,2.0,2530.9861159000066,,,,,522,20,Man,Right,
,,,,,,,,,,,,,,,,,522,20,Man,Right,3,48,0.15,1,0,-,0,3.5243558999936795,['y'],6.920183599999291,1.304,2545.9862037000057,,,,,522,20,Man,Right,
,,,,,,,,,,,,,,,,,522,20,Man,Right,3,60,0.15,1,0,-,180,2.2033667999930913,['y'],0.43107619999500457,1.6320000000000001,2551.686786500002,,,,,522,20,Man,Right,
,,,,,,,,,,,,,,,,,522,20,Man,Right,3,29,0.4,2,0,180,180,1.0592885999940336,['y'],0.21527010000136215,2.0,2555.520562700003,,,,,522,20,Man,Right,
,,,,,,,,,,,,,,,,,522,20,Man,Right,3,78,0.15,1,180,-,0,1.8808589999971446,['n'],2.375779900001362,1.0,2562.0706011000075,,,,,522,20,Man,Right,
,,,,,,,,,,,,,,,,,522,20,Man,Right,3,5,1,2,0,180,180,1.6284820000000764,['y'],1.1510677999904146,2.0,2567.369497800006,,,,,522,20,Man,Right,
,,,,,,,,,,,,,,,,,522,20,Man,Right,3,16,0.4,1,0,-,0,0.3920752999983961,['n'],0.7673266000056174,2.0,2567.369497800006,,,,,522,20,Man,Right,
,,,,,,,,,,,,,,,,,522,20,Man,Right,3,31,0.4,2,180,0,0,2.2332128999987617,['y'],1.4077256000018679,2.0,2577.0532157000052,,,,,522,20,Man,Right,
,,,,,,,,,,,,,,,,,522,20,Man,Right,3,33,0.4,2,0,180,180,0.5729489999939688,['y'],1.215751600000658,2.0,2582.1695399999953,,,,,522,20,Man,Right,
,,,,,,,,,,,,,,,,,522,20,Man,Right,3,49,0.15,2,0,180,180,0.980033400002867,['y'],0.7833931000059238,2.0,2582.1695399999953,,,,,522,20,Man,Right,
,,,,,,,,,,,,,,,,,522,20,Man,Right,4,4,1,1,0,-,0,0.7274891999986721,['n'],2.6160945000010543,2.0,2623.1031023000032,82.5,75.0,65.0,,522,20,Man,Right,
,,,,,,,,,,,,,,,,,522,20,Man,Right,4,19,0.4,2,180,0,180,2.603488599997945,['y'],0.24731819999578875,1.998,2628.4696601999967,,,,,522,20,Man,Right,
,,,,,,,,,,,,,,,,,522,20,Man,Right,4,9,0.4,2,0,180,180,3.3135448999964865,['y'],0.17604750000464264,2.0,2634.2870927999975,,,,,522,20,Man,Right,
,,,,,,,,,,,,,,,,,522,20,Man,Right,4,10,0.4,1,180,-,180,1.038257899999735,['n'],0.8476184000028297,2.0,2634.2870927999975,,,,,522,20,Man,Right,
,,,,,,,,,,,,,,,,,522,20,Man,Right,4,60,0.15,1,0,-,180,1.5621427000005497,['n'],0.8550180999882286,1.5,2642.6869709999955,,,,,522,20,Man,Right,
,,,,,,,,,,,,,,,,,522,20,Man,Right,4,32,0.4,1,0,-,180,1.6744903000071645,['y'],0.18313790000684094,2.0,2647.9695825000017,,,,,522,20,Man,Right,
,,,,,,,,,,,,,,,,,522,20,Man,Right,4,17,0.4,2,0,180,180,2.9735026999987895,['y'],0.24707389999821316,1.764,2653.8869435000015,,,,,522,20,Man,Right,
,,,,,,,,,,,,,,,,,522,20,Man,Right,4,45,0.15,2,0,180,0,0.2921375000005355,['n'],0.695564599998761,1.758,2657.0868536999988,,,,,522,20,Man,Right,
,,,,,,,,,,,,,,,,,522,20,Man,Right,4,2,1,1,180,-,180,0.7123813000071095,['y'],1.1200276000017766,1.758,2657.0868536999988,,,,,522,20,Man,Right,
,,,,,,,,,,,,,,,,,522,20,Man,Right,4,77,0.15,2,0,180,180,1.377898600010667,['y'],0.6635270999977365,1.984,2665.687146700009,,,,,522,20,Man,Right,
,,,,,,,,,,,,,,,,,522,20,Man,Right,4,16,0.4,1,0,-,0,0.9834067000047071,['n'],0.20154599999659695,1.74,2669.2036725,,,,,522,20,Man,Right,
,,,,,,,,,,,,,,,,,522,20,Man,Right,4,42,0.4,1,180,-,180,1.0222103999985848,['y'],0.39956879999954253,1.244,2673.5029599000045,,,,,522,20,Man,Right,
,,,,,,,,,,,,,,,,,522,20,Man,Right,4,54,0.15,1,180,-,180,0.47036669999943115,['y'],1.2877911999967182,1.7,2679.3536954000083,,,,,522,20,Man,Right,
,,,,,,,,,,,,,,,,,522,20,Man,Right,4,5,1,2,0,180,180,2.2788502000039443,['y'],0.26273590000346303,1.7,2679.3536954000083,,,,,522,20,Man,Right,
,,,,,,,,,,,,,,,,,522,20,Man,Right,4,7,1,2,180,0,0,1.4699241999915102,['y'],0.4152895000006538,2.0,2688.2204633,,,,,522,20,Man,Right,
,,,,,,,,,,,,,,,,,522,20,Man,Right,4,50,0.15,1,180,-,180,0.36496059999626596,['y'],2.527674199998728,2.0,2693.452813200005,,,,,522,20,Man,Right,
,,,,,,,,,,,,,,,,,522,20,Man,Right,4,63,0.15,2,180,0,180,0.479271999996854,['y'],1.9279578999994555,1.986,2698.203675200006,,,,,522,20,Man,Right,
,,,,,,,,,,,,,,,,,522,20,Man,Right,4,72,0.15,1,0,-,0,1.0265474000043469,['n'],1.0315791000030003,1.29,2704.7030232000034,,,,,522,20,Man,Right,
,,,,,,,,,,,,,,,,,522,20,Man,Right,4,79,0.15,2,180,0,0,1.1834445000131382,['n'],0.32735399999364745,1.412,2708.4874554000053,,,,,522,20,Man,Right,
,,,,,,,,,,,,,,,,,522,20,Man,Right,4,40,0.4,1,0,-,0,0.9237261000089347,['n'],0.6881557000015164,2.0,2712.5697306,,,,,522,20,Man,Right,
,,,,,,,,,,,,,,,,,522,20,Man,Right,4,30,0.4,1,180,-,0,2.7066137000074377,['n'],0.25521519999892917,1.0,2718.2538161000048,,,,,522,20,Man,Right,
,,,,,,,,,,,,,,,,,522,20,Man,Right,4,73,0.15,2,0,180,0,0.7096108999976423,['n'],0.37597829999867827,1.752,2723.5369360999975,,,,,522,20,Man,Right,
,,,,,,,,,,,,,,,,,522,20,Man,Right,4,74,0.15,1,180,-,0,0.5713870999898063,['n'],0.6398432999994839,1.754,2729.2378714000006,,,,,522,20,Man,Right,
,,,,,,,,,,,,,,,,,522,20,Man,Right,4,35,0.4,2,180,0,0,1.001952299993718,['y'],1.56797610000649,1.314,2734.7037712999954,,,,,522,20,Man,Right,
,,,,,,,,,,,,,,,,,522,20,Man,Right,4,6,1,1,180,-,180,0.6789216000033775,['n'],0.29599949999828823,2.0,2738.0704236000092,,,,,522,20,Man,Right,
,,,,,,,,,,,,,,,,,522,20,Man,Right,4,33,0.4,2,0,180,0,3.1451227000070503,['n'],3.071786100001191,2.0,2746.6697854000013,,,,,522,20,Man,Right,
,,,,,,,,,,,,,,,,,522,20,Man,Right,4,44,0.15,1,0,-,0,0.49502219998976216,['n'],3.5758770999964327,1.306,2753.4703223000033,,,,,522,20,Man,Right,
,,,,,,,,,,,,,,,,,522,20,Man,Right,4,18,0.4,1,180,-,180,0.5482188000023598,['n'],0.2073207000066759,2.0,2756.502994100003,,,,,522,20,Man,Right,
,,,,,,,,,,,,,,,,,522,20,Man,Right,4,23,0.4,2,180,0,180,0.8158946999901673,['n'],0.7269713999994565,1.726,2760.902845299999,,,,,522,20,Man,Right,
,,,,,,,,,,,,,,,,,522,20,Man,Right,4,3,1,2,180,0,0,1.4515356000047177,['y'],0.22289910000108648,2.0,2765.1363233000084,,,,,522,20,Man,Right,
,,,,,,,,,,,,,,,,,522,20,Man,Right,4,62,0.15,1,180,-,180,1.229289399998379,['n'],0.4874137000006158,1.0939999999999999,2769.236567599997,,,,,522,20,Man,Right,
,,,,,,,,,,,,,,,,,522,20,Man,Right,4,75,0.15,2,180,0,180,0.7022369999904186,['n'],0.7912742000044091,1.12,2773.2536466999954,,,,,522,20,Man,Right,
,,,,,,,,,,,,,,,,,522,20,Man,Right,4,47,0.15,2,180,0,0,2.486491199990269,['y'],0.3671387000067625,1.1219999999999999,2778.686340799999,,,,,522,20,Man,Right,
,,,,,,,,,,,,,,,,,522,20,Man,Right,4,1,1,2,0,180,180,0.8965238999953726,['y'],5.161010800002259,2.0,2789.820818100001,,,,,522,20,Man,Right,
,,,,,,,,,,,,,,,,,522,20,Man,Right,4,22,0.4,1,180,-,180,1.6986295999959111,['y'],1.8637974000012036,1.702,2796.7871540999986,,,,,522,20,Man,Right,
,,,,,,,,,,,,,,,,,522,20,Man,Right,4,76,0.15,1,0,-,0,0.4858389999862993,['n'],0.5114727999898605,1.3719999999999999,2801.087113900001,,,,,522,20,Man,Right,
,,,,,,,,,,,,,,,,,522,20,Man,Right,4,15,0.4,2,180,0,0,0.5611936000059359,['y'],0.9276706999953603,2.0,2805.0038232000006,,,,,522,20,Man,Right,
,,,,,,,,,,,,,,,,,522,20,Man,Right,4,61,0.15,2,0,180,0,1.4683488000009675,['y'],1.0000166999961948,1.69,2809.536948800007,,,,,522,20,Man,Right,
,,,,,,,,,,,,,,,,,522,20,Man,Right,4,70,0.15,1,180,-,0,3.3719134999992093,['n'],0.7196563000034075,1.23,2816.4371140000076,,,,,522,20,Man,Right,
,,,,,,,,,,,,,,,,,522,20,Man,Right,4,66,0.15,1,180,-,180,1.6546692999982042,['y'],0.20735130000684876,1.23,2816.4371140000076,,,,,522,20,Man,Right,
,,,,,,,,,,,,,,,,,522,20,Man,Right,4,68,0.15,1,0,-,180,4.235950200003572,['y'],0.46341289998963475,1.1520000000000001,2827.5031691999975,,,,,522,20,Man,Right,
,,,,,,,,,,,,,,,,,522,20,Man,Right,4,46,0.15,1,180,-,180,0.47684069999377243,['n'],0.3428525999916019,2.0,2831.2866482000027,,,,,522,20,Man,Right,
,,,,,,,,,,,,,,,,,522,20,Man,Right,4,59,0.15,2,180,0,180,1.3650855000014417,['n'],0.6153620999975828,1.158,2835.419956699996,,,,,522,20,Man,Right,
,,,,,,,,,,,,,,,,,522,20,Man,Right,4,57,0.15,2,0,180,0,1.815888500001165,['n'],0.1435368000093149,1.198,2839.6366509,,,,,522,20,Man,Right,
,,,,,,,,,,,,,,,,,522,20,Man,Right,4,65,0.15,2,0,180,0,0.6904910000012023,['n'],0.3677568999992218,1.0,2843.736439799999,,,,,522,20,Man,Right,
,,,,,,,,,,,,,,,,,522,20,Man,Right,4,58,0.15,1,180,-,180,0.6002659000077983,['y'],0.303702199991676,1.0,2847.4700190000076,,,,,522,20,Man,Right,
,,,,,,,,,,,,,,,,,522,20,Man,Right,4,48,0.15,1,0,-,0,1.5386823000008008,['n'],0.951423699996667,1.018,2852.7696904999975,,,,,522,20,Man,Right,
,,,,,,,,,,,,,,,,,522,20,Man,Right,4,37,0.4,2,0,180,180,0.7916010999906575,['y'],1.4955488999985391,2.0,2857.3531226999985,,,,,522,20,Man,Right,
,,,,,,,,,,,,,,,,,522,20,Man,Right,4,24,0.4,1,0,-,0,0.8480371000041487,['n'],0.7755597000068519,2.0,2861.587166999998,,,,,522,20,Man,Right,
,,,,,,,,,,,,,,,,,522,20,Man,Right,4,67,0.15,2,180,0,0,1.2724570999998832,['y'],0.75209619999805,1.642,2866.2536907999965,,,,,522,20,Man,Right,
,,,,,,,,,,,,,,,,,522,20,Man,Right,4,43,0.4,2,180,0,0,1.1444977999926778,['y'],0.5119482000009157,1.754,2871.253178799998,,,,,522,20,Man,Right,
,,,,,,,,,,,,,,,,,522,20,Man,Right,4,20,0.4,1,0,-,0,1.7752129000000423,['n'],0.6557692999922438,1.25,2876.1697267000054,,,,,522,20,Man,Right,
,,,,,,,,,,,,,,,,,522,20,Man,Right,4,34,0.4,1,180,-,180,0.500149200001033,['n'],0.4681836000090698,1.266,2879.569829799999,,,,,522,20,Man,Right,
,,,,,,,,,,,,,,,,,522,20,Man,Right,4,28,0.4,1,0,-,0,0.28304389999539126,['n'],0.2955365000088932,1.266,2882.3197931999966,,,,,522,20,Man,Right,
,,,,,,,,,,,,,,,,,522,20,Man,Right,4,14,0.4,1,180,-,180,1.230313699998078,['n'],0.7594357000052696,1.938,2887.8037157,,,,,522,20,Man,Right,
,,,,,,,,,,,,,,,,,522,20,Man,Right,4,0,1,1,0,-,0,0.42889670000295155,['n'],1.175996000005398,2.0,2891.886462000002,,,,,522,20,Man,Right,
,,,,,,,,,,,,,,,,,522,20,Man,Right,4,29,0.4,2,0,180,0,2.1258152999944286,['y'],1.9436134999996284,1.8519999999999999,2899.037411599995,,,,,522,20,Man,Right,
,,,,,,,,,,,,,,,,,522,20,Man,Right,4,55,0.15,2,180,0,0,0.8311832999897888,['n'],0.7115980999951717,1.194,2902.869822200002,,,,,522,20,Man,Right,
,,,,,,,,,,,,,,,,,522,20,Man,Right,4,12,0.4,1,0,-,0,0.3571113000070909,['n'],0.7035930999991251,2.0,2906.020882200006,,,,,522,20,Man,Right,
,,,,,,,,,,,,,,,,,522,20,Man,Right,4,25,0.4,2,0,180,180,0.9597060999949463,['y'],0.7362276999920141,2.0,2909.8541130000012,,,,,522,20,Man,Right,
,,,,,,,,,,,,,,,,,522,20,Man,Right,4,31,0.4,2,180,0,180,4.480635899992194,['y'],0.359483199994429,2.0,2916.937663500001,,,,,522,20,Man,Right,
,,,,,,,,,,,,,,,,,522,20,Man,Right,4,51,0.15,2,180,0,180,0.47933969998848625,['n'],0.8399213000084274,1.26,2920.8198885999955,,,,,522,20,Man,Right,
,,,,,,,,,,,,,,,,,522,20,Man,Right,4,39,0.4,2,180,0,0,1.7049546000052942,['y'],0.6240614999987883,1.5819999999999999,2925.653675500005,,,,,522,20,Man,Right,
,,,,,,,,,,,,,,,,,522,20,Man,Right,4,21,0.4,2,0,180,180,2.482353899991722,['y'],0.19187540000712033,1.286,2931.069936299995,,,,,522,20,Man,Right,
,,,,,,,,,,,,,,,,,522,20,Man,Right,4,49,0.15,2,0,180,180,0.3403544000029797,['n'],1.9920069000072544,1.28,2935.636740000009,,,,,522,20,Man,Right,
,,,,,,,,,,,,,,,,,522,20,Man,Right,4,11,0.4,2,180,0,0,0.5236842000012984,['y'],2.4716875000012806,1.732,2940.736585300001,,,,,522,20,Man,Right,
,,,,,,,,,,,,,,,,,522,20,Man,Right,4,56,0.15,1,0,-,180,0.9134236999962013,['y'],0.4557041000080062,1.0,2944.270599800009,,,,,522,20,Man,Right,
,,,,,,,,,,,,,,,,,522,20,Man,Right,4,53,0.15,2,0,180,180,2.1109494999982417,['y'],0.13489960000151768,2.0,2948.8047515,,,,,522,20,Man,Right,
,,,,,,,,,,,,,,,,,522,20,Man,Right,4,36,0.4,1,0,-,180,0.8690937999926973,['y'],1.543871300003957,1.0,2953.7378162000023,,,,,522,20,Man,Right,
,,,,,,,,,,,,,,,,,522,20,Man,Right,4,69,0.15,2,0,180,180,0.4275506999983918,['y'],0.27971299999626353,1.0,2956.8205406999987,,,,,522,20,Man,Right,
,,,,,,,,,,,,,,,,,522,20,Man,Right,4,71,0.15,2,180,0,180,0.8002978000004077,['y'],0.41530690000217874,1.0,2960.336506700005,,,,,522,20,Man,Right,
,,,,,,,,,,,,,,,,,522,20,Man,Right,4,52,0.15,1,0,-,180,3.5848973999964073,['y'],1.1434947000088869,1.3359999999999999,2967.9206952000022,,,,,522,20,Man,Right,
,,,,,,,,,,,,,,,,,522,20,Man,Right,4,64,0.15,1,0,-,0,2.0484352999919793,['y'],3.3277899000095204,1.256,2976.070631500006,,,,,522,20,Man,Right,
,,,,,,,,,,,,,,,,,522,20,Man,Right,4,41,0.4,2,0,180,180,1.1515535000071395,['y'],1.1354906000051415,1.7,2980.737499600007,,,,,522,20,Man,Right,
,,,,,,,,,,,,,,,,,522,20,Man,Right,4,13,0.4,2,0,180,180,1.043199599997024,['y'],0.16726440000638831,1.7,2980.737499600007,,,,,522,20,Man,Right,
,,,,,,,,,,,,,,,,,522,20,Man,Right,4,8,0.4,1,0,-,180,1.1116763000027277,['y'],0.9997709000017494,2.0,2988.5042253000065,,,,,522,20,Man,Right,
,,,,,,,,,,,,,,,,,522,20,Man,Right,4,26,0.4,1,180,-,180,0.3613203999993857,['n'],0.5838244999904418,1.716,2992.8866609000033,,,,,522,20,Man,Right,
,,,,,,,,,,,,,,,,,522,20,Man,Right,4,27,0.4,2,180,0,0,2.884201500011841,['n'],1.2879665000073146,2.0,2999.3539375000037,,,,,522,20,Man,Right,
,,,,,,,,,,,,,,,,,522,20,Man,Right,4,78,0.15,1,180,-,180,0.48241759999655187,['y'],0.2953983000043081,1.18,3003.5366525000063,,,,,522,20,Man,Right,
,,,,,,,,,,,,,,,,,522,20,Man,Right,4,38,0.4,1,180,-,180,0.8993931000004523,['n'],2.071752200004994,1.782,3009.053785700009,,,,,522,20,Man,Right,
,,,,,,,,,,,,,,,,,522,20,Man,Right,5,67,0.15,2,180,0,180,1.513567600006354,['n'],3.8477656000031857,1.682,3051.320766099998,68.75,62.5,67.5,,522,20,Man,Right,
,,,,,,,,,,,,,,,,,522,20,Man,Right,5,71,0.15,2,180,0,0,2.079997699998785,['y'],0.1514792999951169,2.0,3056.1033045000004,,,,,522,20,Man,Right,
,,,,,,,,,,,,,,,,,522,20,Man,Right,5,32,0.4,1,0,-,0,0.3216824999981327,['n'],2.399765699999989,1.776,3061.737688500005,,,,,522,20,Man,Right,
,,,,,,,,,,,,,,,,,522,20,Man,Right,5,52,0.15,1,0,-,0,3.520961599992006,['n'],0.855860700001358,1.6680000000000001,3068.3207220999975,,,,,522,20,Man,Right,
,,,,,,,,,,,,,,,,,522,20,Man,Right,5,15,0.4,2,180,0,0,1.2816450999962399,['n'],4.695830800003023,1.6680000000000001,3068.3207220999975,,,,,522,20,Man,Right,
,,,,,,,,,,,,,,,,,522,20,Man,Right,5,58,0.15,1,180,-,0,1.7229743000061717,['y'],0.6795611999987159,1.138,3085.7033844000034,,,,,522,20,Man,Right,
,,,,,,,,,,,,,,,,,522,20,Man,Right,5,5,1,2,0,180,180,1.503848599997582,['y'],0.9834023000003072,1.138,3085.7033844000034,,,,,522,20,Man,Right,
,,,,,,,,,,,,,,,,,522,20,Man,Right,5,46,0.15,1,180,-,180,0.40874079999048263,['n'],6.7686837000073865,1.5,3100.0977386000086,,,,,522,20,Man,Right,
,,,,,,,,,,,,,,,,,522,20,Man,Right,5,62,0.15,1,180,-,180,0.43090619999566115,['y'],1.095880599998054,1.5,3103.9305034000063,,,,,522,20,Man,Right,
,,,,,,,,,,,,,,,,,522,20,Man,Right,5,41,0.4,2,0,180,180,1.4333003000065219,['y'],0.27971899999829475,2.0,3108.4201860999965,,,,,522,20,Man,Right,
,,,,,,,,,,,,,,,,,522,20,Man,Right,5,18,0.4,1,180,-,0,0.9735763000062434,['n'],0.6237653999996837,1.044,3112.804503200001,,,,,522,20,Man,Right,
,,,,,,,,,,,,,,,,,522,20,Man,Right,5,40,0.4,1,0,-,0,0.7167558000073768,['n'],0.2392833000048995,1.82,3117.486782900007,,,,,522,20,Man,Right,
,,,,,,,,,,,,,,,,,522,20,Man,Right,5,29,0.4,2,0,180,180,0.7194168999994872,['y'],2.647683999995934,1.066,3125.736769999996,,,,,522,20,Man,Right,
,,,,,,,,,,,,,,,,,522,20,Man,Right,5,8,0.4,1,0,-,0,0.3462829000054626,['n'],2.480120000007446,1.97,3130.8537930999955,,,,,522,20,Man,Right,
,,,,,,,,,,,,,,,,,522,20,Man,Right,5,48,0.15,1,0,-,0,0.3145513000054052,['n'],1.071589799990761,2.0,3134.454170200006,,,,,522,20,Man,Right,
,,,,,,,,,,,,,,,,,522,20,Man,Right,5,65,0.15,2,0,180,180,1.668343299999833,['y'],0.2474147000029916,2.0,3138.571181600004,,,,,522,20,Man,Right,
,,,,,,,,,,,,,,,,,522,20,Man,Right,5,1,1,2,0,180,180,2.22428179999406,['y'],0.19961489998968318,2.0,3143.1866663000037,,,,,522,20,Man,Right,
,,,,,,,,,,,,,,,,,522,20,Man,Right,5,79,0.15,2,180,0,0,0.8169727000058629,['y'],2.384037600000738,1.63,3149.121105200007,,,,,522,20,Man,Right,
,,,,,,,,,,,,,,,,,522,20,Man,Right,5,36,0.4,1,0,-,180,1.684273699996993,['y'],1.0877474000008078,1.63,3149.121105200007,,,,,522,20,Man,Right,
,,,,,,,,,,,,,,,,,522,20,Man,Right,5,16,0.4,1,0,-,0,0.9451970999944024,['n'],1.4633563999959733,1.3439999999999999,3158.6207947000003,,,,,522,20,Man,Right,
,,,,,,,,,,,,,,,,,522,20,Man,Right,5,30,0.4,1,180,-,180,0.6600503000081517,['n'],0.30372369999531657,1.8439999999999999,3162.353760699996,,,,,522,20,Man,Right,
,,,,,,,,,,,,,,,,,522,20,Man,Right,5,51,0.15,2,180,0,0,0.7626272000052268,['y'],0.44769739999901503,1.5859999999999999,3166.2706849000024,,,,,522,20,Man,Right,
,,,,,,,,,,,,,,,,,522,20,Man,Right,5,14,0.4,1,180,-,180,0.6064048999978695,['n'],0.7117049999942537,2.0,3169.8535895000023,,,,,522,20,Man,Right,
,,,,,,,,,,,,,,,,,522,20,Man,Right,5,22,0.4,1,180,-,180,3.092219899990596,['y'],0.255567100000917,1.816,3175.420268599999,,,,,522,20,Man,Right,
,,,,,,,,,,,,,,,,,522,20,Man,Right,5,35,0.4,2,180,0,0,0.7731155999936163,['n'],1.4717596999980742,1.7,3180.986787900001,,,,,522,20,Man,Right,
,,,,,,,,,,,,,,,,,522,20,Man,Right,5,11,0.4,2,180,0,0,0.7058643000054872,['y'],1.255708600001526,1.838,3185.4535539999997,,,,,522,20,Man,Right,
,,,,,,,,,,,,,,,,,522,20,Man,Right,5,3,1,2,180,0,0,0.9948580999916885,['y'],2.1438694999960717,2.0,3190.9700679000016,,,,,522,20,Man,Right,
,,,,,,,,,,,,,,,,,522,20,Man,Right,5,39,0.4,2,180,0,0,0.8627391000045463,['y'],1.0643878000119003,2.0,3195.2379494999986,,,,,522,20,Man,Right,
,,,,,,,,,,,,,,,,,522,20,Man,Right,5,25,0.4,2,0,180,180,1.8629748999956064,['y'],0.6555565000016941,1.972,3200.403600700003,,,,,522,20,Man,Right,
,,,,,,,,,,,,,,,,,522,20,Man,Right,5,4,1,1,0,-,0,0.6799368000065442,['n'],0.6881289000011748,2.0,3204.7700637000016,,,,,522,20,Man,Right,
,,,,,,,,,,,,,,,,,522,20,Man,Right,5,73,0.15,2,0,180,0,1.5042199000017717,['n'],0.5042146999912802,1.0,3209.8709252000044,,,,,522,20,Man,Right,
,,,,,,,,,,,,,,,,,522,20,Man,Right,5,31,0.4,2,180,0,0,0.9240872000082163,['y'],0.6718075999961002,2.0,3214.486850299996,,,,,522,20,Man,Right,
,,,,,,,,,,,,,,,,,522,20,Man,Right,5,27,0.4,2,180,0,0,1.4209586999932071,['y'],1.0716994999966118,1.996,3219.3035095000014,,,,,522,20,Man,Right,
,,,,,,,,,,,,,,,,,522,20,Man,Right,5,68,0.15,1,0,-,180,1.1674045999970986,['n'],1.2476980999927036,1.014,3225.1200976000036,,,,,522,20,Man,Right,
,,,,,,,,,,,,,,,,,522,20,Man,Right,5,21,0.4,2,0,180,180,0.6933265999978175,['y'],0.5838087000011001,1.014,3225.1200976000036,,,,,522,20,Man,Right,
,,,,,,,,,,,,,,,,,522,20,Man,Right,5,54,0.15,1,180,-,0,1.8912465000030352,['y'],0.6239945999986958,1.858,3233.720890999997,,,,,522,20,Man,Right,
,,,,,,,,,,,,,,,,,522,20,Man,Right,5,28,0.4,1,0,-,180,3.2726362999965204,['y'],0.21520340000279248,1.718,3239.4369555000085,,,,,522,20,Man,Right,
,,,,,,,,,,,,,,,,,522,20,Man,Right,5,26,0.4,1,180,-,180,1.0041201999993064,['n'],0.32774950000748504,1.554,3243.753473800003,,,,,522,20,Man,Right,
,,,,,,,,,,,,,,,,,522,20,Man,Right,5,43,0.4,2,180,0,0,5.380323000004864,['y'],1.840021500000148,1.33,3253.920133600004,,,,,522,20,Man,Right,
,,,,,,,,,,,,,,,,,522,20,Man,Right,5,9,0.4,2,0,180,180,0.7136610000015935,['y'],0.6160592999949586,1.704,3257.5035456999976,,,,,522,20,Man,Right,
,,,,,,,,,,,,,,,,,522,20,Man,Right,5,24,0.4,1,0,-,180,1.4041073999978835,['y'],0.5036158000002615,1.69,3261.5034977999967,,,,,522,20,Man,Right,
,,,,,,,,,,,,,,,,,522,20,Man,Right,5,56,0.15,1,0,-,0,1.8506933000026038,['y'],0.2475659000047017,1.314,3266.3701777000024,,,,,522,20,Man,Right,
,,,,,,,,,,,,,,,,,522,20,Man,Right,5,42,0.4,1,180,-,180,0.8997992999939015,['y'],0.3109466000023531,1.314,3266.3701777000024,,,,,522,20,Man,Right,
,,,,,,,,,,,,,,,,,522,20,Man,Right,5,76,0.15,1,0,-,0,1.0770345000055386,['n'],0.367654700006824,1.0,3274.1371029000074,,,,,522,20,Man,Right,
,,,,,,,,,,,,,,,,,522,20,Man,Right,5,45,0.15,2,0,180,180,1.4345058000035351,['y'],1.303785299998708,2.0,3279.437181100009,,,,,522,20,Man,Right,
,,,,,,,,,,,,,,,,,522,20,Man,Right,5,47,0.15,2,180,0,0,2.0498286000074586,['n'],0.7356520000030287,2.0,3284.2880193999954,,,,,522,20,Man,Right,
,,,,,,,,,,,,,,,,,522,20,Man,Right,5,10,0.4,1,180,-,180,0.8739272999955574,['n'],0.29581779999716673,2.0,3287.886779100001,,,,,522,20,Man,Right,
,,,,,,,,,,,,,,,,,522,20,Man,Right,5,34,0.4,1,180,-,180,0.5455881999951089,['n'],0.23166360000323039,2.0,3291.087582,,,,,522,20,Man,Right,
,,,,,,,,,,,,,,,,,522,20,Man,Right,5,60,0.15,1,0,-,0,1.5995151000097394,['n'],0.40749199999845587,1.698,3295.4880029999986,,,,,522,20,Man,Right,
,,,,,,,,,,,,,,,,,522,20,Man,Right,5,20,0.4,1,0,-,0,0.48930339999787975,['n'],0.3361727999872528,2.0,3298.787125199997,,,,,522,20,Man,Right,
,,,,,,,,,,,,,,,,,522,20,Man,Right,5,64,0.15,1,0,-,0,2.0517281999927945,['n'],0.5756685999949696,1.0,3303.737553399995,,,,,522,20,Man,Right,
,,,,,,,,,,,,,,,,,522,20,Man,Right,5,75,0.15,2,180,0,0,2.6144197000103304,['y'],0.791532700008247,1.154,3309.570299799998,,,,,522,20,Man,Right,
,,,,,,,,,,,,,,,,,522,20,Man,Right,5,2,1,1,180,-,0,7.297000000005937,['n'],2.0561103000072762,1.224,3322.604109800006,,,,,522,20,Man,Right,
,,,,,,,,,,,,,,,,,522,20,Man,Right,5,7,1,2,180,0,0,0.869938000003458,['y'],1.3034560999949463,2.0,3327.803609100003,,,,,522,20,Man,Right,
,,,,,,,,,,,,,,,,,522,20,Man,Right,5,66,0.15,1,180,-,180,0.3841552999947453,['n'],0.24741609999909997,2.0,3330.653625400002,,,,,522,20,Man,Right,
,,,,,,,,,,,,,,,,,522,20,Man,Right,5,13,0.4,2,0,180,180,0.6413108999986434,['y'],2.7433577999909176,1.836,3336.4878180000014,,,,,522,20,Man,Right,
,,,,,,,,,,,,,,,,,522,20,Man,Right,5,69,0.15,2,0,180,0,0.33439800000633113,['n'],0.45596110000042245,1.836,3336.4878180000014,,,,,522,20,Man,Right,
,,,,,,,,,,,,,,,,,522,20,Man,Right,5,74,0.15,1,180,-,180,0.8016606999881333,['n'],2.25616849999642,1.262,3345.4380456,,,,,522,20,Man,Right,
,,,,,,,,,,,,,,,,,522,20,Man,Right,5,63,0.15,2,180,0,180,1.1052327000070363,['n'],0.22331929999927524,1.734,3349.387456100005,,,,,522,20,Man,Right,
,,,,,,,,,,,,,,,,,522,20,Man,Right,5,12,0.4,1,0,-,180,1.0913669000001391,['n'],2.2321433999895817,1.734,3349.387456100005,,,,,522,20,Man,Right,
,,,,,,,,,,,,,,,,,522,20,Man,Right,5,61,0.15,2,0,180,180,1.1342469999945024,['y'],2.071751099996618,2.0,3361.4875563000023,,,,,522,20,Man,Right,
,,,,,,,,,,,,,,,,,522,20,Man,Right,5,59,0.15,2,180,0,0,0.7504684000014095,['y'],1.3199131000001216,2.0,3365.937491900004,,,,,522,20,Man,Right,
,,,,,,,,,,,,,,,,,522,20,Man,Right,5,44,0.15,1,0,-,0,0.4015666999912355,['n'],0.5275227000092855,2.0,3368.9702414999992,,,,,522,20,Man,Right,
,,,,,,,,,,,,,,,,,522,20,Man,Right,5,6,1,1,180,-,180,0.6082011000107741,['n'],0.19942400000581983,2.0,3371.853680799999,,,,,522,20,Man,Right,
,,,,,,,,,,,,,,,,,522,20,Man,Right,5,49,0.15,2,0,180,180,2.6276662000018405,['y'],0.7753527000022586,1.688,3377.836951199999,,,,,522,20,Man,Right,
,,,,,,,,,,,,,,,,,522,20,Man,Right,5,78,0.15,1,180,-,180,0.5991766999941319,['n'],0.1195469999947818,1.6520000000000001,3381.4877663000007,,,,,522,20,Man,Right,
,,,,,,,,,,,,,,,,,522,20,Man,Right,5,19,0.4,2,180,0,0,2.5049222000088776,['y'],0.4474383999913698,2.0,3386.8543164000075,,,,,522,20,Man,Right,
,,,,,,,,,,,,,,,,,522,20,Man,Right,5,77,0.15,2,0,180,0,0.4673800000018673,['y'],2.2977084000012837,2.0,3386.8543164000075,,,,,522,20,Man,Right,
,,,,,,,,,,,,,,,,,522,20,Man,Right,5,70,0.15,1,180,-,180,0.4236975999956485,['y'],0.33530039999459404,1.784,3395.271284800001,,,,,522,20,Man,Right,
,,,,,,,,,,,,,,,,,522,20,Man,Right,5,0,1,1,0,-,0,1.9517993000044953,['n'],0.23156569999991916,2.0,3399.637827000006,,,,,522,20,Man,Right,
,,,,,,,,,,,,,,,,,522,20,Man,Right,5,23,0.4,2,180,0,0,1.376055799992173,['y'],1.3916931999992812,2.0,3404.9374257999953,,,,,522,20,Man,Right,
,,,,,,,,,,,,,,,,,522,20,Man,Right,5,33,0.4,2,0,180,0,1.5597252000006847,['y'],0.6069752999901539,2.0,3409.4544205000057,,,,,522,20,Man,Right,
,,,,,,,,,,,,,,,,,522,20,Man,Right,5,50,0.15,1,180,-,0,1.3696366000076523,['y'],0.9912959000066621,2.0,3414.4870490999965,,,,,522,20,Man,Right,
,,,,,,,,,,,,,,,,,522,20,Man,Right,5,38,0.4,1,180,-,180,1.1376384000031976,['y'],4.479637299999013,2.0,3414.4870490999965,,,,,522,20,Man,Right,
,,,,,,,,,,,,,,,,,522,20,Man,Right,5,37,0.4,2,0,180,180,1.588097600004403,['y'],3.8314656000002287,1.956,3430.1546763000006,,,,,522,20,Man,Right,
,,,,,,,,,,,,,,,,,522,20,Man,Right,5,55,0.15,2,180,0,180,1.4640161999996053,['y'],1.0474270999984583,1.204,3434.8545837000056,,,,,522,20,Man,Right,
,,,,,,,,,,,,,,,,,522,20,Man,Right,5,17,0.4,2,0,180,180,2.6084893999941414,['y'],0.6636566999950446,2.0,3441.5046199999997,,,,,522,20,Man,Right,
,,,,,,,,,,,,,,,,,522,20,Man,Right,5,72,0.15,1,0,-,180,2.6679616999899736,['y'],0.16761030000634491,1.0,3446.720534500004,,,,,522,20,Man,Right,
,,,,,,,,,,,,,,,,,522,20,Man,Right,5,57,0.15,2,0,180,180,0.6165265000017826,['n'],1.281204600003548,1.0,3450.870432600008,,,,,522,20,Man,Right,
,,,,,,,,,,,,,,,,,522,20,Man,Right,5,53,0.15,2,0,180,0,1.5066235000122106,['y'],0.1995564000098966,1.0,3455.6711924000047,,,,,522,20,Man,Right,
,,,,,,,,,,,,,,,,,,,,,,,,,,,,,,,,,76.25,67.5,80.0,3033.948324099998,,,,,
