p_block,p_section,p_coherence,p_direction1,p_direction2,p_direction_response,p_direction_RT,p_change_response,p_change_RT,p_confidence,p_full_correct,p_without5_correct,p_full_total,p_without5_total,p_full_avg,p_witout5_avg,p_total_time,sub,age,sex,handedness,loop,trial randomization,coherence,condition,direction1,direction2,direction_response,direction_RT,change_response,change_RT,change_confidence,change_confidence_RT,block_direction_avg,block_stable_avg,block_change_avg,total_time,sub,age,sex,handedness,
1,1,1.0,180,-,180,1.0650746999999683,-,-,-,,,,,,,,508,18,Woman,Left,,,,,,,,,,,,,,,,,508,18,Woman,Left,
1,1,1.0,0,-,0,0.01705260000017006,-,-,-,,,,,,,,508,18,Woman,Left,,,,,,,,,,,,,,,,,508,18,Woman,Left,
1,1,1.0,180,-,180,1.904721700000664,-,-,-,,,,,,,,508,18,Woman,Left,,,,,,,,,,,,,,,,,508,18,Woman,Left,
1,1,1.0,180,-,180,0.3833778000007442,-,-,-,,,,,,,,508,18,Woman,Left,,,,,,,,,,,,,,,,,508,18,Woman,Left,
1,1,1.0,0,-,0,0.1228542999997444,-,-,-,,,,,,,,508,18,Woman,Left,,,,,,,,,,,,,,,,,508,18,Woman,Left,
1,1,1.0,180,-,180,0.5753973999999289,-,-,-,,,,,,,,508,18,Woman,Left,,,,,,,,,,,,,,,,,508,18,Woman,Left,
1,1,1.0,0,-,0,0.03536779999922146,-,-,-,,,,,,,,508,18,Woman,Left,,,,,,,,,,,,,,,,,508,18,Woman,Left,
1,1,1.0,0,-,0,0.5322811000005458,-,-,-,,,,,,,,508,18,Woman,Left,,,,,,,,,,,,,,,,,508,18,Woman,Left,
1,1,1.0,180,-,180,0.016700600001058774,-,-,-,,,,,,,,508,18,Woman,Left,,,,,,,,,,,,,,,,,508,18,Woman,Left,
1,1,1.0,0,-,0,0.17876679999972112,-,-,-,10,10,10,10,1.0,1.0,,508,18,Woman,Left,,,,,,,,,,,,,,,,,508,18,Woman,Left,
2,1,0.15,0,-,180,1.482673499998782,-,-,-,,,,,,,,508,18,Woman,Left,,,,,,,,,,,,,,,,,508,18,Woman,Left,
2,1,0.4,180,-,180,0.8166458000014245,-,-,-,,,,,,,,508,18,Woman,Left,,,,,,,,,,,,,,,,,508,18,Woman,Left,
2,1,0.15,0,-,0,0.14591289999953005,-,-,-,,,,,,,,508,18,Woman,Left,,,,,,,,,,,,,,,,,508,18,Woman,Left,
2,1,0.15,0,-,180,0.5350976000008814,-,-,-,,,,,,,,508,18,Woman,Left,,,,,,,,,,,,,,,,,508,18,Woman,Left,
2,1,0.15,180,-,0,1.7417464999998629,-,-,-,,,,,,,,508,18,Woman,Left,,,,,,,,,,,,,,,,,508,18,Woman,Left,
2,1,0.4,0,-,0,1.2335564000022714,-,-,-,,,,,,,,508,18,Woman,Left,,,,,,,,,,,,,,,,,508,18,Woman,Left,
2,1,0.4,0,-,0,1.394202099996619,-,-,-,,,,,,,,508,18,Woman,Left,,,,,,,,,,,,,,,,,508,18,Woman,Left,
2,1,0.15,0,-,0,0.5335741999988386,-,-,-,,,,,,,,508,18,Woman,Left,,,,,,,,,,,,,,,,,508,18,Woman,Left,
2,1,0.4,0,-,0,0.19351470000037807,-,-,-,,,,,,,,508,18,Woman,Left,,,,,,,,,,,,,,,,,508,18,Woman,Left,
2,1,0.4,180,-,180,0.053372399997897446,-,-,-,7,5,10,5,0.7,1.0,,508,18,Woman,Left,,,,,,,,,,,,,,,,,508,18,Woman,Left,
3,2,1.0,0,180,180,1.3899788999988232,['y'],3.6422965999990993,2,,,,,,,,508,18,Woman,Left,,,,,,,,,,,,,,,,,508,18,Woman,Left,
3,2,1.0,180,0,0,0.7556108999997377,['y'],0.9458166000003985,2.0,,,,,,,,508,18,Woman,Left,,,,,,,,,,,,,,,,,508,18,Woman,Left,
3,2,1.0,0,180,180,0.9343758999966667,['y'],0.7494901999998547,1.984,,,,,,,,508,18,Woman,Left,,,,,,,,,,,,,,,,,508,18,Woman,Left,
3,2,1.0,0,180,180,0.6244936000002781,['y'],0.771621399999276,2.0,,,,,,,,508,18,Woman,Left,,,,,,,,,,,,,,,,,508,18,Woman,Left,
3,2,1.0,0,180,180,0.5421944000008807,['y'],0.5251317000002018,2.0,,,,,,,,508,18,Woman,Left,,,,,,,,,,,,,,,,,508,18,Woman,Left,
3,2,1.0,0,180,180,0.46179620000111754,['y'],0.5599860000002082,2.0,,,,,,,,508,18,Woman,Left,,,,,,,,,,,,,,,,,508,18,Woman,Left,
3,2,1.0,180,0,0,0.44112479999967036,['y'],0.956026899999415,2.0,,,,,,,,508,18,Woman,Left,,,,,,,,,,,,,,,,,508,18,Woman,Left,
3,2,1.0,0,180,180,0.6355049999983748,['y'],1.0870436000004702,2.0,,,,,,,,508,18,Woman,Left,,,,,,,,,,,,,,,,,508,18,Woman,Left,
3,2,1.0,0,180,180,1.183266799998819,['y'],1.0263612999988254,2.0,,,,,,,,508,18,Woman,Left,,,,,,,,,,,,,,,,,508,18,Woman,Left,
3,2,1.0,180,0,0,0.3368233000001055,['y'],0.3519976999996288,2.0,10,10,10,10,1.0,1.0,,508,18,Woman,Left,,,,,,,,,,,,,,,,,508,18,Woman,Left,
4,2,0.4,180,0,0,1.1558035999987624,['y'],1.362465099999099,2.0,,,,,,,,508,18,Woman,Left,,,,,,,,,,,,,,,,,508,18,Woman,Left,
4,2,0.4,180,0,0,0.5939736000000266,['y'],0.31828519999908167,2.0,,,,,,,,508,18,Woman,Left,,,,,,,,,,,,,,,,,508,18,Woman,Left,
4,2,0.4,0,180,180,0.416061300002184,['y'],0.2923501999975997,2.0,,,,,,,,508,18,Woman,Left,,,,,,,,,,,,,,,,,508,18,Woman,Left,
4,2,0.15,0,180,180,0.5514666000017314,['y'],0.5500533000013093,2.0,,,,,,,,508,18,Woman,Left,,,,,,,,,,,,,,,,,508,18,Woman,Left,
4,2,0.15,180,0,0,0.6177224999992177,['y'],0.4464191999977629,2.0,,,,,,,,508,18,Woman,Left,,,,,,,,,,,,,,,,,508,18,Woman,Left,
4,2,0.4,180,0,0,0.32432450000123936,['y'],0.7890488000011828,2.0,,,,,,,,508,18,Woman,Left,,,,,,,,,,,,,,,,,508,18,Woman,Left,
4,2,0.4,0,180,180,0.3337753000014345,['y'],0.5096143999980995,2.0,,,,,,,,508,18,Woman,Left,,,,,,,,,,,,,,,,,508,18,Woman,Left,
4,2,0.4,0,180,180,0.275864699997328,['y'],0.318346100000781,2.0,,,,,,,,508,18,Woman,Left,,,,,,,,,,,,,,,,,508,18,Woman,Left,
4,2,0.4,0,180,180,0.2604319000020041,['y'],0.4790248999997857,2.0,,,,,,,,508,18,Woman,Left,,,,,,,,,,,,,,,,,508,18,Woman,Left,
4,2,0.15,0,180,180,0.5066213999998581,['y'],1.034779500001605,2.0,10,7,10,7,1.0,1.0,,508,18,Woman,Left,,,,,,,,,,,,,,,,,508,18,Woman,Left,
5,3,1.0,0,180,180,1.4904122000007192,['y'],1.1801196000014897,2.0,,,,,,,,508,18,Woman,Left,,,,,,,,,,,,,,,,,508,18,Woman,Left,
5,3,1.0,0,-,0,1.624120499996934,['n'],0.4750619000005827,2.0,,,,,,,,508,18,Woman,Left,,,,,,,,,,,,,,,,,508,18,Woman,Left,
5,3,0.15,0,-,0,2.1720222999974794,['n'],1.8197201000002678,1.6179999999999999,,,,,,,,508,18,Woman,Left,,,,,,,,,,,,,,,,,508,18,Woman,Left,
5,3,0.4,0,-,0,1.8621784999995725,['n'],1.563012600003276,1.686,,,,,,,,508,18,Woman,Left,,,,,,,,,,,,,,,,,508,18,Woman,Left,
5,3,0.4,0,-,0,1.091022000000521,['n'],1.1494628000000375,1.45,,,,,,,,508,18,Woman,Left,,,,,,,,,,,,,,,,,508,18,Woman,Left,
5,3,0.15,0,-,0,1.3514610999991419,['n'],0.9759937000017089,1.358,,,,,,,,508,18,Woman,Left,,,,,,,,,,,,,,,,,508,18,Woman,Left,
5,3,0.4,0,-,0,0.716467800000828,['n'],0.9249273000023095,1.374,,,,,,,,508,18,Woman,Left,,,,,,,,,,,,,,,,,508,18,Woman,Left,
5,3,1.0,0,180,180,0.47748069999943255,['y'],0.3356480000002193,2.0,,,,,,,,508,18,Woman,Left,,,,,,,,,,,,,,,,,508,18,Woman,Left,
5,3,0.4,0,-,0,1.1567093999983626,['n'],0.33971160000146483,2.0,,,,,,,,508,18,Woman,Left,,,,,,,,,,,,,,,,,508,18,Woman,Left,
5,3,1.0,0,-,0,0.8162808999986737,['n'],0.7088490000023739,2.0,10,8,10,8,1.0,1.0,,508,18,Woman,Left,,,,,,,,,,,,,,,,,508,18,Woman,Left,
,,,,,,,,,,,,,,,,3.9000005926936865e-06,508,18,Woman,Left,,,,,,,,,,,,,,,,,508,18,Woman,Left,
,,,,,,,,,,,,,,,,,508,18,Woman,Left,0,55,0.15,2,180,0,180,0.7912617000001774,['n'],2.555052899999282,1.9020000000000001,305.3007746000003,,,,,508,18,Woman,Left,
,,,,,,,,,,,,,,,,,508,18,Woman,Left,0,67,0.15,2,180,0,180,1.7001443999979529,['n'],1.6675015999971947,1.312,313.0669519000003,,,,,508,18,Woman,Left,
,,,,,,,,,,,,,,,,,508,18,Woman,Left,0,30,0.4,1,180,-,180,3.272392700000637,['y'],1.3552983999979915,1.196,322.4171564999997,,,,,508,18,Woman,Left,
,,,,,,,,,,,,,,,,,508,18,Woman,Left,0,13,0.4,2,0,180,180,0.898622400000022,['y'],1.1788013000004867,1.958,329.4501694999999,,,,,508,18,Woman,Left,
,,,,,,,,,,,,,,,,,508,18,Woman,Left,0,22,0.4,1,180,-,180,3.0110297999999602,['n'],2.5069757999990543,1.318,340.1998371000009,,,,,508,18,Woman,Left,
,,,,,,,,,,,,,,,,,508,18,Woman,Left,0,65,0.15,2,0,180,180,2.1221541999984765,['y'],1.2831724999996368,1.194,347.9334893000014,,,,,508,18,Woman,Left,
,,,,,,,,,,,,,,,,,508,18,Woman,Left,0,41,0.4,2,0,180,180,0.7006788999970013,['y'],0.9955077999984496,1.948,354.2344962999996,,,,,508,18,Woman,Left,
,,,,,,,,,,,,,,,,,508,18,Woman,Left,0,35,0.4,2,180,0,0,0.6074601000000257,['y'],0.9713985000016692,2.0,361.45099250000203,,,,,508,18,Woman,Left,
,,,,,,,,,,,,,,,,,508,18,Woman,Left,0,21,0.4,2,0,180,180,0.3584288000020024,['y'],1.0594409000004816,2.0,367.7001751000025,,,,,508,18,Woman,Left,
,,,,,,,,,,,,,,,,,508,18,Woman,Left,0,37,0.4,2,0,180,180,0.26729379999960656,['y'],1.0453701000005822,2.0,373.9001523000006,,,,,508,18,Woman,Left,
,,,,,,,,,,,,,,,,,508,18,Woman,Left,0,17,0.4,2,0,180,180,0.4411646999978984,['y'],0.9797936000031768,2.0,380.0164724999995,,,,,508,18,Woman,Left,
,,,,,,,,,,,,,,,,,508,18,Woman,Left,0,54,0.15,1,180,-,0,0.5809728000022005,['y'],1.0275599999986298,1.6440000000000001,386.4162204000022,,,,,508,18,Woman,Left,
,,,,,,,,,,,,,,,,,508,18,Woman,Left,0,74,0.15,1,180,-,180,1.2274471999990055,['y'],0.963245700000698,1.316,393.16766540000026,,,,,508,18,Woman,Left,
,,,,,,,,,,,,,,,,,508,18,Woman,Left,0,38,0.4,1,180,-,180,1.263157900000806,['n'],1.019469200000458,1.5739999999999998,399.4169436000011,,,,,508,18,Woman,Left,
,,,,,,,,,,,,,,,,,508,18,Woman,Left,0,27,0.4,2,180,0,0,0.3843981999998505,['y'],0.8759704000003694,1.804,404.68345860000045,,,,,508,18,Woman,Left,
,,,,,,,,,,,,,,,,,508,18,Woman,Left,0,26,0.4,1,180,-,180,1.4420626999999513,['n'],1.1162566999992123,1.3639999999999999,411.64981080000143,,,,,508,18,Woman,Left,
,,,,,,,,,,,,,,,,,508,18,Woman,Left,0,68,0.15,1,0,-,180,3.079391500003112,['n'],1.3638571000010415,1.288,420.4156843000019,,,,,508,18,Woman,Left,
,,,,,,,,,,,,,,,,,508,18,Woman,Left,0,46,0.15,1,180,-,180,0.8162731999982498,['n'],0.8972896000013861,1.688,426.3326331999997,,,,,508,18,Woman,Left,
,,,,,,,,,,,,,,,,,508,18,Woman,Left,0,29,0.4,2,0,180,180,0.429052600000432,['y'],0.9160281000004034,1.822,432.4164533000003,,,,,508,18,Woman,Left,
,,,,,,,,,,,,,,,,,508,18,Woman,Left,0,77,0.15,2,0,180,180,3.395734800000355,['y'],1.5956652999993821,1.12,444.4162098000015,,,,,508,18,Woman,Left,
,,,,,,,,,,,,,,,,,508,18,Woman,Left,0,43,0.4,2,180,0,0,0.32400159999815514,['y'],1.5161127999999735,1.6400000000000001,450.2164868,,,,,508,18,Woman,Left,
,,,,,,,,,,,,,,,,,508,18,Woman,Left,0,58,0.15,1,180,-,180,0.8090880999989167,['n'],0.9644665999985591,1.778,456.61634419999973,,,,,508,18,Woman,Left,
,,,,,,,,,,,,,,,,,508,18,Woman,Left,0,47,0.15,2,180,0,0,0.8933895000009215,['y'],1.060489100000268,1.5859999999999999,463.3667703000028,,,,,508,18,Woman,Left,
,,,,,,,,,,,,,,,,,508,18,Woman,Left,0,71,0.15,2,180,0,0,2.033740000002581,['y'],1.2442143999978725,1.164,470.78339360000246,,,,,508,18,Woman,Left,
,,,,,,,,,,,,,,,,,508,18,Woman,Left,0,24,0.4,1,0,-,0,0.8915818000023137,['n'],1.3326153999987582,1.748,477.1667415000011,,,,,508,18,Woman,Left,
,,,,,,,,,,,,,,,,,508,18,Woman,Left,0,7,1,2,180,0,0,0.8311779000032402,['y'],1.3644546999967133,1.876,484.18298119999963,,,,,508,18,Woman,Left,
,,,,,,,,,,,,,,,,,508,18,Woman,Left,0,57,0.15,2,0,180,180,0.7243997999976273,['y'],1.1889303999996628,1.55,490.3491152000024,,,,,508,18,Woman,Left,
,,,,,,,,,,,,,,,,,508,18,Woman,Left,0,4,1,1,0,-,0,0.8659645000007004,['n'],0.7805422999990697,1.904,496.01570060000086,,,,,508,18,Woman,Left,
,,,,,,,,,,,,,,,,,508,18,Woman,Left,0,51,0.15,2,180,0,0,1.8563891000012518,['y'],0.8767718000017339,1.236,502.966160400003,,,,,508,18,Woman,Left,
,,,,,,,,,,,,,,,,,508,18,Woman,Left,0,50,0.15,1,180,-,180,1.698878399998648,['n'],0.8766728000009607,1.244,509.6988987000004,,,,,508,18,Woman,Left,
,,,,,,,,,,,,,,,,,508,18,Woman,Left,0,75,0.15,2,180,0,180,1.461387499999546,['n'],1.284682100002101,1.266,516.5002249000026,,,,,508,18,Woman,Left,
,,,,,,,,,,,,,,,,,508,18,Woman,Left,0,69,0.15,2,0,180,180,1.7512738999976136,['n'],1.5966814999992494,1.1480000000000001,523.9332934000013,,,,,508,18,Woman,Left,
,,,,,,,,,,,,,,,,,508,18,Woman,Left,0,6,1,1,180,-,180,0.8568010999988473,['n'],1.2369206000003032,2.0,530.416175600003,,,,,508,18,Woman,Left,
,,,,,,,,,,,,,,,,,508,18,Woman,Left,0,9,0.4,2,0,180,180,1.0165239999987534,['y'],0.8852589000016451,2.0,536.9820164000012,,,,,508,18,Woman,Left,
,,,,,,,,,,,,,,,,,508,18,Woman,Left,0,76,0.15,1,0,-,0,2.2186760999975377,['n'],1.9490425000003597,1.434,545.4992015000025,,,,,508,18,Woman,Left,
,,,,,,,,,,,,,,,,,508,18,Woman,Left,0,64,0.15,1,0,-,0,0.7559035000012955,['n'],1.4206271999973978,1.204,551.8154070000019,,,,,508,18,Woman,Left,
,,,,,,,,,,,,,,,,,508,18,Woman,Left,0,28,0.4,1,0,-,0,0.6770484000007855,['n'],1.1730381000015768,1.674,558.1491851000028,,,,,508,18,Woman,Left,
,,,,,,,,,,,,,,,,,508,18,Woman,Left,0,11,0.4,2,180,0,0,0.4620026999982656,['y'],1.0933245000014722,1.8719999999999999,566.5329491000011,,,,,508,18,Woman,Left,
,,,,,,,,,,,,,,,,,508,18,Woman,Left,0,72,0.15,1,0,-,0,0.6520829000000958,['n'],0.8129692000002251,1.5979999999999999,572.3994395000009,,,,,508,18,Woman,Left,
,,,,,,,,,,,,,,,,,508,18,Woman,Left,0,12,0.4,1,0,-,0,0.7508067000017036,['n'],1.2293797999991511,1.558,578.5164890000015,,,,,508,18,Woman,Left,
,,,,,,,,,,,,,,,,,508,18,Woman,Left,0,3,1,2,180,0,0,0.45810440000059316,['y'],1.1816109999999753,1.812,585.4664267000007,,,,,508,18,Woman,Left,
,,,,,,,,,,,,,,,,,508,18,Woman,Left,0,10,0.4,1,180,-,180,0.5250644999978249,['n'],0.8618014999992738,1.8900000000000001,591.7496978000017,,,,,508,18,Woman,Left,
,,,,,,,,,,,,,,,,,508,18,Woman,Left,0,32,0.4,1,0,-,0,0.8902782999975898,['n'],0.8540433000016492,1.612,598.382147100001,,,,,508,18,Woman,Left,
,,,,,,,,,,,,,,,,,508,18,Woman,Left,0,8,0.4,1,0,-,0,0.7016898000001675,['n'],0.9336301000003004,1.766,603.9330817000009,,,,,508,18,Woman,Left,
,,,,,,,,,,,,,,,,,508,18,Woman,Left,0,60,0.15,1,0,-,180,1.3189538000005996,['n'],0.7254850000026636,1.6179999999999999,610.0326105000022,,,,,508,18,Woman,Left,
,,,,,,,,,,,,,,,,,508,18,Woman,Left,0,20,0.4,1,0,-,0,0.5747240999990026,['n'],1.053844799997023,1.714,615.5995581000025,,,,,508,18,Woman,Left,
,,,,,,,,,,,,,,,,,508,18,Woman,Left,0,39,0.4,2,180,0,0,0.8213241000012204,['y'],0.7655194999970263,1.826,621.1492873999996,,,,,508,18,Woman,Left,
,,,,,,,,,,,,,,,,,508,18,Woman,Left,0,25,0.4,2,0,180,180,0.500768900001276,['y'],0.8061655999990762,1.8940000000000001,626.7485883000008,,,,,508,18,Woman,Left,
,,,,,,,,,,,,,,,,,508,18,Woman,Left,0,73,0.15,2,0,180,180,1.6037878999995883,['y'],0.9015713000007963,1.214,634.3656133000004,,,,,508,18,Woman,Left,
,,,,,,,,,,,,,,,,,508,18,Woman,Left,0,31,0.4,2,180,0,0,0.3401064999998198,['y'],1.2620943999972951,1.762,640.4823093000014,,,,,508,18,Woman,Left,
,,,,,,,,,,,,,,,,,508,18,Woman,Left,0,45,0.15,2,0,180,180,0.6169841999981145,['y'],0.9977386000027764,1.396,645.7820470000006,,,,,508,18,Woman,Left,
,,,,,,,,,,,,,,,,,508,18,Woman,Left,0,16,0.4,1,0,-,0,0.5888717999987421,['n'],0.8383613000005425,1.692,651.1818139000025,,,,,508,18,Woman,Left,
,,,,,,,,,,,,,,,,,508,18,Woman,Left,0,44,0.15,1,0,-,180,1.1928533999998763,['n'],0.9662486999986868,1.222,657.5323979000023,,,,,508,18,Woman,Left,
,,,,,,,,,,,,,,,,,508,18,Woman,Left,0,36,0.4,1,0,-,0,0.34236519999831216,['n'],0.9342337000016414,1.784,663.9161586000009,,,,,508,18,Woman,Left,
,,,,,,,,,,,,,,,,,508,18,Woman,Left,0,5,1,2,0,180,180,0.4306700999986788,['y'],0.8784550999989733,2.0,669.349005600001,,,,,508,18,Woman,Left,
,,,,,,,,,,,,,,,,,508,18,Woman,Left,0,34,0.4,1,180,-,180,0.3331068999978015,['n'],0.9209745000007388,2.0,674.8496199000001,,,,,508,18,Woman,Left,
,,,,,,,,,,,,,,,,,508,18,Woman,Left,0,2,1,1,180,-,180,0.4912277000003087,['n'],0.8462225000002945,2.0,682.2315577000008,,,,,508,18,Woman,Left,
,,,,,,,,,,,,,,,,,508,18,Woman,Left,0,53,0.15,2,0,180,0,0.8699094000003242,['n'],1.0223912000001292,1.358,687.7983276000014,,,,,508,18,Woman,Left,
,,,,,,,,,,,,,,,,,508,18,Woman,Left,0,40,0.4,1,0,-,0,0.8489621999979136,['n'],0.7663059999977122,1.822,693.5823447000002,,,,,508,18,Woman,Left,
,,,,,,,,,,,,,,,,,508,18,Woman,Left,0,66,0.15,1,180,-,180,0.3866046000002825,['n'],1.046202000001358,1.704,699.4655684999998,,,,,508,18,Woman,Left,
,,,,,,,,,,,,,,,,,508,18,Woman,Left,0,33,0.4,2,0,180,180,0.3899292999994941,['y'],1.126686299998255,1.8,705.6824465999998,,,,,508,18,Woman,Left,
,,,,,,,,,,,,,,,,,508,18,Woman,Left,0,62,0.15,1,180,-,0,1.5318169000020134,['n'],0.9345344999965164,1.544,712.6314420000017,,,,,508,18,Woman,Left,
,,,,,,,,,,,,,,,,,508,18,Woman,Left,0,70,0.15,1,180,-,180,0.4815094000005047,['n'],1.030899400000635,1.338,717.9159465000012,,,,,508,18,Woman,Left,
,,,,,,,,,,,,,,,,,508,18,Woman,Left,0,42,0.4,1,180,-,180,1.1997168000016245,['n'],1.0146859000014956,1.836,724.1652403000007,,,,,508,18,Woman,Left,
,,,,,,,,,,,,,,,,,508,18,Woman,Left,0,0,1,1,0,-,0,0.6604641999983869,['n'],0.9907757000000856,2.0,730.1154372000019,,,,,508,18,Woman,Left,
,,,,,,,,,,,,,,,,,508,18,Woman,Left,0,1,1,2,0,180,180,0.39744359999895096,['y'],1.0544026999996277,2.0,735.6153169000027,,,,,508,18,Woman,Left,
,,,,,,,,,,,,,,,,,508,18,Woman,Left,0,15,0.4,2,180,0,0,0.6983963999991829,['y'],1.3829707999975653,2.0,741.8991117000005,,,,,508,18,Woman,Left,
,,,,,,,,,,,,,,,,,508,18,Woman,Left,0,79,0.15,2,180,0,0,0.4002178000009735,['y'],1.1271880000022065,2.0,747.4655898000019,,,,,508,18,Woman,Left,
,,,,,,,,,,,,,,,,,508,18,Woman,Left,0,56,0.15,1,0,-,180,0.8836030000020401,['y'],0.9585495999999694,1.3940000000000001,753.5320826000025,,,,,508,18,Woman,Left,
,,,,,,,,,,,,,,,,,508,18,Woman,Left,0,61,0.15,2,0,180,180,0.18422189999910188,['y'],1.0306966999996803,1.884,759.0485461999997,,,,,508,18,Woman,Left,
,,,,,,,,,,,,,,,,,508,18,Woman,Left,0,19,0.4,2,180,0,0,0.6939894999995886,['y'],1.0392601999992621,1.6640000000000001,765.0983814000028,,,,,508,18,Woman,Left,
,,,,,,,,,,,,,,,,,508,18,Woman,Left,0,52,0.15,1,0,-,0,1.1429953000006208,['n'],0.9911690999979328,1.3679999999999999,771.3483430000015,,,,,508,18,Woman,Left,
,,,,,,,,,,,,,,,,,508,18,Woman,Left,0,23,0.4,2,180,0,0,0.2635932999983197,['y'],1.2151517999991484,1.6680000000000001,776.6314313000003,,,,,508,18,Woman,Left,
,,,,,,,,,,,,,,,,,508,18,Woman,Left,0,49,0.15,2,0,180,180,0.6285748999980569,['n'],0.750787400000263,1.6520000000000001,781.8488342000019,,,,,508,18,Woman,Left,
,,,,,,,,,,,,,,,,,508,18,Woman,Left,0,63,0.15,2,180,0,0,0.46124199999758275,['y'],0.94345980000071,1.638,787.3643494000025,,,,,508,18,Woman,Left,
,,,,,,,,,,,,,,,,,508,18,Woman,Left,0,48,0.15,1,0,-,0,1.2256063999993785,['n'],1.0632813000011083,1.268,793.9994165999997,,,,,508,18,Woman,Left,
,,,,,,,,,,,,,,,,,508,18,Woman,Left,0,18,0.4,1,180,-,0,1.0589663999999175,['y'],1.2157664000005752,1.268,800.2650638000014,,,,,508,18,Woman,Left,
,,,,,,,,,,,,,,,,,508,18,Woman,Left,0,78,0.15,1,180,-,180,1.2872998999991978,['n'],0.7914476999976614,1.3479999999999999,806.198048600003,,,,,508,18,Woman,Left,
,,,,,,,,,,,,,,,,,508,18,Woman,Left,0,59,0.15,2,180,0,0,0.4428330000009737,['y'],1.09586230000059,1.774,811.9992292000024,,,,,508,18,Woman,Left,
,,,,,,,,,,,,,,,,,508,18,Woman,Left,0,14,0.4,1,180,-,180,0.5814999999965949,['n'],0.839354400002776,1.836,817.2313439999998,,,,,508,18,Woman,Left,
,,,,,,,,,,,,,,,,,508,18,Woman,Left,1,22,0.4,1,180,-,180,0.7661270999997214,['n'],1.087067599997681,1.82,848.631456500003,86.25,87.5,85.0,,508,18,Woman,Left,
,,,,,,,,,,,,,,,,,508,18,Woman,Left,1,50,0.15,1,180,-,180,0.40086410000003525,['n'],0.8720968000016001,1.3780000000000001,854.4816033999996,,,,,508,18,Woman,Left,
,,,,,,,,,,,,,,,,,508,18,Woman,Left,1,58,0.15,1,180,-,180,0.8993475999996008,['n'],0.7777886000003491,1.6099999999999999,861.8316028000008,,,,,508,18,Woman,Left,
,,,,,,,,,,,,,,,,,508,18,Woman,Left,1,10,0.4,1,180,-,180,0.3244703999989724,['n'],0.8476025000018126,1.786,866.9150910000026,,,,,508,18,Woman,Left,
,,,,,,,,,,,,,,,,,508,18,Woman,Left,1,45,0.15,2,0,180,180,0.8509998999979871,['n'],1.0723088999984611,1.624,873.0477341000005,,,,,508,18,Woman,Left,
,,,,,,,,,,,,,,,,,508,18,Woman,Left,1,24,0.4,1,0,-,0,0.9391249000000244,['n'],0.7999889999991865,1.784,878.9476536000002,,,,,508,18,Woman,Left,
,,,,,,,,,,,,,,,,,508,18,Woman,Left,1,62,0.15,1,180,-,180,1.1025913000012224,['n'],1.024310400000104,1.236,884.6976710000017,,,,,508,18,Woman,Left,
,,,,,,,,,,,,,,,,,508,18,Woman,Left,1,72,0.15,1,0,-,0,0.8315513000015926,['n'],1.0322158000017225,1.6440000000000001,890.7480718000006,,,,,508,18,Woman,Left,
,,,,,,,,,,,,,,,,,508,18,Woman,Left,1,20,0.4,1,0,-,0,1.223329799999192,['n'],0.7687039000011282,1.608,896.7814556000012,,,,,508,18,Woman,Left,
,,,,,,,,,,,,,,,,,508,18,Woman,Left,1,29,0.4,2,0,180,180,0.3580004000032204,['y'],0.8807284000031359,1.9,902.0981214000021,,,,,508,18,Woman,Left,
,,,,,,,,,,,,,,,,,508,18,Woman,Left,1,67,0.15,2,180,0,0,1.5040975000010803,['y'],0.9284747999990941,1.138,909.1319973000027,,,,,508,18,Woman,Left,
,,,,,,,,,,,,,,,,,508,18,Woman,Left,1,74,0.15,1,180,-,180,0.7532863000014913,['n'],1.03258900000219,1.57,914.7654312000013,,,,,508,18,Woman,Left,
,,,,,,,,,,,,,,,,,508,18,Woman,Left,1,79,0.15,2,180,0,0,0.4935842999984743,['y'],1.0487217999980203,1.5979999999999999,920.2148282000016,,,,,508,18,Woman,Left,
,,,,,,,,,,,,,,,,,508,18,Woman,Left,1,6,1,1,180,-,180,0.5350637000010465,['n'],0.8562670999999682,1.956,925.7980108000011,,,,,508,18,Woman,Left,
,,,,,,,,,,,,,,,,,508,18,Woman,Left,1,25,0.4,2,0,180,180,0.28301180000198656,['y'],0.8643379000022833,2.0,930.9141761999999,,,,,508,18,Woman,Left,
,,,,,,,,,,,,,,,,,508,18,Woman,Left,1,0,1,1,0,-,0,0.268505299998651,['n'],0.8080250000020897,2.0,936.0977830000011,,,,,508,18,Woman,Left,
,,,,,,,,,,,,,,,,,508,18,Woman,Left,1,13,0.4,2,0,180,180,0.2816188000033435,['y'],0.8723088000006101,2.0,941.0307150000008,,,,,508,18,Woman,Left,
,,,,,,,,,,,,,,,,,508,18,Woman,Left,1,11,0.4,2,180,0,0,0.20310869999957504,['y'],2.8003215999997337,2.0,948.3643589000021,,,,,508,18,Woman,Left,
,,,,,,,,,,,,,,,,,508,18,Woman,Left,1,77,0.15,2,0,180,180,0.4859145000009448,['y'],0.8004203999989841,2.0,953.1989021000009,,,,,508,18,Woman,Left,
,,,,,,,,,,,,,,,,,508,18,Woman,Left,1,27,0.4,2,180,0,0,0.38137709999864455,['y'],1.6492905000013707,2.0,958.5151121000017,,,,,508,18,Woman,Left,
,,,,,,,,,,,,,,,,,508,18,Woman,Left,1,41,0.4,2,0,180,180,0.18774579999808338,['y'],0.7846981000002415,2.0,962.8649208000024,,,,,508,18,Woman,Left,
,,,,,,,,,,,,,,,,,508,18,Woman,Left,1,3,1,2,180,0,0,0.5454234999997425,['y'],0.8010785000005853,2.0,967.8154015,,,,,508,18,Woman,Left,
,,,,,,,,,,,,,,,,,508,18,Woman,Left,1,75,0.15,2,180,0,0,0.2728294000007736,['y'],0.8012087999995856,2.0,973.2640229000026,,,,,508,18,Woman,Left,
,,,,,,,,,,,,,,,,,508,18,Woman,Left,1,39,0.4,2,180,0,0,0.245751400001609,['y'],1.0403380999996443,2.0,977.6474605000003,,,,,508,18,Woman,Left,
,,,,,,,,,,,,,,,,,508,18,Woman,Left,1,43,0.4,2,180,0,0,0.16619830000126967,['y'],0.9452154999999038,2.0,981.7982483000014,,,,,508,18,Woman,Left,
,,,,,,,,,,,,,,,,,508,18,Woman,Left,1,33,0.4,2,0,180,180,0.7025515999994241,['y'],0.7847866999982216,1.998,987.2474514999994,,,,,508,18,Woman,Left,
,,,,,,,,,,,,,,,,,508,18,Woman,Left,1,60,0.15,1,0,-,180,0.36538710000240826,['y'],0.8167198000010103,1.638,992.3314620000019,,,,,508,18,Woman,Left,
,,,,,,,,,,,,,,,,,508,18,Woman,Left,1,69,0.15,2,0,180,0,0.9202650999977777,['n'],1.3693736999994144,1.292,998.4475798000021,,,,,508,18,Woman,Left,
,,,,,,,,,,,,,,,,,508,18,Woman,Left,1,44,0.15,1,0,-,0,0.7947435000023688,['n'],0.8249087000003783,1.44,1003.8140992000008,,,,,508,18,Woman,Left,
,,,,,,,,,,,,,,,,,508,18,Woman,Left,1,47,0.15,2,180,0,180,1.5337752000014007,['n'],0.7291279999990365,1.434,1009.1817695000027,,,,,508,18,Woman,Left,
,,,,,,,,,,,,,,,,,508,18,Woman,Left,1,36,0.4,1,0,-,0,0.38858170000094105,['n'],0.7935713000006217,1.814,1014.780505900002,,,,,508,18,Woman,Left,
,,,,,,,,,,,,,,,,,508,18,Woman,Left,1,28,0.4,1,0,-,0,0.29600419999769656,['n'],0.8648921000021801,1.768,1019.7148825000004,,,,,508,18,Woman,Left,
,,,,,,,,,,,,,,,,,508,18,Woman,Left,1,68,0.15,1,0,-,0,0.32793149999997695,['n'],1.3292805999990378,1.8599999999999999,1025.615099300001,,,,,508,18,Woman,Left,
,,,,,,,,,,,,,,,,,508,18,Woman,Left,1,19,0.4,2,180,0,0,0.5685064999997849,['y'],0.9527549000013096,1.92,1030.8975643000012,,,,,508,18,Woman,Left,
,,,,,,,,,,,,,,,,,508,18,Woman,Left,1,34,0.4,1,180,-,180,0.42074180000054184,['n'],0.7537942999988445,1.958,1035.6977480000023,,,,,508,18,Woman,Left,
,,,,,,,,,,,,,,,,,508,18,Woman,Left,1,16,0.4,1,0,-,0,0.40943220000190195,['n'],0.7377158999988751,1.95,1039.931410000001,,,,,508,18,Woman,Left,
,,,,,,,,,,,,,,,,,508,18,Woman,Left,1,51,0.15,2,180,0,180,0.9229344000013953,['n'],1.1936702000020887,1.5899999999999999,1045.6313104,,,,,508,18,Woman,Left,
,,,,,,,,,,,,,,,,,508,18,Woman,Left,1,7,1,2,180,0,0,0.9158999999999651,['y'],1.089254599999549,1.928,1051.5301160000017,,,,,508,18,Woman,Left,
,,,,,,,,,,,,,,,,,508,18,Woman,Left,1,40,0.4,1,0,-,0,1.0588126000002376,['n'],0.8972477999996045,1.236,1057.2145138000014,,,,,508,18,Woman,Left,
,,,,,,,,,,,,,,,,,508,18,Woman,Left,1,31,0.4,2,180,0,0,0.2574395999981789,['y'],1.4489891999983229,1.828,1062.9641961000016,,,,,508,18,Woman,Left,
,,,,,,,,,,,,,,,,,508,18,Woman,Left,1,65,0.15,2,0,180,180,0.40702020000026096,['y'],0.7933776999998372,1.65,1067.9812679999995,,,,,508,18,Woman,Left,
,,,,,,,,,,,,,,,,,508,18,Woman,Left,1,57,0.15,2,0,180,180,0.5434865999995964,['y'],0.8496809999996913,1.294,1073.0651383000004,,,,,508,18,Woman,Left,
,,,,,,,,,,,,,,,,,508,18,Woman,Left,1,5,1,2,0,180,180,0.24446599999646423,['y'],0.8820792000005895,2.0,1078.3646197000016,,,,,508,18,Woman,Left,
,,,,,,,,,,,,,,,,,508,18,Woman,Left,1,70,0.15,1,180,-,180,0.7493052999998326,['n'],0.8092886000013095,1.358,1083.7147872000023,,,,,508,18,Woman,Left,
,,,,,,,,,,,,,,,,,508,18,Woman,Left,1,30,0.4,1,180,-,180,0.3631012000005285,['n'],0.7215668999997433,1.982,1089.164861000001,,,,,508,18,Woman,Left,
,,,,,,,,,,,,,,,,,508,18,Woman,Left,1,9,0.4,2,0,180,180,0.3355039999987639,['y'],0.8338007000020298,1.95,1094.2980368000026,,,,,508,18,Woman,Left,
,,,,,,,,,,,,,,,,,508,18,Woman,Left,1,12,0.4,1,0,-,0,0.4731117000010272,['y'],1.8900113000017882,1.982,1100.7159625000022,,,,,508,18,Woman,Left,
,,,,,,,,,,,,,,,,,508,18,Woman,Left,1,59,0.15,2,180,0,180,0.7551057000018773,['n'],0.8577208999995491,1.82,1106.664833400002,,,,,508,18,Woman,Left,
,,,,,,,,,,,,,,,,,508,18,Woman,Left,1,35,0.4,2,180,0,0,0.27939060000062454,['y'],0.8182750999985728,1.834,1111.2480152999997,,,,,508,18,Woman,Left,
,,,,,,,,,,,,,,,,,508,18,Woman,Left,1,63,0.15,2,180,0,0,0.6288573999991058,['y'],1.6344066000019666,2.0,1117.5148714000024,,,,,508,18,Woman,Left,
,,,,,,,,,,,,,,,,,508,18,Woman,Left,1,18,0.4,1,180,-,180,0.40086449999944307,['y'],1.0500840000022436,1.286,1123.7974496999996,,,,,508,18,Woman,Left,
,,,,,,,,,,,,,,,,,508,18,Woman,Left,1,71,0.15,2,180,0,180,0.9378507999972499,['n'],1.0339588999995613,1.424,1129.964490800001,,,,,508,18,Woman,Left,
,,,,,,,,,,,,,,,,,508,18,Woman,Left,1,14,0.4,1,180,-,180,0.30841789999976754,['n'],1.2744419000009657,1.874,1135.3647144000024,,,,,508,18,Woman,Left,
,,,,,,,,,,,,,,,,,508,18,Woman,Left,1,26,0.4,1,180,-,180,0.10100170000077924,['n'],0.9062764000009338,2.0,1140.297635400002,,,,,508,18,Woman,Left,
,,,,,,,,,,,,,,,,,508,18,Woman,Left,1,78,0.15,1,180,-,180,0.46760119999817107,['n'],0.962364200000593,2.0,1146.230234300001,,,,,508,18,Woman,Left,
,,,,,,,,,,,,,,,,,508,18,Woman,Left,1,52,0.15,1,0,-,0,0.4981657999996969,['n'],2.098477300001832,2.0,1152.8475096000002,,,,,508,18,Woman,Left,
,,,,,,,,,,,,,,,,,508,18,Woman,Left,1,64,0.15,1,0,-,0,0.5405566000008548,['n'],0.6584282999974675,1.58,1157.8810773000005,,,,,508,18,Woman,Left,
,,,,,,,,,,,,,,,,,508,18,Woman,Left,1,48,0.15,1,0,-,180,0.8940954000026977,['n'],0.7381596000013815,1.286,1163.2140472000028,,,,,508,18,Woman,Left,
,,,,,,,,,,,,,,,,,508,18,Woman,Left,1,8,0.4,1,0,-,0,0.598457199997938,['n'],0.9704507000024023,2.0,1169.1304973000006,,,,,508,18,Woman,Left,
,,,,,,,,,,,,,,,,,508,18,Woman,Left,1,1,1,2,0,180,180,0.47244879999925615,['y'],0.8500934000003326,2.0,1174.2801197000008,,,,,508,18,Woman,Left,
,,,,,,,,,,,,,,,,,508,18,Woman,Left,1,21,0.4,2,0,180,180,0.3238200000014331,['y'],0.8189065999977174,2.0,1178.7473190000019,,,,,508,18,Woman,Left,
,,,,,,,,,,,,,,,,,508,18,Woman,Left,1,55,0.15,2,180,0,180,0.7380150999997568,['n'],0.7069555000016408,2.0,1183.214100600002,,,,,508,18,Woman,Left,
,,,,,,,,,,,,,,,,,508,18,Woman,Left,1,4,1,1,0,-,0,0.5809896999999182,['n'],0.930987499999901,2.0,1187.8968836000022,,,,,508,18,Woman,Left,
,,,,,,,,,,,,,,,,,508,18,Woman,Left,1,46,0.15,1,180,-,180,0.386882599999808,['n'],0.7309999999997672,2.0,1192.047066500003,,,,,508,18,Woman,Left,
,,,,,,,,,,,,,,,,,508,18,Woman,Left,1,15,0.4,2,180,0,0,0.359434499998315,['y'],0.8350844999986293,2.0,1196.2975250000018,,,,,508,18,Woman,Left,
,,,,,,,,,,,,,,,,,508,18,Woman,Left,1,56,0.15,1,0,-,0,0.41145419999884325,['n'],0.7870547000020451,2.0,1200.4638636000018,,,,,508,18,Woman,Left,
,,,,,,,,,,,,,,,,,508,18,Woman,Left,1,32,0.4,1,0,-,0,0.3494572999989032,['n'],0.6919712000017171,2.0,1204.9804172000004,,,,,508,18,Woman,Left,
,,,,,,,,,,,,,,,,,508,18,Woman,Left,1,23,0.4,2,180,0,0,0.32712399999945774,['y'],0.9470810999991954,1.828,1210.0464324000022,,,,,508,18,Woman,Left,
,,,,,,,,,,,,,,,,,508,18,Woman,Left,1,76,0.15,1,0,-,0,0.3112174000016239,['n'],0.8187135000007402,1.826,1214.1134483999995,,,,,508,18,Woman,Left,
,,,,,,,,,,,,,,,,,508,18,Woman,Left,1,49,0.15,2,0,180,180,0.26579169999968144,['n'],1.5732205999993312,1.802,1219.4475101000025,,,,,508,18,Woman,Left,
,,,,,,,,,,,,,,,,,508,18,Woman,Left,1,61,0.15,2,0,180,180,1.095190799998818,['y'],0.9073016000002099,1.3,1225.6636768000026,,,,,508,18,Woman,Left,
,,,,,,,,,,,,,,,,,508,18,Woman,Left,1,2,1,1,180,-,180,0.3011097000016889,['n'],0.7704904000020179,2.0,1231.1297277000012,,,,,508,18,Woman,Left,
,,,,,,,,,,,,,,,,,508,18,Woman,Left,1,38,0.4,1,180,-,180,0.5388750000020082,['n'],0.7712433999986388,2.0,1236.6139191000002,,,,,508,18,Woman,Left,
,,,,,,,,,,,,,,,,,508,18,Woman,Left,1,73,0.15,2,0,180,180,0.31574669999827165,['y'],0.8669779999981984,1.55,1242.0469749000004,,,,,508,18,Woman,Left,
,,,,,,,,,,,,,,,,,508,18,Woman,Left,1,53,0.15,2,0,180,180,1.0512801000004401,['y'],0.7794068000002881,1.298,1247.7637649000026,,,,,508,18,Woman,Left,
,,,,,,,,,,,,,,,,,508,18,Woman,Left,1,17,0.4,2,0,180,180,0.3623297000012826,['y'],0.786807399999816,1.948,1252.8464017000006,,,,,508,18,Woman,Left,
,,,,,,,,,,,,,,,,,508,18,Woman,Left,1,42,0.4,1,180,-,180,0.37502260000110255,['n'],1.1390085999992152,2.0,1258.1969707999997,,,,,508,18,Woman,Left,
,,,,,,,,,,,,,,,,,508,18,Woman,Left,1,66,0.15,1,180,-,180,0.7924353000016708,['n'],0.7470227000012528,1.3599999999999999,1263.5138675000017,,,,,508,18,Woman,Left,
,,,,,,,,,,,,,,,,,508,18,Woman,Left,1,54,0.15,1,180,-,180,0.6335713999978907,['n'],0.8996535999976913,1.996,1269.1807985000014,,,,,508,18,Woman,Left,
,,,,,,,,,,,,,,,,,508,18,Woman,Left,1,37,0.4,2,0,180,180,0.33048609999968903,['y'],0.7231509000012011,2.0,1274.1470986000022,,,,,508,18,Woman,Left,
,,,,,,,,,,,,,,,,,508,18,Woman,Left,2,28,0.4,1,0,-,0,0.3491271999992023,['n'],0.9707619000000705,1.784,1312.2638882000028,90.0,92.5,80.0,,508,18,Woman,Left,
,,,,,,,,,,,,,,,,,508,18,Woman,Left,2,16,0.4,1,0,-,0,0.4790288000003784,['n'],0.747600999999122,1.616,1317.2794998999998,,,,,508,18,Woman,Left,
,,,,,,,,,,,,,,,,,508,18,Woman,Left,2,71,0.15,2,180,0,0,0.9315973000011581,['y'],0.9161659999990661,1.396,1322.8636198000022,,,,,508,18,Woman,Left,
,,,,,,,,,,,,,,,,,508,18,Woman,Left,2,12,0.4,1,0,-,0,0.1891025000004447,['n'],1.4678583999993862,1.762,1328.0298815000024,,,,,508,18,Woman,Left,
,,,,,,,,,,,,,,,,,508,18,Woman,Left,2,61,0.15,2,0,180,180,0.36666390000027604,['n'],0.7001414000005752,1.866,1332.6969798999999,,,,,508,18,Woman,Left,
,,,,,,,,,,,,,,,,,508,18,Woman,Left,2,79,0.15,2,180,0,0,0.46545509999850765,['y'],0.7522165000009409,1.866,1337.4131983000007,,,,,508,18,Woman,Left,
,,,,,,,,,,,,,,,,,508,18,Woman,Left,2,57,0.15,2,0,180,180,0.4501839000004111,['n'],0.7633146999978635,1.998,1342.5140228000018,,,,,508,18,Woman,Left,
,,,,,,,,,,,,,,,,,508,18,Woman,Left,2,30,0.4,1,180,-,180,0.2772011000015482,['n'],0.7796740000012505,2.0,1346.646311200002,,,,,508,18,Woman,Left,
,,,,,,,,,,,,,,,,,508,18,Woman,Left,2,26,0.4,1,180,-,180,0.3265184000010777,['n'],0.7403330999986792,2.0,1350.8137306000026,,,,,508,18,Woman,Left,
,,,,,,,,,,,,,,,,,508,18,Woman,Left,2,76,0.15,1,0,-,180,1.3161422000011953,['n'],0.7365543999985675,1.1560000000000001,1357.3299595000026,,,,,508,18,Woman,Left,
,,,,,,,,,,,,,,,,,508,18,Woman,Left,2,22,0.4,1,180,-,180,0.21883819999857224,['n'],0.8042193000001134,1.99,1362.6471198,,,,,508,18,Woman,Left,
,,,,,,,,,,,,,,,,,508,18,Woman,Left,2,78,0.15,1,180,-,180,0.39861600000222097,['n'],0.915704499999265,1.63,1367.5308227000023,,,,,508,18,Woman,Left,
,,,,,,,,,,,,,,,,,508,18,Woman,Left,2,10,0.4,1,180,-,180,0.20982509999885224,['n'],0.7562017000018386,2.0,1372.363366900001,,,,,508,18,Woman,Left,
,,,,,,,,,,,,,,,,,508,18,Woman,Left,2,49,0.15,2,0,180,180,0.4026981999995769,['y'],0.7562986999982968,1.956,1377.3624208,,,,,508,18,Woman,Left,
,,,,,,,,,,,,,,,,,508,18,Woman,Left,2,32,0.4,1,0,-,0,0.4248011999989103,['n'],0.7409742999989248,1.968,1382.0628111000005,,,,,508,18,Woman,Left,
,,,,,,,,,,,,,,,,,508,18,Woman,Left,2,63,0.15,2,180,0,0,0.37267960000099265,['y'],0.7566126999990956,1.748,1386.9468129000015,,,,,508,18,Woman,Left,
,,,,,,,,,,,,,,,,,508,18,Woman,Left,2,56,0.15,1,0,-,0,0.23556339999777265,['n'],1.180117899999459,1.7,1392.6627652999996,,,,,508,18,Woman,Left,
,,,,,,,,,,,,,,,,,508,18,Woman,Left,2,17,0.4,2,0,180,180,0.430107100000896,['y'],0.6928771000020788,1.952,1397.396872600002,,,,,508,18,Woman,Left,
,,,,,,,,,,,,,,,,,508,18,Woman,Left,2,77,0.15,2,0,180,180,0.31396049999966635,['n'],0.780177000000549,1.6360000000000001,1401.997510600002,,,,,508,18,Woman,Left,
,,,,,,,,,,,,,,,,,508,18,Woman,Left,2,3,1,2,180,0,0,0.3035057000015513,['y'],0.8520238999990397,1.986,1407.1795093,,,,,508,18,Woman,Left,
,,,,,,,,,,,,,,,,,508,18,Woman,Left,2,24,0.4,1,0,-,0,0.43037980000008247,['n'],0.7643874999994296,1.708,1411.7294708000009,,,,,508,18,Woman,Left,
,,,,,,,,,,,,,,,,,508,18,Woman,Left,2,70,0.15,1,180,-,0,0.8375216999993427,['n'],0.9163289999996778,1.3860000000000001,1417.513662100002,,,,,508,18,Woman,Left,
,,,,,,,,,,,,,,,,,508,18,Woman,Left,2,31,0.4,2,180,0,0,1.5739393000003474,['y'],0.8121271000018169,1.342,1423.2294161000027,,,,,508,18,Woman,Left,
,,,,,,,,,,,,,,,,,508,18,Woman,Left,2,55,0.15,2,180,0,180,1.0855226999992738,['n'],0.829075699999521,1.342,1428.7464959000026,,,,,508,18,Woman,Left,
,,,,,,,,,,,,,,,,,508,18,Woman,Left,2,21,0.4,2,0,180,180,0.3714834000020346,['y'],0.7811542999988887,1.818,1433.7137435000004,,,,,508,18,Woman,Left,
,,,,,,,,,,,,,,,,,508,18,Woman,Left,2,43,0.4,2,180,0,0,0.3790198999995482,['y'],0.7090077000029851,1.974,1438.6461230000023,,,,,508,18,Woman,Left,
,,,,,,,,,,,,,,,,,508,18,Woman,Left,2,44,0.15,1,0,-,0,0.685793199998443,['n'],0.6763897999990149,1.588,1443.412392600003,,,,,508,18,Woman,Left,
,,,,,,,,,,,,,,,,,508,18,Woman,Left,2,14,0.4,1,180,-,180,0.32216040000275825,['n'],0.7007655000015802,1.926,1448.1959650999997,,,,,508,18,Woman,Left,
,,,,,,,,,,,,,,,,,508,18,Woman,Left,2,68,0.15,1,0,-,0,0.4091928999987431,['n'],0.7326525999997102,1.846,1452.9126612,,,,,508,18,Woman,Left,
,,,,,,,,,,,,,,,,,508,18,Woman,Left,2,5,1,2,0,180,180,0.3325263000006089,['y'],0.7253108999975666,2.0,1457.6458794000027,,,,,508,18,Woman,Left,
,,,,,,,,,,,,,,,,,508,18,Woman,Left,2,11,0.4,2,180,0,0,0.31620459999976447,['y'],0.7328322000030312,1.954,1462.3795662000011,,,,,508,18,Woman,Left,
,,,,,,,,,,,,,,,,,508,18,Woman,Left,2,40,0.4,1,0,-,0,0.13739510000232258,['n'],1.340831999998045,1.948,1466.9303236000014,,,,,508,18,Woman,Left,
,,,,,,,,,,,,,,,,,508,18,Woman,Left,2,72,0.15,1,0,-,0,0.13093969999681576,['n'],1.38144420000026,1.892,1473.3291465000002,,,,,508,18,Woman,Left,
,,,,,,,,,,,,,,,,,508,18,Woman,Left,2,50,0.15,1,180,-,180,0.5453860000015993,['n'],0.701126200001454,1.3639999999999999,1478.196253500002,,,,,508,18,Woman,Left,
,,,,,,,,,,,,,,,,,508,18,Woman,Left,2,37,0.4,2,0,180,180,0.3190370000011171,['y'],0.7327786999994714,1.8860000000000001,1483.296483000002,,,,,508,18,Woman,Left,
,,,,,,,,,,,,,,,,,508,18,Woman,Left,2,46,0.15,1,180,-,180,0.18640179999783868,['n'],1.1972965999993903,1.8820000000000001,1487.7291864,,,,,508,18,Woman,Left,
,,,,,,,,,,,,,,,,,508,18,Woman,Left,2,64,0.15,1,0,-,0,0.2266985999995086,['n'],0.7817219000025943,1.928,1492.2968003999995,,,,,508,18,Woman,Left,
,,,,,,,,,,,,,,,,,508,18,Woman,Left,2,69,0.15,2,0,180,180,0.6061427999993612,['y'],0.6851434000018344,1.588,1497.579012600003,,,,,508,18,Woman,Left,
,,,,,,,,,,,,,,,,,508,18,Woman,Left,2,27,0.4,2,180,0,0,0.34611039999799686,['y'],2.7092302000019117,1.71,1504.1787406000003,,,,,508,18,Woman,Left,
,,,,,,,,,,,,,,,,,508,18,Woman,Left,2,66,0.15,1,180,-,180,1.1496601000035298,['n'],0.8687646999969729,1.4020000000000001,1509.9961820000026,,,,,508,18,Woman,Left,
,,,,,,,,,,,,,,,,,508,18,Woman,Left,2,67,0.15,2,180,0,0,1.4787718999978097,['y'],0.9016430999981822,1.404,1515.6299910000016,,,,,508,18,Woman,Left,
,,,,,,,,,,,,,,,,,508,18,Woman,Left,2,48,0.15,1,0,-,0,0.4585423999997147,['n'],1.3650716000011016,1.626,1521.8123150000029,,,,,508,18,Woman,Left,
,,,,,,,,,,,,,,,,,508,18,Woman,Left,2,7,1,2,180,0,0,0.8600077999981295,['y'],0.9569168999987596,1.938,1528.0463301000018,,,,,508,18,Woman,Left,
,,,,,,,,,,,,,,,,,508,18,Woman,Left,2,6,1,1,180,-,180,0.5886747000004107,['n'],0.653889999997773,1.952,1532.4799638000004,,,,,508,18,Woman,Left,
,,,,,,,,,,,,,,,,,508,18,Woman,Left,2,15,0.4,2,180,0,0,0.285405599999649,['y'],0.7497140000014042,2.0,1537.1961432000026,,,,,508,18,Woman,Left,
,,,,,,,,,,,,,,,,,508,18,Woman,Left,2,54,0.15,1,180,-,0,0.937730300000112,['n'],0.8050853999993706,1.1219999999999999,1542.7470408000008,,,,,508,18,Woman,Left,
,,,,,,,,,,,,,,,,,508,18,Woman,Left,2,9,0.4,2,0,180,180,0.443396999999095,['y'],0.7179031999985455,1.674,1547.429075600001,,,,,508,18,Woman,Left,
,,,,,,,,,,,,,,,,,508,18,Woman,Left,2,4,1,1,0,-,0,0.2788645999971777,['n'],0.7097475999980816,2.0,1552.1634591000002,,,,,508,18,Woman,Left,
,,,,,,,,,,,,,,,,,508,18,Woman,Left,2,59,0.15,2,180,0,180,0.4265625000007276,['n'],0.7493610000019544,1.1320000000000001,1557.262233100002,,,,,508,18,Woman,Left,
,,,,,,,,,,,,,,,,,508,18,Woman,Left,2,42,0.4,1,180,-,180,0.24094219999824418,['n'],0.7821020999981556,1.836,1562.1132070000021,,,,,508,18,Woman,Left,
,,,,,,,,,,,,,,,,,508,18,Woman,Left,2,51,0.15,2,180,0,0,0.796077899998636,['y'],0.7336532000008447,1.608,1567.0645853999995,,,,,508,18,Woman,Left,
,,,,,,,,,,,,,,,,,508,18,Woman,Left,2,39,0.4,2,180,0,0,0.3188509999999951,['y'],1.2213714999998047,1.75,1572.8291838000005,,,,,508,18,Woman,Left,
,,,,,,,,,,,,,,,,,508,18,Woman,Left,2,25,0.4,2,0,180,180,0.31364420000318205,['y'],0.893776799999614,1.918,1577.5787763000008,,,,,508,18,Woman,Left,
,,,,,,,,,,,,,,,,,508,18,Woman,Left,2,60,0.15,1,0,-,0,0.6603964999994787,['n'],0.7580205999984173,1.604,1582.5131173000009,,,,,508,18,Woman,Left,
,,,,,,,,,,,,,,,,,508,18,Woman,Left,2,36,0.4,1,0,-,0,0.2700795000018843,['n'],0.7498374999995576,2.0,1587.1960264000008,,,,,508,18,Woman,Left,
,,,,,,,,,,,,,,,,,508,18,Woman,Left,2,18,0.4,1,180,-,180,0.5357550999979139,['n'],0.6782449000020279,2.0,1591.4457323000024,,,,,508,18,Woman,Left,
,,,,,,,,,,,,,,,,,508,18,Woman,Left,2,34,0.4,1,180,-,180,0.2087238999993133,['n'],0.7824099999997998,2.0,1596.2288649000002,,,,,508,18,Woman,Left,
,,,,,,,,,,,,,,,,,508,18,Woman,Left,2,47,0.15,2,180,0,180,0.7618131999988691,['n'],0.6861200999992434,1.6219999999999999,1601.1120057000007,,,,,508,18,Woman,Left,
,,,,,,,,,,,,,,,,,508,18,Woman,Left,2,35,0.4,2,180,0,0,1.4153629000029468,['y'],0.7419603999987885,1.79,1606.7625396000003,,,,,508,18,Woman,Left,
,,,,,,,,,,,,,,,,,508,18,Woman,Left,2,1,1,2,0,180,180,0.3400207999984559,['y'],0.8146067999987281,2.0,1611.896007700001,,,,,508,18,Woman,Left,
,,,,,,,,,,,,,,,,,508,18,Woman,Left,2,58,0.15,1,180,-,180,0.24526590000095894,['n'],0.758734099999856,1.802,1616.7290705000014,,,,,508,18,Woman,Left,
,,,,,,,,,,,,,,,,,508,18,Woman,Left,2,52,0.15,1,0,-,0,0.3152541999988898,['n'],0.6783881000010297,1.938,1621.5287105999996,,,,,508,18,Woman,Left,
,,,,,,,,,,,,,,,,,508,18,Woman,Left,2,62,0.15,1,180,-,180,0.38237870000011753,['n'],1.8263270999996166,1.94,1627.1288437000003,,,,,508,18,Woman,Left,
,,,,,,,,,,,,,,,,,508,18,Woman,Left,2,65,0.15,2,0,180,180,0.5247037999979511,['y'],0.7026803999979165,1.6440000000000001,1632.829432100003,,,,,508,18,Woman,Left,
,,,,,,,,,,,,,,,,,508,18,Woman,Left,2,2,1,1,180,-,180,0.2728236000002653,['n'],0.6867278000027,2.0,1637.9286429000022,,,,,508,18,Woman,Left,
,,,,,,,,,,,,,,,,,508,18,Woman,Left,2,45,0.15,2,0,180,0,0.7969488000017009,['n'],0.702689100002317,1.194,1643.2617847000001,,,,,508,18,Woman,Left,
,,,,,,,,,,,,,,,,,508,18,Woman,Left,2,20,0.4,1,0,-,0,0.37460920000012266,['n'],1.0623463000010815,2.0,1648.578669100003,,,,,508,18,Woman,Left,
,,,,,,,,,,,,,,,,,508,18,Woman,Left,2,75,0.15,2,180,0,180,0.7683608000006643,['n'],0.6947580999985803,1.228,1653.6463703000009,,,,,508,18,Woman,Left,
,,,,,,,,,,,,,,,,,508,18,Woman,Left,2,23,0.4,2,180,0,0,0.3610897999969893,['y'],0.9108634000003804,1.78,1659.3130139000023,,,,,508,18,Woman,Left,
,,,,,,,,,,,,,,,,,508,18,Woman,Left,2,19,0.4,2,180,0,0,0.26496509999924456,['y'],0.7585633999988204,1.956,1664.3622504000014,,,,,508,18,Woman,Left,
,,,,,,,,,,,,,,,,,508,18,Woman,Left,2,33,0.4,2,0,180,180,0.1688959999992221,['y'],0.9112133000016911,1.9060000000000001,1669.0800842999997,,,,,508,18,Woman,Left,
,,,,,,,,,,,,,,,,,508,18,Woman,Left,2,53,0.15,2,0,180,180,0.6217089999991003,['n'],0.6869862000021385,1.214,1673.9626611000022,,,,,508,18,Woman,Left,
,,,,,,,,,,,,,,,,,508,18,Woman,Left,2,13,0.4,2,0,180,180,0.2896099999998114,['y'],0.7268426999980875,1.812,1678.9951768000028,,,,,508,18,Woman,Left,
,,,,,,,,,,,,,,,,,508,18,Woman,Left,2,0,1,1,0,-,0,0.2659542999972473,['n'],0.7258708000008482,2.0,1685.061915000002,,,,,508,18,Woman,Left,
,,,,,,,,,,,,,,,,,508,18,Woman,Left,2,38,0.4,1,180,-,180,0.11114900000029593,['n'],0.7027124999985972,2.0,1689.046152400002,,,,,508,18,Woman,Left,
,,,,,,,,,,,,,,,,,508,18,Woman,Left,2,29,0.4,2,0,180,180,0.3908469000016339,['y'],0.7113165000009758,1.808,1693.7625595999998,,,,,508,18,Woman,Left,
,,,,,,,,,,,,,,,,,508,18,Woman,Left,2,73,0.15,2,0,180,0,0.41843400000288966,['n'],0.7431574000002001,1.32,1698.9125002,,,,,508,18,Woman,Left,
,,,,,,,,,,,,,,,,,508,18,Woman,Left,2,8,0.4,1,0,-,0,0.626202799998282,['n'],1.31971859999976,1.728,1705.5964437000002,,,,,508,18,Woman,Left,
,,,,,,,,,,,,,,,,,508,18,Woman,Left,2,41,0.4,2,0,180,180,0.26607549999971525,['y'],0.8791345999998157,2.0,1710.729438800001,,,,,508,18,Woman,Left,
,,,,,,,,,,,,,,,,,508,18,Woman,Left,2,74,0.15,1,180,-,180,0.3716435000023921,['n'],0.7030788999982178,1.716,1715.178445200003,,,,,508,18,Woman,Left,
,,,,,,,,,,,,,,,,,508,18,Woman,Left,3,13,0.4,2,0,180,180,0.32862130000285106,['y'],0.8070268000010401,2.0,1760.8959570000006,88.75,100.0,75.0,,508,18,Woman,Left,
,,,,,,,,,,,,,,,,,508,18,Woman,Left,3,27,0.4,2,180,0,0,0.2863373000000138,['y'],1.1752228999976069,1.91,1766.2460056000018,,,,,508,18,Woman,Left,
,,,,,,,,,,,,,,,,,508,18,Woman,Left,3,76,0.15,1,0,-,180,0.7833436000000802,['n'],0.9116882000016631,1.314,1771.9287304000027,,,,,508,18,Woman,Left,
,,,,,,,,,,,,,,,,,508,18,Woman,Left,3,4,1,1,0,-,0,0.11740049999934854,['n'],1.0157780000008643,2.0,1777.0282045000022,,,,,508,18,Woman,Left,
,,,,,,,,,,,,,,,,,508,18,Woman,Left,3,21,0.4,2,0,180,180,0.33591810000143596,['y'],0.7594472999990103,2.0,1781.361969200003,,,,,508,18,Woman,Left,
,,,,,,,,,,,,,,,,,508,18,Woman,Left,3,10,0.4,1,180,-,180,0.059851699999853736,['n'],0.7757140000030631,1.994,1785.1785344000018,,,,,508,18,Woman,Left,
,,,,,,,,,,,,,,,,,508,18,Woman,Left,3,3,1,2,180,0,0,0.3786940999998478,['y'],0.9280513000012434,2.0,1790.162554300001,,,,,508,18,Woman,Left,
,,,,,,,,,,,,,,,,,508,18,Woman,Left,3,74,0.15,1,180,-,180,0.09234690000084811,['n'],0.7116285000010976,1.994,1794.0131204999998,,,,,508,18,Woman,Left,
,,,,,,,,,,,,,,,,,508,18,Woman,Left,3,55,0.15,2,180,0,0,0.5365523000000394,['y'],0.9111069999999017,1.91,1798.9959364000024,,,,,508,18,Woman,Left,
,,,,,,,,,,,,,,,,,508,18,Woman,Left,3,51,0.15,2,180,0,180,0.45012279999718885,['n'],0.687665500001458,1.8,1803.7281163000007,,,,,508,18,Woman,Left,
,,,,,,,,,,,,,,,,,508,18,Woman,Left,3,46,0.15,1,180,-,180,0.13607950000005076,['n'],1.3277833000029204,1.932,1808.9780836999998,,,,,508,18,Woman,Left,
,,,,,,,,,,,,,,,,,508,18,Woman,Left,3,19,0.4,2,180,0,0,0.6763977999980852,['y'],0.7759241000021575,1.72,1813.9285679000022,,,,,508,18,Woman,Left,
,,,,,,,,,,,,,,,,,508,18,Woman,Left,3,64,0.15,1,0,-,180,0.5168305000006512,['n'],0.8075785000000906,1.24,1818.5955259000002,,,,,508,18,Woman,Left,
,,,,,,,,,,,,,,,,,508,18,Woman,Left,3,20,0.4,1,0,-,0,0.1855262999997649,['n'],0.8155737999986741,1.892,1823.1621782000002,,,,,508,18,Woman,Left,
,,,,,,,,,,,,,,,,,508,18,Woman,Left,3,60,0.15,1,0,-,180,0.5419808000006014,['n'],0.8562577000011515,1.63,1828.2620263999997,,,,,508,18,Woman,Left,
,,,,,,,,,,,,,,,,,508,18,Woman,Left,3,31,0.4,2,180,0,0,0.33613160000095377,['y'],0.7756432000023779,1.916,1832.9457462999999,,,,,508,18,Woman,Left,
,,,,,,,,,,,,,,,,,508,18,Woman,Left,3,15,0.4,2,180,0,0,0.46139059999768506,['y'],0.7205147999993642,1.716,1837.6449600000014,,,,,508,18,Woman,Left,
,,,,,,,,,,,,,,,,,508,18,Woman,Left,3,23,0.4,2,180,0,0,0.43956900000193855,['y'],0.6957294999992882,1.37,1842.9121784000017,,,,,508,18,Woman,Left,
,,,,,,,,,,,,,,,,,508,18,Woman,Left,3,42,0.4,1,180,-,180,0.16544570000041858,['n'],1.2237628000002587,1.716,1847.8951323000001,,,,,508,18,Woman,Left,
,,,,,,,,,,,,,,,,,508,18,Woman,Left,3,77,0.15,2,0,180,0,0.5504769999970449,['n'],0.7522880999968038,1.334,1853.4125166000013,,,,,508,18,Woman,Left,
,,,,,,,,,,,,,,,,,508,18,Woman,Left,3,73,0.15,2,0,180,0,0.8974396000012348,['n'],0.6880801000006613,1.6360000000000001,1858.495244400001,,,,,508,18,Woman,Left,
,,,,,,,,,,,,,,,,,508,18,Woman,Left,3,12,0.4,1,0,-,0,0.14015699999799835,['n'],0.6647091000013461,1.978,1862.9951321000008,,,,,508,18,Woman,Left,
,,,,,,,,,,,,,,,,,508,18,Woman,Left,3,39,0.4,2,180,0,0,0.45039879999967525,['y'],0.7765608999980032,1.552,1868.1954834999997,,,,,508,18,Woman,Left,
,,,,,,,,,,,,,,,,,508,18,Woman,Left,3,66,0.15,1,180,-,180,0.5160357999993721,['n'],0.6802826000021014,1.296,1873.0458350000008,,,,,508,18,Woman,Left,
,,,,,,,,,,,,,,,,,508,18,Woman,Left,3,34,0.4,1,180,-,180,0.1913181000018085,['n'],1.0005952999999863,1.288,1878.3450021000026,,,,,508,18,Woman,Left,
,,,,,,,,,,,,,,,,,508,18,Woman,Left,3,22,0.4,1,180,-,180,0.19332659999781754,['n'],0.9123851000003924,2.0,1883.295567000001,,,,,508,18,Woman,Left,
,,,,,,,,,,,,,,,,,508,18,Woman,Left,3,69,0.15,2,0,180,180,1.7503584000005503,['n'],0.9848391999985324,1.662,1890.4454397000009,,,,,508,18,Woman,Left,
,,,,,,,,,,,,,,,,,508,18,Woman,Left,3,28,0.4,1,0,-,0,0.08702919999996084,['n'],0.7528510000011011,1.952,1895.4279878000016,,,,,508,18,Woman,Left,
,,,,,,,,,,,,,,,,,508,18,Woman,Left,3,72,0.15,1,0,-,0,0.12719780000043102,['n'],0.8569486999986111,1.952,1899.7451830000027,,,,,508,18,Woman,Left,
,,,,,,,,,,,,,,,,,508,18,Woman,Left,3,58,0.15,1,180,-,180,0.17103239999778452,['n'],0.6810165999995661,1.952,1903.6944724000023,,,,,508,18,Woman,Left,
,,,,,,,,,,,,,,,,,508,18,Woman,Left,3,50,0.15,1,180,-,180,0.05490479999934905,['n'],0.7689248000024236,1.694,1908.6120443,,,,,508,18,Woman,Left,
,,,,,,,,,,,,,,,,,508,18,Woman,Left,3,6,1,1,180,-,180,0.2195791999984067,['n'],0.7285848999999871,1.998,1912.9955262000003,,,,,508,18,Woman,Left,
,,,,,,,,,,,,,,,,,508,18,Woman,Left,3,24,0.4,1,0,-,0,0.11289000000033411,['n'],0.705001499998616,2.0,1917.845424500003,,,,,508,18,Woman,Left,
,,,,,,,,,,,,,,,,,508,18,Woman,Left,3,35,0.4,2,180,0,0,0.4337505000003148,['y'],0.9367800999971223,1.588,1922.8287151000004,,,,,508,18,Woman,Left,
,,,,,,,,,,,,,,,,,508,18,Woman,Left,3,56,0.15,1,0,-,0,0.274833800001943,['n'],0.6647311000015179,1.292,1927.0781778000019,,,,,508,18,Woman,Left,
,,,,,,,,,,,,,,,,,508,18,Woman,Left,3,1,1,2,0,180,180,0.32851880000089295,['y'],0.9444898000001558,1.818,1931.9114683000007,,,,,508,18,Woman,Left,
,,,,,,,,,,,,,,,,,508,18,Woman,Left,3,52,0.15,1,0,-,0,0.21370240000032936,['n'],0.9535249000000476,1.608,1936.6946009000021,,,,,508,18,Woman,Left,
,,,,,,,,,,,,,,,,,508,18,Woman,Left,3,29,0.4,2,0,180,180,0.5330752000008943,['y'],0.6752381000005698,1.608,1941.2279424000008,,,,,508,18,Woman,Left,
,,,,,,,,,,,,,,,,,508,18,Woman,Left,3,33,0.4,2,0,180,180,0.3361101999980747,['y'],0.75331290000031,1.926,1946.261176600001,,,,,508,18,Woman,Left,
,,,,,,,,,,,,,,,,,508,18,Woman,Left,3,40,0.4,1,0,-,0,0.4246884999993199,['n'],1.032806499999424,1.85,1951.2781742000006,,,,,508,18,Woman,Left,
,,,,,,,,,,,,,,,,,508,18,Woman,Left,3,32,0.4,1,0,-,0,0.25665079999816953,['n'],1.1131434999988414,1.6,1955.9109822000028,,,,,508,18,Woman,Left,
,,,,,,,,,,,,,,,,,508,18,Woman,Left,3,67,0.15,2,180,0,0,0.3275489000006928,['n'],0.7374782999977469,1.37,1960.211323800002,,,,,508,18,Woman,Left,
,,,,,,,,,,,,,,,,,508,18,Woman,Left,3,9,0.4,2,0,180,180,0.495847700000013,['y'],0.7768154999976105,1.27,1966.4276997000015,,,,,508,18,Woman,Left,
,,,,,,,,,,,,,,,,,508,18,Woman,Left,3,59,0.15,2,180,0,0,0.20314610000059474,['n'],0.7136701999988873,1.27,1970.2278361000026,,,,,508,18,Woman,Left,
,,,,,,,,,,,,,,,,,508,18,Woman,Left,3,75,0.15,2,180,0,180,0.2829729999975825,['n'],0.7613415999985591,1.1179999999999999,1974.8118919000008,,,,,508,18,Woman,Left,
,,,,,,,,,,,,,,,,,508,18,Woman,Left,3,62,0.15,1,180,-,0,0.35285970000040834,['n'],0.7054534000017156,1.13,1979.1947658000026,,,,,508,18,Woman,Left,
,,,,,,,,,,,,,,,,,508,18,Woman,Left,3,36,0.4,1,0,-,0,0.18895770000017365,['n'],1.065611699999863,1.8,1984.2777897000014,,,,,508,18,Woman,Left,
,,,,,,,,,,,,,,,,,508,18,Woman,Left,3,38,0.4,1,180,-,180,0.17997900000045775,['n'],1.5297812999997404,1.888,1989.6953250000006,,,,,508,18,Woman,Left,
,,,,,,,,,,,,,,,,,508,18,Woman,Left,3,14,0.4,1,180,-,180,0.16784439999901224,['n'],1.1448927999990701,1.97,1994.962257500003,,,,,508,18,Woman,Left,
,,,,,,,,,,,,,,,,,508,18,Woman,Left,3,53,0.15,2,0,180,180,0.4246631000023626,['y'],0.7054237999982433,1.32,1999.6778580999999,,,,,508,18,Woman,Left,
,,,,,,,,,,,,,,,,,508,18,Woman,Left,3,49,0.15,2,0,180,0,0.12587690000145813,['n'],0.9533416000012949,1.32,2003.7285923000018,,,,,508,18,Woman,Left,
,,,,,,,,,,,,,,,,,508,18,Woman,Left,3,5,1,2,0,180,180,0.3503568999985873,['y'],0.817727500001638,2.0,2010.0114190000022,,,,,508,18,Woman,Left,
,,,,,,,,,,,,,,,,,508,18,Woman,Left,3,65,0.15,2,0,180,180,0.6154811999986123,['y'],0.7457556999979715,1.06,2015.1776965000026,,,,,508,18,Woman,Left,
,,,,,,,,,,,,,,,,,508,18,Woman,Left,3,26,0.4,1,180,-,180,0.6982833000001847,['n'],0.641995499998302,1.808,2019.9611234000004,,,,,508,18,Woman,Left,
,,,,,,,,,,,,,,,,,508,18,Woman,Left,3,8,0.4,1,0,-,0,0.2757322000034037,['n'],0.7058232999988832,1.808,2024.2112173999994,,,,,508,18,Woman,Left,
,,,,,,,,,,,,,,,,,508,18,Woman,Left,3,17,0.4,2,0,180,180,0.6129966999978933,['y'],1.2331574000018009,1.24,2029.3956343999998,,,,,508,18,Woman,Left,
,,,,,,,,,,,,,,,,,508,18,Woman,Left,3,30,0.4,1,180,-,180,0.307049700000789,['n'],0.8178761999988637,1.92,2034.1607804000014,,,,,508,18,Woman,Left,
,,,,,,,,,,,,,,,,,508,18,Woman,Left,3,37,0.4,2,0,180,180,0.365869000001112,['y'],0.6895609999992303,1.792,2039.2774108000012,,,,,508,18,Woman,Left,
,,,,,,,,,,,,,,,,,508,18,Woman,Left,3,0,1,1,0,-,0,0.29601390000243555,['n'],1.0656585000033374,2.0,2043.9951484000012,,,,,508,18,Woman,Left,
,,,,,,,,,,,,,,,,,508,18,Woman,Left,3,54,0.15,1,180,-,180,0.6194395999991684,['n'],0.5862715000002936,1.612,2048.5775477999996,,,,,508,18,Woman,Left,
,,,,,,,,,,,,,,,,,508,18,Woman,Left,3,61,0.15,2,0,180,180,0.5795457999993232,['y'],0.8336233000009088,1.246,2053.5288145000013,,,,,508,18,Woman,Left,
,,,,,,,,,,,,,,,,,508,18,Woman,Left,3,47,0.15,2,180,0,0,0.27690590000202064,['n'],2.0818352999995113,1.242,2059.110629300001,,,,,508,18,Woman,Left,
,,,,,,,,,,,,,,,,,508,18,Woman,Left,3,7,1,2,180,0,0,0.9328925999980129,['y'],0.9410585000005085,1.888,2064.3941059000026,,,,,508,18,Woman,Left,
,,,,,,,,,,,,,,,,,508,18,Woman,Left,3,70,0.15,1,180,-,180,0.5801467000019329,['n'],0.7144067000008363,1.254,2069.0279247,,,,,508,18,Woman,Left,
,,,,,,,,,,,,,,,,,508,18,Woman,Left,3,18,0.4,1,180,-,180,0.20137679999970715,['n'],0.8581697000008717,1.938,2073.8104730000014,,,,,508,18,Woman,Left,
,,,,,,,,,,,,,,,,,508,18,Woman,Left,3,11,0.4,2,180,0,180,0.7624770999973407,['y'],1.2105468999980076,1.3399999999999999,2079.410560700002,,,,,508,18,Woman,Left,
,,,,,,,,,,,,,,,,,508,18,Woman,Left,3,45,0.15,2,0,180,0,0.33082760000252165,['n'],0.9063005000025441,1.8559999999999999,2084.4943478000023,,,,,508,18,Woman,Left,
,,,,,,,,,,,,,,,,,508,18,Woman,Left,3,63,0.15,2,180,0,0,0.24757369999861112,['n'],0.7305584000023373,1.8559999999999999,2088.4777472999995,,,,,508,18,Woman,Left,
,,,,,,,,,,,,,,,,,508,18,Woman,Left,3,68,0.15,1,0,-,180,0.23855030000049737,['n'],1.9058542999991914,1.5779999999999998,2094.3938657,,,,,508,18,Woman,Left,
,,,,,,,,,,,,,,,,,508,18,Woman,Left,3,48,0.15,1,0,-,0,0.8333539000013843,['n'],0.7947993999987375,1.432,2099.777379700001,,,,,508,18,Woman,Left,
,,,,,,,,,,,,,,,,,508,18,Woman,Left,3,2,1,1,180,-,180,0.4830970000002708,['n'],0.6120677000035357,2.0,2105.2768713000005,,,,,508,18,Woman,Left,
,,,,,,,,,,,,,,,,,508,18,Woman,Left,3,43,0.4,2,180,0,180,0.9421686999994563,['y'],4.3704875000003085,1.84,2114.444778600002,,,,,508,18,Woman,Left,
,,,,,,,,,,,,,,,,,508,18,Woman,Left,3,41,0.4,2,0,180,180,1.3856866999994963,['y'],0.9787916999994195,1.996,2120.4777635000028,,,,,508,18,Woman,Left,
,,,,,,,,,,,,,,,,,508,18,Woman,Left,3,25,0.4,2,0,180,180,0.4192984000001161,['y'],2.210485299998254,1.994,2127.3278831000025,,,,,508,18,Woman,Left,
,,,,,,,,,,,,,,,,,508,18,Woman,Left,3,71,0.15,2,180,0,180,0.8620717000012519,['n'],0.6505069000013464,1.5979999999999999,2132.1958613000024,,,,,508,18,Woman,Left,
,,,,,,,,,,,,,,,,,508,18,Woman,Left,3,78,0.15,1,180,-,180,1.0924661999997625,['n'],0.6821273999994446,1.746,2137.4774067,,,,,508,18,Woman,Left,
,,,,,,,,,,,,,,,,,508,18,Woman,Left,3,44,0.15,1,0,-,0,0.46494669999810867,['n'],0.7146533000013733,1.5899999999999999,2142.262211000001,,,,,508,18,Woman,Left,
,,,,,,,,,,,,,,,,,508,18,Woman,Left,3,79,0.15,2,180,0,0,0.2720551999991585,['n'],0.746852600001148,1.6179999999999999,2146.928028600003,,,,,508,18,Woman,Left,
,,,,,,,,,,,,,,,,,508,18,Woman,Left,3,57,0.15,2,0,180,180,0.5274210999996285,['y'],1.2666984999996203,1.19,2152.4608246000025,,,,,508,18,Woman,Left,
,,,,,,,,,,,,,,,,,508,18,Woman,Left,3,16,0.4,1,0,-,0,0.2980193000003055,['n'],0.6512145999986387,1.776,2156.8611877000003,,,,,508,18,Woman,Left,
,,,,,,,,,,,,,,,,,508,18,Woman,Left,4,37,0.4,2,0,180,180,1.1838776000004145,['y'],0.9467980000008538,2.0,2184.1113552999996,82.5,100.0,67.5,,508,18,Woman,Left,
,,,,,,,,,,,,,,,,,508,18,Woman,Left,4,2,1,1,180,-,180,0.7604367999992974,['n'],1.6508749999993597,2.0,2189.8274821000014,,,,,508,18,Woman,Left,
,,,,,,,,,,,,,,,,,508,18,Woman,Left,4,67,0.15,2,180,0,0,1.9709416999976384,['n'],0.8035261000004539,1.232,2197.3444641999995,,,,,508,18,Woman,Left,
,,,,,,,,,,,,,,,,,508,18,Woman,Left,4,47,0.15,2,180,0,180,1.4652045000002545,['n'],0.9071579999981623,1.436,2202.978104900001,,,,,508,18,Woman,Left,
,,,,,,,,,,,,,,,,,508,18,Woman,Left,4,4,1,1,0,-,0,0.6104862000029243,['n'],0.7230471000002581,1.99,2209.4599734000003,,,,,508,18,Woman,Left,
,,,,,,,,,,,,,,,,,508,18,Woman,Left,4,48,0.15,1,0,-,180,0.2968293000012636,['n'],0.9396324000008462,1.736,2214.143485800003,,,,,508,18,Woman,Left,
,,,,,,,,,,,,,,,,,508,18,Woman,Left,4,9,0.4,2,0,180,180,0.3742519000006723,['y'],0.8033099000022048,1.936,2218.5941754000014,,,,,508,18,Woman,Left,
,,,,,,,,,,,,,,,,,508,18,Woman,Left,4,29,0.4,2,0,180,180,0.33249960000102874,['y'],1.115543500000058,1.8780000000000001,2223.7601316,,,,,508,18,Woman,Left,
,,,,,,,,,,,,,,,,,508,18,Woman,Left,4,56,0.15,1,0,-,0,0.23795590000008815,['n'],0.6991903000016464,1.692,2228.294207900002,,,,,508,18,Woman,Left,
,,,,,,,,,,,,,,,,,508,18,Woman,Left,4,72,0.15,1,0,-,0,0.25783030000093277,['n'],0.8833047000007355,1.854,2232.7440967000002,,,,,508,18,Woman,Left,
,,,,,,,,,,,,,,,,,508,18,Woman,Left,4,51,0.15,2,180,0,180,0.27786229999765055,['n'],0.6592408999968029,1.62,2237.194144000001,,,,,508,18,Woman,Left,
,,,,,,,,,,,,,,,,,508,18,Woman,Left,4,31,0.4,2,180,0,0,0.5658235999981116,['y'],0.834103100001812,1.3980000000000001,2242.0607678000015,,,,,508,18,Woman,Left,
,,,,,,,,,,,,,,,,,508,18,Woman,Left,4,74,0.15,1,180,-,180,0.18453500000032363,['n'],0.7155258000020694,1.986,2246.644373000003,,,,,508,18,Woman,Left,
,,,,,,,,,,,,,,,,,508,18,Woman,Left,4,46,0.15,1,180,-,180,0.08803339999940363,['n'],0.6753131000004942,2.0,2251.277853800002,,,,,508,18,Woman,Left,
,,,,,,,,,,,,,,,,,508,18,Woman,Left,4,41,0.4,2,0,180,180,0.36736150000069756,['y'],0.6680674000017461,2.0,2256.0275124,,,,,508,18,Woman,Left,
,,,,,,,,,,,,,,,,,508,18,Woman,Left,4,38,0.4,1,180,-,0,0.2596136000029219,['n'],0.6673879999980272,1.308,2260.2772936,,,,,508,18,Woman,Left,
,,,,,,,,,,,,,,,,,508,18,Woman,Left,4,26,0.4,1,180,-,180,0.08142740000039339,['n'],0.6835049999972398,1.916,2265.0938294000007,,,,,508,18,Woman,Left,
,,,,,,,,,,,,,,,,,508,18,Woman,Left,4,32,0.4,1,0,-,0,0.8876859999982116,['n'],0.9719354000008025,2.0,2271.0608377000026,,,,,508,18,Woman,Left,
,,,,,,,,,,,,,,,,,508,18,Woman,Left,4,35,0.4,2,180,0,0,0.7137568000034662,['y'],1.3480411999989883,1.77,2277.0434776,,,,,508,18,Woman,Left,
,,,,,,,,,,,,,,,,,508,18,Woman,Left,4,70,0.15,1,180,-,180,0.18732860000091023,['n'],0.724166600000899,1.722,2281.8270158000014,,,,,508,18,Woman,Left,
,,,,,,,,,,,,,,,,,508,18,Woman,Left,4,60,0.15,1,0,-,0,0.10816329999943264,['n'],0.7074493000000075,2.0,2286.1603577000024,,,,,508,18,Woman,Left,
,,,,,,,,,,,,,,,,,508,18,Woman,Left,4,65,0.15,2,0,180,0,0.6639211999972758,['n'],0.7159878999991633,1.388,2291.144244700001,,,,,508,18,Woman,Left,
,,,,,,,,,,,,,,,,,508,18,Woman,Left,4,53,0.15,2,0,180,0,0.46462400000018533,['n'],0.6915877999999793,1.222,2295.4936554000014,,,,,508,18,Woman,Left,
,,,,,,,,,,,,,,,,,508,18,Woman,Left,4,66,0.15,1,180,-,180,0.08960690000094473,['n'],0.8357538999989629,1.938,2299.859478100003,,,,,508,18,Woman,Left,
,,,,,,,,,,,,,,,,,508,18,Woman,Left,4,57,0.15,2,0,180,0,0.7158969000010984,['n'],0.6115744999988237,1.226,2305.1104774000014,,,,,508,18,Woman,Left,
,,,,,,,,,,,,,,,,,508,18,Woman,Left,4,25,0.4,2,0,180,180,0.5202339999996184,['y'],0.9085830000003625,1.6,2310.1764607000005,,,,,508,18,Woman,Left,
,,,,,,,,,,,,,,,,,508,18,Woman,Left,4,14,0.4,1,180,-,180,0.08580989999973099,['n'],0.7561636000027647,1.942,2314.394349800001,,,,,508,18,Woman,Left,
,,,,,,,,,,,,,,,,,508,18,Woman,Left,4,3,1,2,180,0,0,0.724452200000087,['y'],0.7798256000023684,2.0,2320.093670000002,,,,,508,18,Woman,Left,
,,,,,,,,,,,,,,,,,508,18,Woman,Left,4,61,0.15,2,0,180,180,0.40468089999922086,['n'],0.8518136000020604,1.3860000000000001,2324.9600697999995,,,,,508,18,Woman,Left,
,,,,,,,,,,,,,,,,,508,18,Woman,Left,4,1,1,2,0,180,180,0.4797498000007181,['y'],0.9319780000005267,2.0,2331.460311400002,,,,,508,18,Woman,Left,
,,,,,,,,,,,,,,,,,508,18,Woman,Left,4,54,0.15,1,180,-,180,0.21616290000019944,['n'],0.6362908000010066,1.99,2336.8941127,,,,,508,18,Woman,Left,
,,,,,,,,,,,,,,,,,508,18,Woman,Left,4,49,0.15,2,0,180,180,0.089501400001609,['n'],0.7002395000017714,1.99,2341.110190700001,,,,,508,18,Woman,Left,
,,,,,,,,,,,,,,,,,508,18,Woman,Left,4,27,0.4,2,180,0,0,0.8177353999999468,['y'],0.692059100001643,1.822,2346.8440327999997,,,,,508,18,Woman,Left,
,,,,,,,,,,,,,,,,,508,18,Woman,Left,4,24,0.4,1,0,-,0,0.12295689999882597,['n'],0.8366195999988122,1.95,2351.3937398000016,,,,,508,18,Woman,Left,
,,,,,,,,,,,,,,,,,508,18,Woman,Left,4,15,0.4,2,180,0,0,0.6756944000007934,['y'],0.7321498999990581,1.4,2356.843648500002,,,,,508,18,Woman,Left,
,,,,,,,,,,,,,,,,,508,18,Woman,Left,4,19,0.4,2,180,0,0,0.5382451000004949,['y'],0.748956299998099,1.294,2361.6443185000026,,,,,508,18,Woman,Left,
,,,,,,,,,,,,,,,,,508,18,Woman,Left,4,33,0.4,2,0,180,180,1.3890739999988,['y'],0.8281466999978875,1.064,2367.827359900002,,,,,508,18,Woman,Left,
,,,,,,,,,,,,,,,,,508,18,Woman,Left,4,17,0.4,2,0,180,0,1.5612688999972306,['n'],0.7721584999999322,1.312,2375.0275801000025,,,,,508,18,Woman,Left,
,,,,,,,,,,,,,,,,,508,18,Woman,Left,4,11,0.4,2,180,0,180,1.0218860999993922,['n'],0.7490003999992041,1.3359999999999999,2381.1602286000016,,,,,508,18,Woman,Left,
,,,,,,,,,,,,,,,,,508,18,Woman,Left,4,22,0.4,1,180,-,180,0.21163679999881424,['n'],0.6691248999995878,2.0,2385.594029400003,,,,,508,18,Woman,Left,
,,,,,,,,,,,,,,,,,508,18,Woman,Left,4,79,0.15,2,180,0,180,1.146693900001992,['n'],0.5489106999993965,1.794,2390.7437487000025,,,,,508,18,Woman,Left,
,,,,,,,,,,,,,,,,,508,18,Woman,Left,4,75,0.15,2,180,0,180,0.4010826999983692,['n'],0.836538899999141,1.706,2395.7273870999998,,,,,508,18,Woman,Left,
,,,,,,,,,,,,,,,,,508,18,Woman,Left,4,43,0.4,2,180,0,180,0.48642259999905946,['n'],0.7165723999969487,1.854,2400.3769732,,,,,508,18,Woman,Left,
,,,,,,,,,,,,,,,,,508,18,Woman,Left,4,21,0.4,2,0,180,0,0.8501185000022815,['n'],0.6636270999988483,1.184,2405.1095547000004,,,,,508,18,Woman,Left,
,,,,,,,,,,,,,,,,,508,18,Woman,Left,4,40,0.4,1,0,-,0,0.5095596999999543,['n'],1.4046949999974458,1.84,2411.3264807000014,,,,,508,18,Woman,Left,
,,,,,,,,,,,,,,,,,508,18,Woman,Left,4,13,0.4,2,0,180,180,0.6417084000022442,['y'],0.7005052999993495,1.376,2416.209521200002,,,,,508,18,Woman,Left,
,,,,,,,,,,,,,,,,,508,18,Woman,Left,4,23,0.4,2,180,0,180,0.5949768999998923,['n'],0.6608577000006335,1.31,2421.127043800003,,,,,508,18,Woman,Left,
,,,,,,,,,,,,,,,,,508,18,Woman,Left,4,64,0.15,1,0,-,0,0.8488816999997653,['n'],0.6849681999992754,1.1,2426.0271963000014,,,,,508,18,Woman,Left,
,,,,,,,,,,,,,,,,,508,18,Woman,Left,4,16,0.4,1,0,-,0,0.1884238999991794,['n'],2.2449808999990637,1.892,2431.760038800003,,,,,508,18,Woman,Left,
,,,,,,,,,,,,,,,,,508,18,Woman,Left,4,5,1,2,0,180,180,0.6236064999975497,['y'],0.7091656999982661,1.998,2436.6436962000007,,,,,508,18,Woman,Left,
,,,,,,,,,,,,,,,,,508,18,Woman,Left,4,6,1,1,180,-,180,0.2447969999993802,['n'],0.8693681999975524,2.0,2441.1432243000017,,,,,508,18,Woman,Left,
,,,,,,,,,,,,,,,,,508,18,Woman,Left,4,28,0.4,1,0,-,0,0.27944209999986924,['n'],0.6771670000016456,1.99,2445.727171900002,,,,,508,18,Woman,Left,
,,,,,,,,,,,,,,,,,508,18,Woman,Left,4,77,0.15,2,0,180,180,0.5132223000000522,['n'],0.6055879000014102,1.706,2449.9267180000024,,,,,508,18,Woman,Left,
,,,,,,,,,,,,,,,,,508,18,Woman,Left,4,36,0.4,1,0,-,0,0.14526420000038343,['n'],0.653145799999038,1.95,2453.8771627999995,,,,,508,18,Woman,Left,
,,,,,,,,,,,,,,,,,508,18,Woman,Left,4,45,0.15,2,0,180,180,0.5546266000019386,['n'],0.685699100002239,1.1480000000000001,2458.3771562,,,,,508,18,Woman,Left,
,,,,,,,,,,,,,,,,,508,18,Woman,Left,4,62,0.15,1,180,-,180,0.9031093000012334,['n'],1.2212824000016553,1.014,2464.0770851000016,,,,,508,18,Woman,Left,
,,,,,,,,,,,,,,,,,508,18,Woman,Left,4,59,0.15,2,180,0,180,0.3159427999999025,['n'],0.7974378999970213,1.028,2468.210398500003,,,,,508,18,Woman,Left,
,,,,,,,,,,,,,,,,,508,18,Woman,Left,4,0,1,1,0,-,0,0.14107359999979963,['n'],0.7256392999988748,2.0,2473.2104734000022,,,,,508,18,Woman,Left,
,,,,,,,,,,,,,,,,,508,18,Woman,Left,4,44,0.15,1,0,-,0,0.2769300999971165,['n'],0.8377351999988605,1.158,2477.9094471999997,,,,,508,18,Woman,Left,
,,,,,,,,,,,,,,,,,508,18,Woman,Left,4,10,0.4,1,180,-,180,0.10206109999853652,['n'],0.7171845000011672,1.772,2482.3094657,,,,,508,18,Woman,Left,
,,,,,,,,,,,,,,,,,508,18,Woman,Left,4,76,0.15,1,0,-,180,0.1436738999982481,['n'],0.7815141999999469,1.26,2486.5595335,,,,,508,18,Woman,Left,
,,,,,,,,,,,,,,,,,508,18,Woman,Left,4,30,0.4,1,180,-,180,0.01715870000043651,['n'],0.6731761999981245,1.776,2490.893271000001,,,,,508,18,Woman,Left,
,,,,,,,,,,,,,,,,,508,18,Woman,Left,4,58,0.15,1,180,-,0,0.17788719999953173,['n'],1.253536799998983,1.452,2495.9772438,,,,,508,18,Woman,Left,
,,,,,,,,,,,,,,,,,508,18,Woman,Left,4,69,0.15,2,0,180,0,1.0068678999996337,['n'],0.6935267000008025,1.09,2501.193602800002,,,,,508,18,Woman,Left,
,,,,,,,,,,,,,,,,,508,18,Woman,Left,4,78,0.15,1,180,-,180,0.2151159999993979,['n'],0.7098729999997886,1.09,2505.260243500001,,,,,508,18,Woman,Left,
,,,,,,,,,,,,,,,,,508,18,Woman,Left,4,20,0.4,1,0,-,0,0.41995200000019395,['n'],0.693801599998551,1.742,2509.6778629,,,,,508,18,Woman,Left,
,,,,,,,,,,,,,,,,,508,18,Woman,Left,4,12,0.4,1,0,-,0,0.21645730000091135,['n'],0.677783899998758,1.808,2514.1269414000017,,,,,508,18,Woman,Left,
,,,,,,,,,,,,,,,,,508,18,Woman,Left,4,39,0.4,2,180,0,180,0.4322689000000537,['n'],0.6462600000013481,1.334,2518.3262009000027,,,,,508,18,Woman,Left,
,,,,,,,,,,,,,,,,,508,18,Woman,Left,4,8,0.4,1,0,-,0,0.15309160000106203,['n'],0.9181103000009898,1.904,2522.9431713000013,,,,,508,18,Woman,Left,
,,,,,,,,,,,,,,,,,508,18,Woman,Left,4,73,0.15,2,0,180,180,0.10798050000084913,['n'],0.685572599999432,1.932,2527.594014600003,,,,,508,18,Woman,Left,
,,,,,,,,,,,,,,,,,508,18,Woman,Left,4,68,0.15,1,0,-,0,0.08905819999927189,['n'],0.8381340000014461,2.0,2532.3091521000024,,,,,508,18,Woman,Left,
,,,,,,,,,,,,,,,,,508,18,Woman,Left,4,55,0.15,2,180,0,180,0.30532790000142995,['n'],0.8617839999969874,1.71,2536.5596302000013,,,,,508,18,Woman,Left,
,,,,,,,,,,,,,,,,,508,18,Woman,Left,4,34,0.4,1,180,-,180,0.017194699998071883,['n'],0.9087495999992825,1.968,2541.793988700003,,,,,508,18,Woman,Left,
,,,,,,,,,,,,,,,,,508,18,Woman,Left,4,71,0.15,2,180,0,180,0.02931910000188509,['n'],0.9496158999972977,1.832,2546.1273989,,,,,508,18,Woman,Left,
,,,,,,,,,,,,,,,,,508,18,Woman,Left,4,52,0.15,1,0,-,0,0.6812396000023,['n'],0.7258838000016112,1.412,2550.859671800001,,,,,508,18,Woman,Left,
,,,,,,,,,,,,,,,,,508,18,Woman,Left,4,42,0.4,1,180,-,180,0.016064400002505863,['n'],0.7033498999990115,1.9020000000000001,2554.9768903000004,,,,,508,18,Woman,Left,
,,,,,,,,,,,,,,,,,508,18,Woman,Left,4,50,0.15,1,180,-,180,0.1744500999993761,['n'],0.7507503000015276,1.316,2559.626398100001,,,,,508,18,Woman,Left,
,,,,,,,,,,,,,,,,,508,18,Woman,Left,4,63,0.15,2,180,0,180,0.7670633999987331,['n'],0.7817708999973547,1.0979999999999999,2564.342563800001,,,,,508,18,Woman,Left,
,,,,,,,,,,,,,,,,,508,18,Woman,Left,4,7,1,2,180,0,180,0.01666040000054636,['y'],1.9683113000028243,1.8,2570.760114300003,,,,,508,18,Woman,Left,
,,,,,,,,,,,,,,,,,508,18,Woman,Left,4,18,0.4,1,180,-,180,0.118954899997334,['n'],0.7026600999997754,2.0,2575.226645900002,,,,,508,18,Woman,Left,
,,,,,,,,,,,,,,,,,508,18,Woman,Left,5,37,0.4,2,0,180,180,1.0060596999974223,['y'],0.7264276999994763,1.8980000000000001,2595.8598968000006,71.25,100.0,40.0,,508,18,Woman,Left,
,,,,,,,,,,,,,,,,,508,18,Woman,Left,5,54,0.15,1,180,-,0,0.48811990000103833,['y'],1.2782283000015013,1.346,2601.659185800003,,,,,508,18,Woman,Left,
,,,,,,,,,,,,,,,,,508,18,Woman,Left,5,8,0.4,1,0,-,0,0.7824316000005638,['n'],0.7903275999997277,1.738,2606.9266393,,,,,508,18,Woman,Left,
,,,,,,,,,,,,,,,,,508,18,Woman,Left,5,16,0.4,1,0,-,0,0.18477469999925233,['n'],0.9744596999989881,1.752,2611.0265803,,,,,508,18,Woman,Left,
,,,,,,,,,,,,,,,,,508,18,Woman,Left,5,71,0.15,2,180,0,0,1.2438084999994317,['y'],0.8070415000001958,1.168,2616.142493800002,,,,,508,18,Woman,Left,
,,,,,,,,,,,,,,,,,508,18,Woman,Left,5,26,0.4,1,180,-,180,0.24528100000316044,['n'],0.7346586999992724,2.0,2620.758860500002,,,,,508,18,Woman,Left,
,,,,,,,,,,,,,,,,,508,18,Woman,Left,5,30,0.4,1,180,-,180,0.1132620999997016,['n'],0.718648399997619,2.0,2624.4934442000012,,,,,508,18,Woman,Left,
,,,,,,,,,,,,,,,,,508,18,Woman,Left,5,55,0.15,2,180,0,0,0.7298598000015772,['y'],1.2951243999996223,1.686,2629.843386100001,,,,,508,18,Woman,Left,
,,,,,,,,,,,,,,,,,508,18,Woman,Left,5,0,1,1,0,-,0,0.1897675000000163,['n'],0.590615400000388,1.972,2633.960560200001,,,,,508,18,Woman,Left,
,,,,,,,,,,,,,,,,,508,18,Woman,Left,5,12,0.4,1,0,-,0,0.050832400000217604,['n'],0.6550282000025618,2.0,2637.5088195999997,,,,,508,18,Woman,Left,
,,,,,,,,,,,,,,,,,508,18,Woman,Left,5,64,0.15,1,0,-,180,0.6598119999980554,['n'],0.6949806000011449,1.304,2641.7761170000012,,,,,508,18,Woman,Left,
,,,,,,,,,,,,,,,,,508,18,Woman,Left,5,41,0.4,2,0,180,180,0.45175169999856735,['y'],0.5986795999997412,1.658,2645.892891200001,,,,,508,18,Woman,Left,
,,,,,,,,,,,,,,,,,508,18,Woman,Left,5,22,0.4,1,180,-,180,0.2950983999980963,['n'],0.5587390000000596,1.964,2650.076213600001,,,,,508,18,Woman,Left,
,,,,,,,,,,,,,,,,,508,18,Woman,Left,5,68,0.15,1,0,-,0,0.03600090000327327,['n'],0.9913548000004084,1.814,2653.9759739,,,,,508,18,Woman,Left,
,,,,,,,,,,,,,,,,,508,18,Woman,Left,5,29,0.4,2,0,180,180,0.37304840000069817,['y'],0.6710699999966891,1.758,2659.125462400003,,,,,508,18,Woman,Left,
,,,,,,,,,,,,,,,,,508,18,Woman,Left,5,7,1,2,180,0,0,1.0377684999984922,['y'],0.5271178000002692,1.98,2663.658771000002,,,,,508,18,Woman,Left,
,,,,,,,,,,,,,,,,,508,18,Woman,Left,5,23,0.4,2,180,0,0,0.40059110000220244,['y'],0.7828719999997702,1.252,2668.509921300003,,,,,508,18,Woman,Left,
,,,,,,,,,,,,,,,,,508,18,Woman,Left,5,15,0.4,2,180,0,0,0.5929078999979538,['y'],0.7755288999978802,1.3820000000000001,2672.7927512999995,,,,,508,18,Woman,Left,
,,,,,,,,,,,,,,,,,508,18,Woman,Left,5,77,0.15,2,0,180,0,0.5530537999984517,['n'],0.55958290000126,1.42,2676.792592500002,,,,,508,18,Woman,Left,
,,,,,,,,,,,,,,,,,508,18,Woman,Left,5,56,0.15,1,0,-,0,0.3462178000008862,['n'],0.6236343000018678,1.3980000000000001,2680.5085418000017,,,,,508,18,Woman,Left,
,,,,,,,,,,,,,,,,,508,18,Woman,Left,5,21,0.4,2,0,180,180,0.5186576999985846,['y'],1.6709628999997221,1.1520000000000001,2686.0591636999998,,,,,508,18,Woman,Left,
,,,,,,,,,,,,,,,,,508,18,Woman,Left,5,2,1,1,180,-,180,0.10758279999936349,['n'],0.742771699999139,2.0,2689.8593875000006,,,,,508,18,Woman,Left,
,,,,,,,,,,,,,,,,,508,18,Woman,Left,5,24,0.4,1,0,-,0,0.062283799998112954,['n'],0.7755773000026238,1.978,2693.5422880000006,,,,,508,18,Woman,Left,
,,,,,,,,,,,,,,,,,508,18,Woman,Left,5,53,0.15,2,0,180,0,0.17053300000043237,['n'],1.0392013999990013,1.736,2697.608941800001,,,,,508,18,Woman,Left,
,,,,,,,,,,,,,,,,,508,18,Woman,Left,5,63,0.15,2,180,0,0,0.5614520000017365,['n'],0.7438130000009551,1.3860000000000001,2701.4757769000025,,,,,508,18,Woman,Left,
,,,,,,,,,,,,,,,,,508,18,Woman,Left,5,65,0.15,2,0,180,0,0.6672407000005478,['n'],0.5590013999972143,1.422,2705.3759124999997,,,,,508,18,Woman,Left,
,,,,,,,,,,,,,,,,,508,18,Woman,Left,5,36,0.4,1,0,-,0,0.0502968000000692,['n'],1.3832344000002195,1.982,2709.7753142,,,,,508,18,Woman,Left,
,,,,,,,,,,,,,,,,,508,18,Woman,Left,5,32,0.4,1,0,-,0,0.11048800000207848,['n'],1.007548700003099,1.874,2713.776276300003,,,,,508,18,Woman,Left,
,,,,,,,,,,,,,,,,,508,18,Woman,Left,5,66,0.15,1,180,-,0,0.3621802000016032,['n'],0.7758752000008826,1.874,2717.492753900002,,,,,508,18,Woman,Left,
,,,,,,,,,,,,,,,,,508,18,Woman,Left,5,58,0.15,1,180,-,180,0.26278479999746196,['n'],0.8001562999997986,1.5819999999999999,2721.2439949,,,,,508,18,Woman,Left,
,,,,,,,,,,,,,,,,,508,18,Woman,Left,5,34,0.4,1,180,-,180,0.34913329999835696,['n'],0.5792105000000447,1.718,2724.8422213000013,,,,,508,18,Woman,Left,
,,,,,,,,,,,,,,,,,508,18,Woman,Left,5,52,0.15,1,0,-,0,0.24212279999846942,['n'],0.8080033999976877,1.716,2728.408788500001,,,,,508,18,Woman,Left,
,,,,,,,,,,,,,,,,,508,18,Woman,Left,5,60,0.15,1,0,-,0,0.14728850000028615,['n'],0.6958991999999853,1.968,2732.092974700001,,,,,508,18,Woman,Left,
,,,,,,,,,,,,,,,,,508,18,Woman,Left,5,69,0.15,2,0,180,180,0.2082412000017939,['n'],1.8559358999991673,1.8559999999999999,2736.6925513999995,,,,,508,18,Woman,Left,
,,,,,,,,,,,,,,,,,508,18,Woman,Left,5,49,0.15,2,0,180,0,0.14247009999962756,['y'],1.232075599997188,1.362,2741.2428664,,,,,508,18,Woman,Left,
,,,,,,,,,,,,,,,,,508,18,Woman,Left,5,47,0.15,2,180,0,180,0.9460970000000088,['n'],0.583550399998785,1.358,2745.3260415000004,,,,,508,18,Woman,Left,
,,,,,,,,,,,,,,,,,508,18,Woman,Left,5,40,0.4,1,0,-,0,0.09490820000064559,['n'],0.7113844999985304,1.838,2748.6600442000017,,,,,508,18,Woman,Left,
,,,,,,,,,,,,,,,,,508,18,Woman,Left,5,3,1,2,180,0,0,0.4469384000003629,['y'],0.6561814000015147,1.85,2752.908663600003,,,,,508,18,Woman,Left,
,,,,,,,,,,,,,,,,,508,18,Woman,Left,5,1,1,2,0,180,180,0.38301080000019283,['y'],0.6154052999991109,1.998,2757.0432751000008,,,,,508,18,Woman,Left,
,,,,,,,,,,,,,,,,,508,18,Woman,Left,5,74,0.15,1,180,-,180,0.413748899998609,['n'],0.6240468000032706,1.37,2760.8088518000004,,,,,508,18,Woman,Left,
,,,,,,,,,,,,,,,,,508,18,Woman,Left,5,13,0.4,2,0,180,180,0.27565640000102576,['y'],0.7198719000007259,1.7,2764.4090256000018,,,,,508,18,Woman,Left,
,,,,,,,,,,,,,,,,,508,18,Woman,Left,5,61,0.15,2,0,180,0,0.8895413999998709,['n'],0.512397400001646,1.282,2768.3086911000028,,,,,508,18,Woman,Left,
,,,,,,,,,,,,,,,,,508,18,Woman,Left,5,19,0.4,2,180,0,0,0.690239700001257,['n'],0.7916912999971828,1.346,2772.2757476000006,,,,,508,18,Woman,Left,
,,,,,,,,,,,,,,,,,508,18,Woman,Left,5,57,0.15,2,0,180,0,0.2703246000019135,['n'],0.5843101999998908,1.874,2775.5419397000005,,,,,508,18,Woman,Left,
,,,,,,,,,,,,,,,,,508,18,Woman,Left,5,14,0.4,1,180,-,180,0.19106169999940903,['n'],0.6638593999996374,1.996,2778.9595249000013,,,,,508,18,Woman,Left,
,,,,,,,,,,,,,,,,,508,18,Woman,Left,5,45,0.15,2,0,180,0,0.22953400000187685,['n'],0.872396499999013,1.83,2782.5417713000024,,,,,508,18,Woman,Left,
,,,,,,,,,,,,,,,,,508,18,Woman,Left,5,39,0.4,2,180,0,0,1.0305731000007654,['y'],0.7201707000021997,1.6600000000000001,2786.942339100002,,,,,508,18,Woman,Left,
,,,,,,,,,,,,,,,,,508,18,Woman,Left,5,46,0.15,1,180,-,180,0.11474789999920176,['n'],0.5444128999988607,1.9020000000000001,2790.242350200002,,,,,508,18,Woman,Left,
,,,,,,,,,,,,,,,,,508,18,Woman,Left,5,72,0.15,1,0,-,0,0.20253430000229855,['n'],0.6162783999970998,1.928,2793.5583884000007,,,,,508,18,Woman,Left,
,,,,,,,,,,,,,,,,,508,18,Woman,Left,5,28,0.4,1,0,-,0,0.0170016999982181,['n'],0.7090414999984205,1.866,2796.6927875,,,,,508,18,Woman,Left,
,,,,,,,,,,,,,,,,,508,18,Woman,Left,5,51,0.15,2,180,0,180,0.38293780000094557,['n'],0.7282132000000274,1.6400000000000001,2801.2087455,,,,,508,18,Woman,Left,
,,,,,,,,,,,,,,,,,508,18,Woman,Left,5,20,0.4,1,0,-,0,0.06260190000102739,['n'],0.5996387000013783,2.0,2804.842859200002,,,,,508,18,Woman,Left,
,,,,,,,,,,,,,,,,,508,18,Woman,Left,5,48,0.15,1,0,-,180,0.6028093000022636,['n'],0.6642339000027278,1.442,2808.608897000002,,,,,508,18,Woman,Left,
,,,,,,,,,,,,,,,,,508,18,Woman,Left,5,25,0.4,2,0,180,180,0.12513319999925443,['n'],0.6240866999978607,1.904,2811.758399100003,,,,,508,18,Woman,Left,
,,,,,,,,,,,,,,,,,508,18,Woman,Left,5,4,1,1,0,-,180,0.6153040999997756,['n'],0.37601490000088234,1.974,2815.6762697000013,,,,,508,18,Woman,Left,
,,,,,,,,,,,,,,,,,508,18,Woman,Left,5,38,0.4,1,180,-,180,0.16942950000156998,['n'],0.6643855000002077,2.0,2819.2761083000005,,,,,508,18,Woman,Left,
,,,,,,,,,,,,,,,,,508,18,Woman,Left,5,79,0.15,2,180,0,180,0.6395816000003833,['n'],1.4001630999991903,1.808,2824.0255905000013,,,,,508,18,Woman,Left,
,,,,,,,,,,,,,,,,,508,18,Woman,Left,5,62,0.15,1,180,-,180,0.8689464999988559,['n'],0.6483159000017622,1.916,2828.2582758000026,,,,,508,18,Woman,Left,
,,,,,,,,,,,,,,,,,508,18,Woman,Left,5,6,1,1,180,-,180,0.5310315000024275,['n'],0.5044773999979952,1.998,2832.358991500001,,,,,508,18,Woman,Left,
,,,,,,,,,,,,,,,,,508,18,Woman,Left,5,76,0.15,1,0,-,0,0.46003639999980805,['n'],0.6003510000009555,2.0,2836.8414981999995,,,,,508,18,Woman,Left,
,,,,,,,,,,,,,,,,,508,18,Woman,Left,5,5,1,2,0,180,180,0.7358142999983102,['y'],0.9603864999990037,1.954,2841.6259919000004,,,,,508,18,Woman,Left,
,,,,,,,,,,,,,,,,,508,18,Woman,Left,5,33,0.4,2,0,180,180,0.5661868999995932,['y'],0.6694170999980997,1.9,2845.458526000002,,,,,508,18,Woman,Left,
,,,,,,,,,,,,,,,,,508,18,Woman,Left,5,78,0.15,1,180,-,180,0.6249833999972907,['n'],0.49683059999733814,1.404,2849.4253124000024,,,,,508,18,Woman,Left,
,,,,,,,,,,,,,,,,,508,18,Woman,Left,5,50,0.15,1,180,-,180,0.8270331999992777,['n'],0.6323972999998659,1.8519999999999999,2853.391517600001,,,,,508,18,Woman,Left,
,,,,,,,,,,,,,,,,,508,18,Woman,Left,5,43,0.4,2,180,0,0,0.4769555999992008,['y'],0.7125267999981588,1.434,2857.0258248000027,,,,,508,18,Woman,Left,
,,,,,,,,,,,,,,,,,508,18,Woman,Left,5,35,0.4,2,180,0,0,0.3685627000013483,['y'],0.6325555000003078,1.304,2860.791742100002,,,,,508,18,Woman,Left,
,,,,,,,,,,,,,,,,,508,18,Woman,Left,5,18,0.4,1,180,-,180,0.1552929999998014,['n'],0.7364490999971167,1.8599999999999999,2864.1581624000028,,,,,508,18,Woman,Left,
,,,,,,,,,,,,,,,,,508,18,Woman,Left,5,17,0.4,2,0,180,180,0.4070853999983228,['y'],0.6325883999998041,1.172,2867.6923072000027,,,,,508,18,Woman,Left,
,,,,,,,,,,,,,,,,,508,18,Woman,Left,5,10,0.4,1,180,-,180,0.19693239999833168,['n'],0.6089648999986821,2.0,2871.2258758000025,,,,,508,18,Woman,Left,
,,,,,,,,,,,,,,,,,508,18,Woman,Left,5,31,0.4,2,180,0,0,0.3650534999978845,['y'],1.2247535999995307,1.3980000000000001,2875.7414307,,,,,508,18,Woman,Left,
,,,,,,,,,,,,,,,,,508,18,Woman,Left,5,42,0.4,1,180,-,180,0.10446130000127596,['n'],0.7926807000003464,1.888,2879.3244158000016,,,,,508,18,Woman,Left,
,,,,,,,,,,,,,,,,,508,18,Woman,Left,5,67,0.15,2,180,0,0,0.5205270999977074,['y'],0.8168388000012783,1.376,2883.308802900003,,,,,508,18,Woman,Left,
,,,,,,,,,,,,,,,,,508,18,Woman,Left,5,59,0.15,2,180,0,0,0.36673940000036964,['n'],0.7775316000006569,1.38,2887.0426168000013,,,,,508,18,Woman,Left,
,,,,,,,,,,,,,,,,,508,18,Woman,Left,5,9,0.4,2,0,180,0,0.9548271999992721,['n'],1.7771381999991718,1.4100000000000001,2892.7254487000027,,,,,508,18,Woman,Left,
,,,,,,,,,,,,,,,,,508,18,Woman,Left,5,75,0.15,2,180,0,180,0.6624772000031953,['n'],0.6489958000020124,1.928,2896.5917396000004,,,,,508,18,Woman,Left,
,,,,,,,,,,,,,,,,,508,18,Woman,Left,5,70,0.15,1,180,-,180,0.22929669999939506,['n'],0.7125532999998541,1.846,2900.4590468000024,,,,,508,18,Woman,Left,
,,,,,,,,,,,,,,,,,508,18,Woman,Left,5,73,0.15,2,0,180,0,0.9317770000016026,['n'],0.3764846000012767,1.3439999999999999,2904.2424089000015,,,,,508,18,Woman,Left,
,,,,,,,,,,,,,,,,,508,18,Woman,Left,5,27,0.4,2,180,0,0,0.4122817000024952,['y'],0.6573119000022416,1.162,2907.842111500002,,,,,508,18,Woman,Left,
,,,,,,,,,,,,,,,,,508,18,Woman,Left,5,11,0.4,2,180,0,180,0.5827367999991111,['y'],2.0968768000020646,1.698,2913.3759341000004,,,,,508,18,Woman,Left,
,,,,,,,,,,,,,,,,,508,18,Woman,Left,5,44,0.15,1,0,-,180,0.18173279999973602,['n'],0.6572621000013896,1.77,2916.825611700002,,,,,508,18,Woman,Left,
,,,,,,,,,,,,,,,,,,,,,,,,,,,,,,,,,75.0,97.5,57.5,2645.0060902000005,,,,,
