p_block,p_section,p_coherence,p_direction1,p_direction2,p_direction_response,p_direction_RT,p_change_response,p_change_RT,p_confidence,p_full_correct,p_without5_correct,p_full_total,p_without5_total,p_full_avg,p_witout5_avg,p_total_time,sub,age,sex,handedness,loop,trial randomization,coherence,condition,direction1,direction2,direction_response,direction_RT,change_response,change_RT,change_confidence,change_confidence_RT,block_direction_avg,block_stable_avg,block_change_avg,total_time,sub,age,sex,handedness,
1,1,1.0,0,-,0,3.1684624000000667,-,-,-,,,,,,,,1000,20,Woman,Right,,,,,,,,,,,,,,,,,1000,20,Woman,Right,
1,1,1.0,180,-,180,0.27633609999998043,-,-,-,,,,,,,,1000,20,Woman,Right,,,,,,,,,,,,,,,,,1000,20,Woman,Right,
1,1,1.0,0,-,0,0.01742880000006153,-,-,-,,,,,,,,1000,20,Woman,Right,,,,,,,,,,,,,,,,,1000,20,Woman,Right,
1,1,1.0,180,-,180,0.01678689999994276,-,-,-,,,,,,,,1000,20,Woman,Right,,,,,,,,,,,,,,,,,1000,20,Woman,Right,
1,1,1.0,180,-,180,0.01685670000006212,-,-,-,,,,,,,,1000,20,Woman,Right,,,,,,,,,,,,,,,,,1000,20,Woman,Right,
1,1,1.0,180,-,180,0.016954400000031455,-,-,-,,,,,,,,1000,20,Woman,Right,,,,,,,,,,,,,,,,,1000,20,Woman,Right,
1,1,1.0,0,-,0,2.5214774999999463,-,-,-,,,,,,,,1000,20,Woman,Right,,,,,,,,,,,,,,,,,1000,20,Woman,Right,
1,1,1.0,180,-,180,0.07843880000007175,-,-,-,,,,,,,,1000,20,Woman,Right,,,,,,,,,,,,,,,,,1000,20,Woman,Right,
1,1,1.0,180,-,180,0.08621440000001712,-,-,-,,,,,,,,1000,20,Woman,Right,,,,,,,,,,,,,,,,,1000,20,Woman,Right,
1,1,1.0,180,-,180,0.7968455999999833,-,-,-,10,10,10,10,1.0,1.0,,1000,20,Woman,Right,,,,,,,,,,,,,,,,,1000,20,Woman,Right,
2,1,0.15,180,-,180,2.094512300000133,-,-,-,,,,,,,,1000,20,Woman,Right,,,,,,,,,,,,,,,,,1000,20,Woman,Right,
2,1,0.4,0,-,0,0.3650943999998617,-,-,-,,,,,,,,1000,20,Woman,Right,,,,,,,,,,,,,,,,,1000,20,Woman,Right,
2,1,0.4,0,-,0,0.49984989999984464,-,-,-,,,,,,,,1000,20,Woman,Right,,,,,,,,,,,,,,,,,1000,20,Woman,Right,
2,1,0.4,0,-,0,0.5096741999998358,-,-,-,,,,,,,,1000,20,Woman,Right,,,,,,,,,,,,,,,,,1000,20,Woman,Right,
2,1,0.15,180,-,180,1.0601343000000725,-,-,-,,,,,,,,1000,20,Woman,Right,,,,,,,,,,,,,,,,,1000,20,Woman,Right,
2,1,0.15,180,-,180,0.580690499999946,-,-,-,,,,,,,,1000,20,Woman,Right,,,,,,,,,,,,,,,,,1000,20,Woman,Right,
2,1,0.4,180,-,180,0.3204514999999901,-,-,-,,,,,,,,1000,20,Woman,Right,,,,,,,,,,,,,,,,,1000,20,Woman,Right,
2,1,0.4,0,-,0,0.36660809999989397,-,-,-,,,,,,,,1000,20,Woman,Right,,,,,,,,,,,,,,,,,1000,20,Woman,Right,
2,1,0.4,180,-,180,0.2747687999999471,-,-,-,,,,,,,,1000,20,Woman,Right,,,,,,,,,,,,,,,,,1000,20,Woman,Right,
2,1,0.4,180,-,180,0.2669417000001886,-,-,-,10,7,10,7,1.0,1.0,,1000,20,Woman,Right,,,,,,,,,,,,,,,,,1000,20,Woman,Right,
3,2,1.0,180,0,0,0.9837243000001763,['y'],3.6509091999998873,2.0,,,,,,,,1000,20,Woman,Right,,,,,,,,,,,,,,,,,1000,20,Woman,Right,
3,2,1.0,180,0,0,1.0093778000000384,['y'],1.9463121000001138,2.0,,,,,,,,1000,20,Woman,Right,,,,,,,,,,,,,,,,,1000,20,Woman,Right,
3,2,1.0,180,0,0,0.8573822999999265,['y'],0.8409610000001067,2.0,,,,,,,,1000,20,Woman,Right,,,,,,,,,,,,,,,,,1000,20,Woman,Right,
3,2,1.0,180,0,0,0.8441179999999804,['y'],1.2855430000001888,2.0,,,,,,,,1000,20,Woman,Right,,,,,,,,,,,,,,,,,1000,20,Woman,Right,
3,2,1.0,180,0,0,0.6672263999998904,['y'],1.9916137000000163,2.0,,,,,,,,1000,20,Woman,Right,,,,,,,,,,,,,,,,,1000,20,Woman,Right,
3,2,1.0,180,0,0,0.6055360999998811,['y'],1.42390730000011,2.0,,,,,,,,1000,20,Woman,Right,,,,,,,,,,,,,,,,,1000,20,Woman,Right,
3,2,1.0,180,0,0,0.8846605000001091,['y'],2.803590799999938,2.0,,,,,,,,1000,20,Woman,Right,,,,,,,,,,,,,,,,,1000,20,Woman,Right,
3,2,1.0,180,0,0,0.8105520999999953,['y'],4.468683499999997,2.0,,,,,,,,1000,20,Woman,Right,,,,,,,,,,,,,,,,,1000,20,Woman,Right,
3,2,1.0,0,180,180,1.4481258999999227,['y'],1.6727699000000484,2.0,,,,,,,,1000,20,Woman,Right,,,,,,,,,,,,,,,,,1000,20,Woman,Right,
3,2,1.0,0,180,180,0.6649148000001333,['y'],0.7681824999999662,2.0,10,10,10,10,1.0,1.0,,1000,20,Woman,Right,,,,,,,,,,,,,,,,,1000,20,Woman,Right,
4,2,0.15,180,0,0,1.7503538999999364,['n'],3.0577239000001555,1.0,,,,,,,,1000,20,Woman,Right,,,,,,,,,,,,,,,,,1000,20,Woman,Right,
4,2,0.15,0,180,180,3.017370999999912,['n'],1.5468721999998252,1.086,,,,,,,,1000,20,Woman,Right,,,,,,,,,,,,,,,,,1000,20,Woman,Right,
4,2,0.15,180,0,0,2.360756300000048,['y'],3.2375888999999916,1.0,,,,,,,,1000,20,Woman,Right,,,,,,,,,,,,,,,,,1000,20,Woman,Right,
4,2,0.4,0,180,180,1.356781299999966,['y'],0.5209707999999864,2.0,,,,,,,,1000,20,Woman,Right,,,,,,,,,,,,,,,,,1000,20,Woman,Right,
4,2,0.4,0,180,180,0.9548115000000053,['y'],0.9173568000001069,2.0,,,,,,,,1000,20,Woman,Right,,,,,,,,,,,,,,,,,1000,20,Woman,Right,
4,2,0.4,0,180,180,1.1108675999998923,['y'],0.8209047999998802,2.0,,,,,,,,1000,20,Woman,Right,,,,,,,,,,,,,,,,,1000,20,Woman,Right,
4,2,0.15,180,0,180,3.316751199999999,['y'],1.333729600000197,1.0,,,,,,,,1000,20,Woman,Right,,,,,,,,,,,,,,,,,1000,20,Woman,Right,
4,2,0.4,180,0,0,1.570256400000062,['y'],0.42922109999994973,2.0,,,,,,,,1000,20,Woman,Right,,,,,,,,,,,,,,,,,1000,20,Woman,Right,
4,2,0.15,180,0,180,4.403034299999945,['y'],1.5010559000002104,1.346,,,,,,,,1000,20,Woman,Right,,,,,,,,,,,,,,,,,1000,20,Woman,Right,
4,2,0.15,0,180,180,1.1702197999998134,['y'],1.1895847000000686,1.766,8,4,10,4,0.8,1.0,,1000,20,Woman,Right,,,,,,,,,,,,,,,,,1000,20,Woman,Right,
5,3,0.4,180,0,0,1.270688299999847,['y'],1.5740653000000293,2.0,,,,,,,,1000,20,Woman,Right,,,,,,,,,,,,,,,,,1000,20,Woman,Right,
5,3,0.4,180,0,0,0.5860289000002012,['y'],1.6040479999999206,2.0,,,,,,,,1000,20,Woman,Right,,,,,,,,,,,,,,,,,1000,20,Woman,Right,
5,3,1.0,180,0,0,0.6072952999998051,['y'],1.0182720999998764,2.0,,,,,,,,1000,20,Woman,Right,,,,,,,,,,,,,,,,,1000,20,Woman,Right,
5,3,1.0,180,0,0,0.8768767999999909,['y'],1.1565762999998697,2.0,,,,,,,,1000,20,Woman,Right,,,,,,,,,,,,,,,,,1000,20,Woman,Right,
5,3,0.4,180,0,0,1.1203421999998682,['y'],1.006182699999954,1.38,,,,,,,,1000,20,Woman,Right,,,,,,,,,,,,,,,,,1000,20,Woman,Right,
5,3,1.0,0,180,180,0.8123316999999588,['y'],2.1979867000000013,2.0,,,,,,,,1000,20,Woman,Right,,,,,,,,,,,,,,,,,1000,20,Woman,Right,
5,3,1.0,180,0,0,0.5137812999998914,['y'],1.216035599999941,2.0,,,,,,,,1000,20,Woman,Right,,,,,,,,,,,,,,,,,1000,20,Woman,Right,
5,3,1.0,0,180,180,0.40858609999986584,['y'],1.2025284999999712,2.0,,,,,,,,1000,20,Woman,Right,,,,,,,,,,,,,,,,,1000,20,Woman,Right,
5,3,0.4,0,180,180,2.0660225999999966,['y'],0.7035306000000219,1.6440000000000001,,,,,,,,1000,20,Woman,Right,,,,,,,,,,,,,,,,,1000,20,Woman,Right,
5,3,1.0,180,0,0,0.4833619999999428,['y'],1.16941329999986,1.912,10,10,10,10,1.0,1.0,,1000,20,Woman,Right,,,,,,,,,,,,,,,,,1000,20,Woman,Right,
,,,,,,,,,,,,,,,,7.000000096013537e-06,1000,20,Woman,Right,,,,,,,,,,,,,,,,,1000,20,Woman,Right,
,,,,,,,,,,,,,,,,,1000,20,Woman,Right,0,51,0.15,2,180,0,180,3.362961300000052,['y'],2.5026900999998816,1.058,350.48196310000003,,,,,1000,20,Woman,Right,
,,,,,,,,,,,,,,,,,1000,20,Woman,Right,0,79,0.15,2,180,0,180,3.030928299999914,['y'],2.734335099999953,1.0,360.1986207,,,,,1000,20,Woman,Right,
,,,,,,,,,,,,,,,,,1000,20,Woman,Right,0,17,0.4,2,0,180,180,0.7110131999997975,['y'],1.342375899999979,1.694,365.79858609999997,,,,,1000,20,Woman,Right,
,,,,,,,,,,,,,,,,,1000,20,Woman,Right,0,22,0.4,1,180,-,0,0.9526938000001337,['y'],1.870678599999792,1.1320000000000001,372.7822463,,,,,1000,20,Woman,Right,
,,,,,,,,,,,,,,,,,1000,20,Woman,Right,0,41,0.4,2,0,180,180,0.588610000000017,['y'],1.3507067000000461,1.846,378.3483928999999,,,,,1000,20,Woman,Right,
,,,,,,,,,,,,,,,,,1000,20,Woman,Right,0,39,0.4,2,180,0,0,0.7351352999999108,['y'],1.790791800000079,1.738,384.33162160000006,,,,,1000,20,Woman,Right,
,,,,,,,,,,,,,,,,,1000,20,Woman,Right,0,49,0.15,2,0,180,180,5.256999200000109,['y'],1.8222439999999551,1.13,395.5149131999999,,,,,1000,20,Woman,Right,
,,,,,,,,,,,,,,,,,1000,20,Woman,Right,0,5,1,2,0,180,180,0.46394359999999324,['y'],1.4548368999999184,2.0,400.23170630000004,,,,,1000,20,Woman,Right,
,,,,,,,,,,,,,,,,,1000,20,Woman,Right,0,62,0.15,1,180,-,180,3.95299510000018,['y'],2.4944646999999804,1.0,410.6148697000001,,,,,1000,20,Woman,Right,
,,,,,,,,,,,,,,,,,1000,20,Woman,Right,0,55,0.15,2,180,0,180,2.8896314999999504,['y'],2.9908735999999863,1.0,419.88232990000006,,,,,1000,20,Woman,Right,
,,,,,,,,,,,,,,,,,1000,20,Woman,Right,0,31,0.4,2,180,0,0,0.8770861999998942,['y'],2.262379600000031,1.0,426.01473020000003,,,,,1000,20,Woman,Right,
,,,,,,,,,,,,,,,,,1000,20,Woman,Right,0,6,1,1,180,-,180,0.9183700000000954,['n'],1.2145191000001887,2.0,431.731581,,,,,1000,20,Woman,Right,
,,,,,,,,,,,,,,,,,1000,20,Woman,Right,0,42,0.4,1,180,-,180,2.9436380999998164,['n'],1.4786774000001515,1.0,439.2479401999999,,,,,1000,20,Woman,Right,
,,,,,,,,,,,,,,,,,1000,20,Woman,Right,0,13,0.4,2,0,180,180,0.9290200000000368,['y'],1.4545680999999604,1.796,445.1314767000001,,,,,1000,20,Woman,Right,
,,,,,,,,,,,,,,,,,1000,20,Woman,Right,0,9,0.4,2,0,180,180,0.5117700000000696,['y'],2.510624599999801,1.858,451.3478496,,,,,1000,20,Woman,Right,
,,,,,,,,,,,,,,,,,1000,20,Woman,Right,0,70,0.15,1,180,-,0,2.0399861999999302,['y'],1.5504730000000109,1.16,458.1812543000001,,,,,1000,20,Woman,Right,
,,,,,,,,,,,,,,,,,1000,20,Woman,Right,0,30,0.4,1,180,-,180,0.8933084000000235,['n'],1.254539399999885,1.228,463.3649329,,,,,1000,20,Woman,Right,
,,,,,,,,,,,,,,,,,1000,20,Woman,Right,0,28,0.4,1,0,-,0,1.3267947999997887,['n'],1.1984535999999935,1.162,469.4146174,,,,,1000,20,Woman,Right,
,,,,,,,,,,,,,,,,,1000,20,Woman,Right,0,53,0.15,2,0,180,180,0.7469931999999062,['y'],1.47026169999981,1.162,475.4812369000001,,,,,1000,20,Woman,Right,
,,,,,,,,,,,,,,,,,1000,20,Woman,Right,0,29,0.4,2,0,180,180,0.5836415999999645,['y'],0.9660655000000133,1.462,482.5977422000001,,,,,1000,20,Woman,Right,
,,,,,,,,,,,,,,,,,1000,20,Woman,Right,0,2,1,1,180,-,180,0.9845698999999968,['n'],0.9427734000000783,2.0,487.83099390000007,,,,,1000,20,Woman,Right,
,,,,,,,,,,,,,,,,,1000,20,Woman,Right,0,11,0.4,2,180,0,0,0.49390189999985523,['y'],1.1746338999998898,1.862,493.7144585000001,,,,,1000,20,Woman,Right,
,,,,,,,,,,,,,,,,,1000,20,Woman,Right,0,64,0.15,1,0,-,180,1.452764200000047,['y'],1.0625396000000364,1.088,499.46433189999993,,,,,1000,20,Woman,Right,
,,,,,,,,,,,,,,,,,1000,20,Woman,Right,0,35,0.4,2,180,0,0,0.432031600000073,['y'],1.1505559000001995,1.5859999999999999,505.16460570000004,,,,,1000,20,Woman,Right,
,,,,,,,,,,,,,,,,,1000,20,Woman,Right,0,38,0.4,1,180,-,0,0.5666694999999891,['y'],1.0660275000000183,1.596,509.9809458,,,,,1000,20,Woman,Right,
,,,,,,,,,,,,,,,,,1000,20,Woman,Right,0,18,0.4,1,180,-,180,2.225483899999972,['n'],3.0385495000000446,1.0,517.9147482000001,,,,,1000,20,Woman,Right,
,,,,,,,,,,,,,,,,,1000,20,Woman,Right,0,57,0.15,2,0,180,0,1.7037334000001465,['n'],1.534684499999912,1.0,524.3145511,,,,,1000,20,Woman,Right,
,,,,,,,,,,,,,,,,,1000,20,Woman,Right,0,77,0.15,2,0,180,0,4.456613800000014,['y'],4.038789800000131,1.0,536.5809022999999,,,,,1000,20,Woman,Right,
,,,,,,,,,,,,,,,,,1000,20,Woman,Right,0,4,1,1,0,-,0,0.3515580000000682,['n'],3.3349404999999024,2.0,544.0975315000001,,,,,1000,20,Woman,Right,
,,,,,,,,,,,,,,,,,1000,20,Woman,Right,0,71,0.15,2,180,0,0,6.269405300000017,['n'],1.4866876000000957,1.0,554.9808902,,,,,1000,20,Woman,Right,
,,,,,,,,,,,,,,,,,1000,20,Woman,Right,0,10,0.4,1,180,-,180,0.5089219999999841,['n'],1.8386434999999892,1.492,562.6311163,,,,,1000,20,Woman,Right,
,,,,,,,,,,,,,,,,,1000,20,Woman,Right,0,50,0.15,1,180,-,0,6.450279399999999,['n'],1.8391761999998835,1.0,573.8814474999999,,,,,1000,20,Woman,Right,
,,,,,,,,,,,,,,,,,1000,20,Woman,Right,0,74,0.15,1,180,-,0,4.346045600000025,['y'],1.766811700000062,1.0,583.4811087999999,,,,,1000,20,Woman,Right,
,,,,,,,,,,,,,,,,,1000,20,Woman,Right,0,69,0.15,2,0,180,180,4.31387339999992,['n'],2.5424576000000343,1.0,593.3805600000001,,,,,1000,20,Woman,Right,
,,,,,,,,,,,,,,,,,1000,20,Woman,Right,0,68,0.15,1,0,-,180,8.400132499999927,['y'],3.3696368000000803,1.0,608.1809702999999,,,,,1000,20,Woman,Right,
,,,,,,,,,,,,,,,,,1000,20,Woman,Right,0,0,1,1,0,-,0,0.3471001000000342,['n'],1.9906756000000314,2.0,614.2136494000001,,,,,1000,20,Woman,Right,
,,,,,,,,,,,,,,,,,1000,20,Woman,Right,0,15,0.4,2,180,0,0,1.0992306999999073,['y'],1.078664099999969,1.84,620.6305983,,,,,1000,20,Woman,Right,
,,,,,,,,,,,,,,,,,1000,20,Woman,Right,0,59,0.15,2,180,0,0,1.232618999999886,['y'],1.286600000000135,1.278,626.0969696,,,,,1000,20,Woman,Right,
,,,,,,,,,,,,,,,,,1000,20,Woman,Right,0,19,0.4,2,180,0,0,0.34458519999998316,['y'],1.198683100000153,1.794,631.0635838999999,,,,,1000,20,Woman,Right,
,,,,,,,,,,,,,,,,,1000,20,Woman,Right,0,20,0.4,1,0,-,0,1.8799360000000434,['y'],1.118659100000059,1.504,637.2302695000001,,,,,1000,20,Woman,Right,
,,,,,,,,,,,,,,,,,1000,20,Woman,Right,0,54,0.15,1,180,-,180,2.7336769999999433,['y'],2.8735860000001594,1.0,646.2965529999999,,,,,1000,20,Woman,Right,
,,,,,,,,,,,,,,,,,1000,20,Woman,Right,0,66,0.15,1,180,-,180,1.0767909000001055,['n'],1.0384645999999975,1.0,651.3802871,,,,,1000,20,Woman,Right,
,,,,,,,,,,,,,,,,,1000,20,Woman,Right,0,46,0.15,1,180,-,0,2.3721656000000166,['n'],1.550601499999857,1.0,658.4301849000001,,,,,1000,20,Woman,Right,
,,,,,,,,,,,,,,,,,1000,20,Woman,Right,0,47,0.15,2,180,0,0,0.834873000000016,['y'],3.726466999999957,1.0,665.9466574999999,,,,,1000,20,Woman,Right,
,,,,,,,,,,,,,,,,,1000,20,Woman,Right,0,27,0.4,2,180,0,0,0.3787374999999429,['y'],1.4146155999999337,1.83,671.3802217,,,,,1000,20,Woman,Right,
,,,,,,,,,,,,,,,,,1000,20,Woman,Right,0,73,0.15,2,0,180,0,0.6207022999999481,['y'],1.5744781999999304,1.684,677.1632895,,,,,1000,20,Woman,Right,
,,,,,,,,,,,,,,,,,1000,20,Woman,Right,0,16,0.4,1,0,-,0,0.7719821000000593,['y'],2.902852400000029,1.678,684.0466796000001,,,,,1000,20,Woman,Right,
,,,,,,,,,,,,,,,,,1000,20,Woman,Right,0,60,0.15,1,0,-,0,0.571652800000038,['y'],3.7265482000000247,1.46,694.4632832,,,,,1000,20,Woman,Right,
,,,,,,,,,,,,,,,,,1000,20,Woman,Right,0,24,0.4,1,0,-,0,0.9341878999998698,['n'],1.614734700000099,1.16,699.9298107,,,,,1000,20,Woman,Right,
,,,,,,,,,,,,,,,,,1000,20,Woman,Right,0,26,0.4,1,180,-,0,1.3211014000000887,['y'],1.9665744999999788,1.072,706.6961971999999,,,,,1000,20,Woman,Right,
,,,,,,,,,,,,,,,,,1000,20,Woman,Right,0,72,0.15,1,0,-,0,1.2728096000000733,['y'],2.926130999999941,1.202,714.146305,,,,,1000,20,Woman,Right,
,,,,,,,,,,,,,,,,,1000,20,Woman,Right,0,40,0.4,1,0,-,180,1.3326695000000655,['y'],0.8625870999999279,1.134,720.3127926,,,,,1000,20,Woman,Right,
,,,,,,,,,,,,,,,,,1000,20,Woman,Right,0,8,0.4,1,0,-,180,0.8448631999999634,['y'],1.3428328999998485,1.572,725.1960383999999,,,,,1000,20,Woman,Right,
,,,,,,,,,,,,,,,,,1000,20,Woman,Right,0,21,0.4,2,0,180,180,1.600545000000011,['n'],0.974657999999863,1.492,733.8624585,,,,,1000,20,Woman,Right,
,,,,,,,,,,,,,,,,,1000,20,Woman,Right,0,76,0.15,1,0,-,180,3.0067533000001276,['n'],3.0950461999998424,1.0,742.8795273999999,,,,,1000,20,Woman,Right,
,,,,,,,,,,,,,,,,,1000,20,Woman,Right,0,67,0.15,2,180,0,0,1.0214693999998872,['y'],1.5343502000000626,1.544,749.112372,,,,,1000,20,Woman,Right,
,,,,,,,,,,,,,,,,,1000,20,Woman,Right,0,44,0.15,1,0,-,0,1.3279583999999431,['n'],1.5506305999999768,1.498,755.2456933000001,,,,,1000,20,Woman,Right,
,,,,,,,,,,,,,,,,,1000,20,Woman,Right,0,12,0.4,1,0,-,0,1.8003914999999324,['y'],0.9695236000000023,1.014,761.5458779,,,,,1000,20,Woman,Right,
,,,,,,,,,,,,,,,,,1000,20,Woman,Right,0,3,1,2,180,0,0,0.8153728999998293,['y'],1.4065353000000869,2.0,766.6290915,,,,,1000,20,Woman,Right,
,,,,,,,,,,,,,,,,,1000,20,Woman,Right,0,43,0.4,2,180,0,0,0.433283099999926,['y'],1.0787264000000505,2.0,771.1291427000001,,,,,1000,20,Woman,Right,
,,,,,,,,,,,,,,,,,1000,20,Woman,Right,0,56,0.15,1,0,-,0,0.36529459999997016,['y'],1.0066790999999284,1.674,783.596,,,,,1000,20,Woman,Right,
,,,,,,,,,,,,,,,,,1000,20,Woman,Right,0,65,0.15,2,0,180,180,1.406836099999964,['y'],0.9184262999999646,1.1,789.1291021,,,,,1000,20,Woman,Right,
,,,,,,,,,,,,,,,,,1000,20,Woman,Right,0,1,1,2,0,180,180,2.488887599999998,['y'],3.302549599999793,2.0,797.4790545999999,,,,,1000,20,Woman,Right,
,,,,,,,,,,,,,,,,,1000,20,Woman,Right,0,78,0.15,1,180,-,0,1.153441900000189,['n'],1.782582100000127,1.15,803.6122882,,,,,1000,20,Woman,Right,
,,,,,,,,,,,,,,,,,1000,20,Woman,Right,0,37,0.4,2,0,180,180,0.5814876999997978,['y'],0.9826527000000169,2.0,808.5622277,,,,,1000,20,Woman,Right,
,,,,,,,,,,,,,,,,,1000,20,Woman,Right,0,63,0.15,2,180,0,180,1.7725141999999323,['n'],1.4790822999998454,1.1440000000000001,814.8124929,,,,,1000,20,Woman,Right,
,,,,,,,,,,,,,,,,,1000,20,Woman,Right,0,7,1,2,180,0,0,1.0269097999998849,['y'],1.606628199999932,2.0,820.4456078000001,,,,,1000,20,Woman,Right,
,,,,,,,,,,,,,,,,,1000,20,Woman,Right,0,58,0.15,1,180,-,180,3.5122085000000425,['n'],1.054625900000019,1.0,827.7788817999999,,,,,1000,20,Woman,Right,
,,,,,,,,,,,,,,,,,1000,20,Woman,Right,0,14,0.4,1,180,-,180,1.2516204000000926,['n'],1.3190173000000414,1.566,833.4124013,,,,,1000,20,Woman,Right,
,,,,,,,,,,,,,,,,,1000,20,Woman,Right,0,45,0.15,2,0,180,0,1.3404936000001726,['n'],1.2461014000000432,1.0,838.7288228,,,,,1000,20,Woman,Right,
,,,,,,,,,,,,,,,,,1000,20,Woman,Right,0,61,0.15,2,0,180,180,1.1230494000001272,['n'],0.9184606999999687,1.0,844.4285724000001,,,,,1000,20,Woman,Right,
,,,,,,,,,,,,,,,,,1000,20,Woman,Right,0,25,0.4,2,0,180,180,0.8071920999998383,['y'],1.4066510000000108,2.0,850.4795836000001,,,,,1000,20,Woman,Right,
,,,,,,,,,,,,,,,,,1000,20,Woman,Right,0,32,0.4,1,0,-,0,0.7043780999999854,['n'],0.9666116000000784,1.6520000000000001,855.7284468,,,,,1000,20,Woman,Right,
,,,,,,,,,,,,,,,,,1000,20,Woman,Right,0,23,0.4,2,180,0,0,0.6557116999999835,['y'],1.798754400000007,1.686,861.678431,,,,,1000,20,Woman,Right,
,,,,,,,,,,,,,,,,,1000,20,Woman,Right,0,52,0.15,1,0,-,180,2.297369000000117,['y'],1.4063871999999265,1.6640000000000001,868.4957383000001,,,,,1000,20,Woman,Right,
,,,,,,,,,,,,,,,,,1000,20,Woman,Right,0,48,0.15,1,0,-,180,1.210953100000097,['y'],0.9502176999999392,1.374,874.1452512000001,,,,,1000,20,Woman,Right,
,,,,,,,,,,,,,,,,,1000,20,Woman,Right,0,75,0.15,2,180,0,180,1.845645999999988,['y'],2.3984352999998464,1.0,881.1460664000001,,,,,1000,20,Woman,Right,
,,,,,,,,,,,,,,,,,1000,20,Woman,Right,0,36,0.4,1,0,-,0,2.813258399999995,['y'],2.1587405999998737,1.27,889.3783298000001,,,,,1000,20,Woman,Right,
,,,,,,,,,,,,,,,,,1000,20,Woman,Right,0,34,0.4,1,180,-,180,0.7249069999998028,['n'],1.150818599999866,1.4020000000000001,894.9115630000001,,,,,1000,20,Woman,Right,
,,,,,,,,,,,,,,,,,1000,20,Woman,Right,0,33,0.4,2,0,180,180,1.159421600000087,['y'],0.9987323000000288,1.256,900.2457999000001,,,,,1000,20,Woman,Right,
,,,,,,,,,,,,,,,,,1000,20,Woman,Right,1,75,0.15,2,180,0,0,0.7048303999999916,['y'],2.7346537999997054,1.776,955.8277089000001,560.0,50.0,82.5,,1000,20,Woman,Right,
,,,,,,,,,,,,,,,,,1000,20,Woman,Right,1,65,0.15,2,0,180,0,0.8696764000001167,['y'],2.9906718000002,1.0,962.6281372999999,,,,,1000,20,Woman,Right,
,,,,,,,,,,,,,,,,,1000,20,Woman,Right,1,45,0.15,2,0,180,0,0.6050022999997964,['y'],1.4145666999997957,1.18,968.1947379999999,,,,,1000,20,Woman,Right,
,,,,,,,,,,,,,,,,,1000,20,Woman,Right,1,22,0.4,1,180,-,0,0.5927967999996326,['y'],1.1026978999998391,1.662,975.5442832000001,,,,,1000,20,Woman,Right,
,,,,,,,,,,,,,,,,,1000,20,Woman,Right,1,36,0.4,1,0,-,0,1.203726899999765,['n'],0.8304923000000599,1.412,981.3777207999999,,,,,1000,20,Woman,Right,
,,,,,,,,,,,,,,,,,1000,20,Woman,Right,1,59,0.15,2,180,0,180,0.9403332000001683,['n'],1.1105752999997094,1.1480000000000001,987.4111553,,,,,1000,20,Woman,Right,
,,,,,,,,,,,,,,,,,1000,20,Woman,Right,1,39,0.4,2,180,0,0,0.517021300000124,['y'],1.1660498999999618,1.772,992.2443285000002,,,,,1000,20,Woman,Right,
,,,,,,,,,,,,,,,,,1000,20,Woman,Right,1,10,0.4,1,180,-,180,0.6773877000000539,['y'],1.6783236999999644,1.0,998.3287364,,,,,1000,20,Woman,Right,
,,,,,,,,,,,,,,,,,1000,20,Woman,Right,1,46,0.15,1,180,-,180,1.9044771999997465,['n'],1.0624661000001652,1.0,1004.6111695000002,,,,,1000,20,Woman,Right,
,,,,,,,,,,,,,,,,,1000,20,Woman,Right,1,26,0.4,1,180,-,180,0.8511511000001519,['n'],2.9585072999998374,1.0,1011.1442961,,,,,1000,20,Woman,Right,
,,,,,,,,,,,,,,,,,1000,20,Woman,Right,1,19,0.4,2,180,0,0,0.2848797999999988,['y'],1.4146647000002304,2.0,1016.2118244000001,,,,,1000,20,Woman,Right,
,,,,,,,,,,,,,,,,,1000,20,Woman,Right,1,14,0.4,1,180,-,180,0.8407689999999093,['n'],1.070642399999997,1.172,1021.0776446000002,,,,,1000,20,Woman,Right,
,,,,,,,,,,,,,,,,,1000,20,Woman,Right,1,24,0.4,1,0,-,0,2.3703464000000167,['y'],0.9830822999997508,1.142,1028.3944838,,,,,1000,20,Woman,Right,
,,,,,,,,,,,,,,,,,1000,20,Woman,Right,1,49,0.15,2,0,180,180,0.8035002000001441,['n'],0.8226488999998764,1.272,1033.227658,,,,,1000,20,Woman,Right,
,,,,,,,,,,,,,,,,,1000,20,Woman,Right,1,11,0.4,2,180,0,0,0.36870509999971546,['y'],1.0144734999998946,1.792,1037.8785248000002,,,,,1000,20,Woman,Right,
,,,,,,,,,,,,,,,,,1000,20,Woman,Right,1,61,0.15,2,0,180,0,0.8248139000002084,['y'],0.9661528999999973,1.206,1042.6120936,,,,,1000,20,Woman,Right,
,,,,,,,,,,,,,,,,,1000,20,Woman,Right,1,54,0.15,1,180,-,180,1.5345930000003136,['n'],0.9503908000001502,1.0,1049.2447147999999,,,,,1000,20,Woman,Right,
,,,,,,,,,,,,,,,,,1000,20,Woman,Right,1,60,0.15,1,0,-,0,1.4064134999998714,['y'],2.1988188000000264,1.0,1056.2778713999999,,,,,1000,20,Woman,Right,
,,,,,,,,,,,,,,,,,1000,20,Woman,Right,1,44,0.15,1,0,-,180,0.9761133000001792,['n'],1.7749032000001534,1.0,1062.144638,,,,,1000,20,Woman,Right,
,,,,,,,,,,,,,,,,,1000,20,Woman,Right,1,6,1,1,180,-,180,0.7817933000001176,['n'],1.3427110000002358,2.0,1067.2445933000001,,,,,1000,20,Woman,Right,
,,,,,,,,,,,,,,,,,1000,20,Woman,Right,1,47,0.15,2,180,0,180,4.398790799999915,['n'],1.95052110000006,1.0,1076.4770721000002,,,,,1000,20,Woman,Right,
,,,,,,,,,,,,,,,,,1000,20,Woman,Right,1,30,0.4,1,180,-,180,3.6429431999999906,['y'],2.430284799999754,1.0,1085.3439817,,,,,1000,20,Woman,Right,
,,,,,,,,,,,,,,,,,1000,20,Woman,Right,1,77,0.15,2,0,180,180,0.7289372000000185,['n'],1.2386304999999993,1.0,1090.3114818000001,,,,,1000,20,Woman,Right,
,,,,,,,,,,,,,,,,,1000,20,Woman,Right,1,48,0.15,1,0,-,180,1.783758499999749,['n'],0.6304442999999083,1.0,1096.0603734,,,,,1000,20,Woman,Right,
,,,,,,,,,,,,,,,,,1000,20,Woman,Right,1,7,1,2,180,0,0,1.08891820000008,['y'],1.1664641999996093,2.0,1101.1948212,,,,,1000,20,Woman,Right,
,,,,,,,,,,,,,,,,,1000,20,Woman,Right,1,1,1,2,0,180,180,0.6193941999999879,['y'],1.8145910000002914,2.0,1106.5275691,,,,,1000,20,Woman,Right,
,,,,,,,,,,,,,,,,,1000,20,Woman,Right,1,40,0.4,1,0,-,0,0.39232319999973697,['n'],0.7426040999998804,1.542,1110.7267640000002,,,,,1000,20,Woman,Right,
,,,,,,,,,,,,,,,,,1000,20,Woman,Right,1,34,0.4,1,180,-,180,0.7827081000000362,['n'],3.1134170000000267,1.3679999999999999,1117.7445968,,,,,1000,20,Woman,Right,
,,,,,,,,,,,,,,,,,1000,20,Woman,Right,1,5,1,2,0,180,180,0.7738364000001638,['y'],1.2311500000000706,2.0,1122.3947607000002,,,,,1000,20,Woman,Right,
,,,,,,,,,,,,,,,,,1000,20,Woman,Right,1,71,0.15,2,180,0,180,2.1463933999998517,['n'],2.814694700000018,1.334,1130.4277452,,,,,1000,20,Woman,Right,
,,,,,,,,,,,,,,,,,1000,20,Woman,Right,1,31,0.4,2,180,0,180,1.530155399999785,['y'],0.950763199999983,1.6179999999999999,1136.0935109999998,,,,,1000,20,Woman,Right,
,,,,,,,,,,,,,,,,,1000,20,Woman,Right,1,28,0.4,1,0,-,180,1.552409699999771,['y'],0.7504398000000947,1.0,1141.2771779000002,,,,,1000,20,Woman,Right,
,,,,,,,,,,,,,,,,,1000,20,Woman,Right,1,56,0.15,1,0,-,180,1.2827376000000186,['y'],1.0146248000000924,1.13,1147.7772327999999,,,,,1000,20,Woman,Right,
,,,,,,,,,,,,,,,,,1000,20,Woman,Right,1,74,0.15,1,180,-,180,1.3363758000000416,['n'],0.8945885000002818,1.0,1152.6112036000002,,,,,1000,20,Woman,Right,
,,,,,,,,,,,,,,,,,1000,20,Woman,Right,1,27,0.4,2,180,0,0,1.1247914999999011,['y'],1.2066006000000016,1.528,1158.4446263000002,,,,,1000,20,Woman,Right,
,,,,,,,,,,,,,,,,,1000,20,Woman,Right,1,12,0.4,1,0,-,0,1.2983306999999513,['y'],0.6384170000001177,1.512,1163.0599122,,,,,1000,20,Woman,Right,
,,,,,,,,,,,,,,,,,1000,20,Woman,Right,1,57,0.15,2,0,180,0,0.8546572999998716,['n'],0.8151573000000099,1.0,1167.2283605,,,,,1000,20,Woman,Right,
,,,,,,,,,,,,,,,,,1000,20,Woman,Right,1,63,0.15,2,180,0,0,3.264475400000265,['n'],1.4465976999999839,1.0,1174.7770718,,,,,1000,20,Woman,Right,
,,,,,,,,,,,,,,,,,1000,20,Woman,Right,1,17,0.4,2,0,180,180,1.1402539000000615,['y'],1.3427495999999337,1.544,1180.2775249,,,,,1000,20,Woman,Right,
,,,,,,,,,,,,,,,,,1000,20,Woman,Right,1,62,0.15,1,180,-,0,0.9679894999999306,['y'],1.1985733999999866,1.0,1185.3933349000001,,,,,1000,20,Woman,Right,
,,,,,,,,,,,,,,,,,1000,20,Woman,Right,1,38,0.4,1,180,-,180,1.0289409000001797,['n'],3.0068947999998272,1.0,1192.1607548999998,,,,,1000,20,Woman,Right,
,,,,,,,,,,,,,,,,,1000,20,Woman,Right,1,9,0.4,2,0,180,180,0.5898078000000169,['y'],2.6784068000001753,1.67,1198.6763448,,,,,1000,20,Woman,Right,
,,,,,,,,,,,,,,,,,1000,20,Woman,Right,1,41,0.4,2,0,180,180,1.9529522000002544,['y'],1.3028536000001623,1.548,1205.3100237,,,,,1000,20,Woman,Right,
,,,,,,,,,,,,,,,,,1000,20,Woman,Right,1,43,0.4,2,180,0,0,0.87874950000014,['y'],0.791088800000125,2.0,1210.0934883000002,,,,,1000,20,Woman,Right,
,,,,,,,,,,,,,,,,,1000,20,Woman,Right,1,66,0.15,1,180,-,180,1.1124392000001535,['y'],1.8946021000001565,1.0,1215.8439999,,,,,1000,20,Woman,Right,
,,,,,,,,,,,,,,,,,1000,20,Woman,Right,1,35,0.4,2,180,0,0,0.45355990000007296,['y'],0.9350117999997565,2.0,1222.8434373000002,,,,,1000,20,Woman,Right,
,,,,,,,,,,,,,,,,,1000,20,Woman,Right,1,4,1,1,0,-,0,0.6348229999998694,['n'],0.9666787999999542,2.0,1227.4436187,,,,,1000,20,Woman,Right,
,,,,,,,,,,,,,,,,,1000,20,Woman,Right,1,55,0.15,2,180,0,0,0.6014987000003202,['y'],1.3744236000002275,1.604,1232.4433832000002,,,,,1000,20,Woman,Right,
,,,,,,,,,,,,,,,,,1000,20,Woman,Right,1,58,0.15,1,180,-,0,2.803820099999939,['y'],1.1827628000000914,1.024,1239.5266027,,,,,1000,20,Woman,Right,
,,,,,,,,,,,,,,,,,1000,20,Woman,Right,1,15,0.4,2,180,0,0,0.5996623000000909,['y'],2.014347600000292,1.814,1245.3929142999998,,,,,1000,20,Woman,Right,
,,,,,,,,,,,,,,,,,1000,20,Woman,Right,1,2,1,1,180,-,180,0.7293135999998412,['n'],0.8384945000002517,1.8719999999999999,1252.326253,,,,,1000,20,Woman,Right,
,,,,,,,,,,,,,,,,,1000,20,Woman,Right,1,70,0.15,1,180,-,0,0.8832534000002852,['y'],0.8066033000000061,1.422,1257.1937151,,,,,1000,20,Woman,Right,
,,,,,,,,,,,,,,,,,1000,20,Woman,Right,1,29,0.4,2,0,180,180,0.48196580000012545,['y'],0.8065415999999459,1.758,1261.1929919000002,,,,,1000,20,Woman,Right,
,,,,,,,,,,,,,,,,,1000,20,Woman,Right,1,51,0.15,2,180,0,180,0.6747479999999086,['y'],0.8947518999998465,1.428,1265.6600688,,,,,1000,20,Woman,Right,
,,,,,,,,,,,,,,,,,1000,20,Woman,Right,1,42,0.4,1,180,-,180,0.9675873999999567,['n'],0.9984948999999688,1.0,1270.5102650000001,,,,,1000,20,Woman,Right,
,,,,,,,,,,,,,,,,,1000,20,Woman,Right,1,3,1,2,180,0,0,0.3683209999999235,['y'],1.6464341999999306,1.728,1276.1096432000002,,,,,1000,20,Woman,Right,
,,,,,,,,,,,,,,,,,1000,20,Woman,Right,1,50,0.15,1,180,-,180,0.9056751000002805,['n'],0.7745233000000553,1.164,1281.1427638000002,,,,,1000,20,Woman,Right,
,,,,,,,,,,,,,,,,,1000,20,Woman,Right,1,23,0.4,2,180,0,0,0.7041847000000416,['y'],1.0065902999999707,1.706,1286.3598372,,,,,1000,20,Woman,Right,
,,,,,,,,,,,,,,,,,1000,20,Woman,Right,1,13,0.4,2,0,180,180,0.49177640000016254,['y'],0.8469914000002063,1.826,1290.8260546,,,,,1000,20,Woman,Right,
,,,,,,,,,,,,,,,,,1000,20,Woman,Right,1,18,0.4,1,180,-,0,0.7540954000000966,['y'],0.7421653999999762,1.392,1295.3104301,,,,,1000,20,Woman,Right,
,,,,,,,,,,,,,,,,,1000,20,Woman,Right,1,16,0.4,1,0,-,180,1.5444376999998894,['y'],1.4863849999997,1.63,1301.1263430000001,,,,,1000,20,Woman,Right,
,,,,,,,,,,,,,,,,,1000,20,Woman,Right,1,33,0.4,2,0,180,180,0.31601009999985763,['y'],0.9803600999998707,1.588,1305.1274617000001,,,,,1000,20,Woman,Right,
,,,,,,,,,,,,,,,,,1000,20,Woman,Right,1,0,1,1,0,-,0,0.5927794000003814,['n'],0.5188403999995899,1.796,1310.6096018,,,,,1000,20,Woman,Right,
,,,,,,,,,,,,,,,,,1000,20,Woman,Right,1,78,0.15,1,180,-,180,1.0588462999999138,['y'],1.1907507999999325,1.0,1315.4102273,,,,,1000,20,Woman,Right,
,,,,,,,,,,,,,,,,,1000,20,Woman,Right,1,52,0.15,1,0,-,180,0.4056023999996796,['y'],1.6624821000000338,1.258,1320.8932476000002,,,,,1000,20,Woman,Right,
,,,,,,,,,,,,,,,,,1000,20,Woman,Right,1,21,0.4,2,0,180,180,1.4410361999998713,['y'],0.9347323000001779,1.308,1328.0928719,,,,,1000,20,Woman,Right,
,,,,,,,,,,,,,,,,,1000,20,Woman,Right,1,76,0.15,1,0,-,180,1.930792499999825,['n'],1.3588169999998172,1.0,1334.0268950000002,,,,,1000,20,Woman,Right,
,,,,,,,,,,,,,,,,,1000,20,Woman,Right,1,25,0.4,2,0,180,180,0.9898134000000027,['n'],0.790596800000003,1.0,1338.3593852000001,,,,,1000,20,Woman,Right,
,,,,,,,,,,,,,,,,,1000,20,Woman,Right,1,73,0.15,2,0,180,180,3.1773080000002665,['y'],1.9183278999998947,1.0,1346.1105494,,,,,1000,20,Woman,Right,
,,,,,,,,,,,,,,,,,1000,20,Woman,Right,1,68,0.15,1,0,-,0,0.49073589999989053,['n'],1.662311900000077,1.0,1351.1765131999998,,,,,1000,20,Woman,Right,
,,,,,,,,,,,,,,,,,1000,20,Woman,Right,1,67,0.15,2,180,0,180,3.7598026999999092,['y'],4.894733899999665,1.0,1362.7095794999998,,,,,1000,20,Woman,Right,
,,,,,,,,,,,,,,,,,1000,20,Woman,Right,1,20,0.4,1,0,-,0,1.8365733000000546,['y'],2.0386767999998483,1.0,1369.1422403,,,,,1000,20,Woman,Right,
,,,,,,,,,,,,,,,,,1000,20,Woman,Right,1,32,0.4,1,0,-,0,0.7422626999996282,['n'],1.0389162999999826,1.0,1373.7751916999998,,,,,1000,20,Woman,Right,
,,,,,,,,,,,,,,,,,1000,20,Woman,Right,1,8,0.4,1,0,-,0,1.263078299999961,['n'],2.1588722000001326,1.198,1380.6922138000002,,,,,1000,20,Woman,Right,
,,,,,,,,,,,,,,,,,1000,20,Woman,Right,1,64,0.15,1,0,-,0,1.1121748999999,['n'],3.054994000000079,1.0,1387.5761162000001,,,,,1000,20,Woman,Right,
,,,,,,,,,,,,,,,,,1000,20,Woman,Right,1,72,0.15,1,0,-,180,0.9510869999999159,['n'],1.238797500000146,1.0,1392.8418309,,,,,1000,20,Woman,Right,
,,,,,,,,,,,,,,,,,1000,20,Woman,Right,1,53,0.15,2,0,180,180,2.131716900000356,['n'],1.238434099999722,1.0,1399.2428886999999,,,,,1000,20,Woman,Right,
,,,,,,,,,,,,,,,,,1000,20,Woman,Right,1,37,0.4,2,0,180,0,0.868707799999811,['n'],2.9345351000001756,1.0,1405.7924091000002,,,,,1000,20,Woman,Right,
,,,,,,,,,,,,,,,,,1000,20,Woman,Right,1,69,0.15,2,0,180,180,2.9505718999998862,['y'],2.334451700000045,1.0,1413.8423162000001,,,,,1000,20,Woman,Right,
,,,,,,,,,,,,,,,,,1000,20,Woman,Right,1,79,0.15,2,180,0,180,1.3658888999998453,['y'],6.030676699999731,1.0,1424.0758675,,,,,1000,20,Woman,Right,
,,,,,,,,,,,,,,,,,1000,20,Woman,Right,2,6,1,1,180,-,180,0.45212649999984933,['n'],2.886620899999798,1.794,1461.2919808,550.0,57.5,75.0,,1000,20,Woman,Right,
,,,,,,,,,,,,,,,,,1000,20,Woman,Right,2,8,0.4,1,0,-,0,0.6430438000002141,['n'],1.230548699999872,1.256,1466.1416228,,,,,1000,20,Woman,Right,
,,,,,,,,,,,,,,,,,1000,20,Woman,Right,2,25,0.4,2,0,180,180,0.6665265000001455,['y'],0.8143882999997913,1.782,1470.8094365,,,,,1000,20,Woman,Right,
,,,,,,,,,,,,,,,,,1000,20,Woman,Right,2,42,0.4,1,180,-,180,0.5309468999998899,['n'],4.950500500000089,1.302,1479.1587166000002,,,,,1000,20,Woman,Right,
,,,,,,,,,,,,,,,,,1000,20,Woman,Right,2,44,0.15,1,0,-,0,0.8037400999996862,['n'],1.518775000000005,1.0,1484.2756664,,,,,1000,20,Woman,Right,
,,,,,,,,,,,,,,,,,1000,20,Woman,Right,2,34,0.4,1,180,-,180,0.9805701000000226,['n'],3.518283899999915,1.0,1491.3421354999998,,,,,1000,20,Woman,Right,
,,,,,,,,,,,,,,,,,1000,20,Woman,Right,2,9,0.4,2,0,180,180,0.6094909999997071,['y'],0.7188732999998138,1.8639999999999999,1495.7257609,,,,,1000,20,Woman,Right,
,,,,,,,,,,,,,,,,,1000,20,Woman,Right,2,24,0.4,1,0,-,0,0.708364999999958,['y'],1.4864791999998488,1.884,1500.9585749999999,,,,,1000,20,Woman,Right,
,,,,,,,,,,,,,,,,,1000,20,Woman,Right,2,38,0.4,1,180,-,180,0.5900504999999612,['n'],1.1908645999997134,1.298,1505.5748147000002,,,,,1000,20,Woman,Right,
,,,,,,,,,,,,,,,,,1000,20,Woman,Right,2,74,0.15,1,180,-,0,1.1504141999998865,['y'],1.0865450999999666,1.662,1511.4753376,,,,,1000,20,Woman,Right,
,,,,,,,,,,,,,,,,,1000,20,Woman,Right,2,19,0.4,2,180,0,0,1.0270935000003192,['y'],0.8306483000001208,1.684,1516.7751409999998,,,,,1000,20,Woman,Right,
,,,,,,,,,,,,,,,,,1000,20,Woman,Right,2,48,0.15,1,0,-,0,0.38395360000004075,['y'],1.1025231999997231,1.678,1521.9088948,,,,,1000,20,Woman,Right,
,,,,,,,,,,,,,,,,,1000,20,Woman,Right,2,29,0.4,2,0,180,180,0.8242159999999785,['y'],1.4783660999996755,1.6059999999999999,1527.7754400000001,,,,,1000,20,Woman,Right,
,,,,,,,,,,,,,,,,,1000,20,Woman,Right,2,66,0.15,1,180,-,180,1.2128706000003149,['n'],0.7910564999997405,1.2,1532.9753853,,,,,1000,20,Woman,Right,
,,,,,,,,,,,,,,,,,1000,20,Woman,Right,2,21,0.4,2,0,180,180,0.44759819999990214,['y'],2.070338499999707,1.822,1538.6919043,,,,,1000,20,Woman,Right,
,,,,,,,,,,,,,,,,,1000,20,Woman,Right,2,63,0.15,2,180,0,180,1.9663464000000204,['y'],5.816301500000009,1.0,1549.5918737999998,,,,,1000,20,Woman,Right,
,,,,,,,,,,,,,,,,,1000,20,Woman,Right,2,53,0.15,2,0,180,180,1.0718606000000364,['y'],5.3746587000000545,1.0,1558.5925622000002,,,,,1000,20,Woman,Right,
,,,,,,,,,,,,,,,,,1000,20,Woman,Right,2,7,1,2,180,0,0,0.577018599999974,['y'],1.2387823999997636,2.0,1563.1081037000001,,,,,1000,20,Woman,Right,
,,,,,,,,,,,,,,,,,1000,20,Woman,Right,2,75,0.15,2,180,0,180,1.4657541000001402,['n'],0.7746900000001915,1.0,1568.4078095000002,,,,,1000,20,Woman,Right,
,,,,,,,,,,,,,,,,,1000,20,Woman,Right,2,58,0.15,1,180,-,0,1.047428200000013,['y'],1.0383436999995865,1.808,1573.2412548,,,,,1000,20,Woman,Right,
,,,,,,,,,,,,,,,,,1000,20,Woman,Right,2,56,0.15,1,0,-,0,0.5894834999999148,['y'],1.1345113999996101,1.87,1577.9084307,,,,,1000,20,Woman,Right,
,,,,,,,,,,,,,,,,,1000,20,Woman,Right,2,33,0.4,2,0,180,0,0.7757572999998956,['y'],1.3262383000001137,1.554,1584.807877,,,,,1000,20,Woman,Right,
,,,,,,,,,,,,,,,,,1000,20,Woman,Right,2,37,0.4,2,0,180,180,0.5024062000002232,['y'],0.7507967999999892,1.892,1589.2252685,,,,,1000,20,Woman,Right,
,,,,,,,,,,,,,,,,,1000,20,Woman,Right,2,78,0.15,1,180,-,0,1.5849905000000035,['n'],0.4782938000003014,1.0,1594.1252837,,,,,1000,20,Woman,Right,
,,,,,,,,,,,,,,,,,1000,20,Woman,Right,2,50,0.15,1,180,-,180,0.5958566999997856,['n'],0.7507602000000588,1.296,1598.3087054,,,,,1000,20,Woman,Right,
,,,,,,,,,,,,,,,,,1000,20,Woman,Right,2,77,0.15,2,0,180,180,1.2892368000002534,['n'],4.590414499999952,1.236,1607.1420248000002,,,,,1000,20,Woman,Right,
,,,,,,,,,,,,,,,,,1000,20,Woman,Right,2,10,0.4,1,180,-,0,0.9555161999996926,['y'],1.2306343999998717,1.5739999999999998,1612.0242208000002,,,,,1000,20,Woman,Right,
,,,,,,,,,,,,,,,,,1000,20,Woman,Right,2,30,0.4,1,180,-,180,0.5255705000004127,['n'],1.1425053999996635,1.4,1616.4750725000001,,,,,1000,20,Woman,Right,
,,,,,,,,,,,,,,,,,1000,20,Woman,Right,2,2,1,1,180,-,180,0.5881282999998803,['n'],0.9584546000000955,1.942,1622.2581374,,,,,1000,20,Woman,Right,
,,,,,,,,,,,,,,,,,1000,20,Woman,Right,2,54,0.15,1,180,-,180,1.2288060999999288,['n'],1.9184662999996362,1.0,1628.2083945000002,,,,,1000,20,Woman,Right,
,,,,,,,,,,,,,,,,,1000,20,Woman,Right,2,14,0.4,1,180,-,0,0.5209461000004012,['y'],2.2624628999997185,1.502,1633.6082183,,,,,1000,20,Woman,Right,
,,,,,,,,,,,,,,,,,1000,20,Woman,Right,2,64,0.15,1,0,-,180,0.8368208000001687,['y'],2.8223801999997704,1.0,1640.3240650999999,,,,,1000,20,Woman,Right,
,,,,,,,,,,,,,,,,,1000,20,Woman,Right,2,79,0.15,2,180,0,180,0.8265250999997988,['y'],4.590243600000122,1.0,1650.0416146,,,,,1000,20,Woman,Right,
,,,,,,,,,,,,,,,,,1000,20,Woman,Right,2,62,0.15,1,180,-,180,1.1505154999999831,['n'],1.2783282999998846,1.0,1657.1753569999998,,,,,1000,20,Woman,Right,
,,,,,,,,,,,,,,,,,1000,20,Woman,Right,2,22,0.4,1,180,-,180,0.6246233000001666,['n'],0.6941117999999733,1.3900000000000001,1663.0417185,,,,,1000,20,Woman,Right,
,,,,,,,,,,,,,,,,,1000,20,Woman,Right,2,43,0.4,2,180,0,0,0.6129869999999755,['y'],1.4065605999999207,1.6560000000000001,1667.8907218000002,,,,,1000,20,Woman,Right,
,,,,,,,,,,,,,,,,,1000,20,Woman,Right,2,1,1,2,0,180,180,1.0068789000001743,['y'],1.3587117000001854,1.858,1675.091534,,,,,1000,20,Woman,Right,
,,,,,,,,,,,,,,,,,1000,20,Woman,Right,2,20,0.4,1,0,-,0,0.43697470000006433,['y'],1.2545090999997228,1.306,1680.6074254000002,,,,,1000,20,Woman,Right,
,,,,,,,,,,,,,,,,,1000,20,Woman,Right,2,5,1,2,0,180,180,0.44168089999993754,['y'],0.7820710000000872,2.0,1684.9741901999998,,,,,1000,20,Woman,Right,
,,,,,,,,,,,,,,,,,1000,20,Woman,Right,2,71,0.15,2,180,0,180,4.5450800000003255,['y'],1.1264631999997619,1.0,1694.0241626999998,,,,,1000,20,Woman,Right,
,,,,,,,,,,,,,,,,,1000,20,Woman,Right,2,27,0.4,2,180,0,0,2.1614478000001327,['y'],1.1506414999998924,1.17,1700.3077741999998,,,,,1000,20,Woman,Right,
,,,,,,,,,,,,,,,,,1000,20,Woman,Right,2,72,0.15,1,0,-,180,0.9793640000002597,['n'],1.454298899999685,1.0,1705.3076647,,,,,1000,20,Woman,Right,
,,,,,,,,,,,,,,,,,1000,20,Woman,Right,2,0,1,1,0,-,0,0.31522270000004937,['n'],1.2947636999997485,1.43,1710.4744612000002,,,,,1000,20,Woman,Right,
,,,,,,,,,,,,,,,,,1000,20,Woman,Right,2,46,0.15,1,180,-,180,0.5083003999998255,['n'],1.1347129000000677,1.0,1714.6911865999998,,,,,1000,20,Woman,Right,
,,,,,,,,,,,,,,,,,1000,20,Woman,Right,2,36,0.4,1,0,-,0,0.8578399000002719,['n'],1.49460020000015,1.23,1721.2079184000002,,,,,1000,20,Woman,Right,
,,,,,,,,,,,,,,,,,1000,20,Woman,Right,2,18,0.4,1,180,-,180,0.4003299999999399,['n'],0.7347690999999941,1.6520000000000001,1724.9902027,,,,,1000,20,Woman,Right,
,,,,,,,,,,,,,,,,,1000,20,Woman,Right,2,15,0.4,2,180,0,180,1.336260399999901,['n'],3.358155899999929,1.6520000000000001,1735.4077682,,,,,1000,20,Woman,Right,
,,,,,,,,,,,,,,,,,1000,20,Woman,Right,2,4,1,1,0,-,0,0.4350537999998778,['n'],1.766802699999971,1.698,1741.3075445000002,,,,,1000,20,Woman,Right,
,,,,,,,,,,,,,,,,,1000,20,Woman,Right,2,26,0.4,1,180,-,180,0.35533369999984643,['n'],0.7906011000000035,1.6320000000000001,1747.0898749,,,,,1000,20,Woman,Right,
,,,,,,,,,,,,,,,,,1000,20,Woman,Right,2,11,0.4,2,180,0,0,0.7791221000002224,['y'],0.7986621000000014,1.428,1752.9075587,,,,,1000,20,Woman,Right,
,,,,,,,,,,,,,,,,,1000,20,Woman,Right,2,39,0.4,2,180,0,180,3.729377900000145,['n'],1.7984736000003068,1.4060000000000001,1762.5733828999998,,,,,1000,20,Woman,Right,
,,,,,,,,,,,,,,,,,1000,20,Woman,Right,2,12,0.4,1,0,-,180,0.7456308999999237,['y'],0.9424680000001899,1.58,1768.1398316000002,,,,,1000,20,Woman,Right,
,,,,,,,,,,,,,,,,,1000,20,Woman,Right,2,35,0.4,2,180,0,0,2.3298893999999564,['y'],1.1024483000001055,1.5979999999999999,1774.3234971,,,,,1000,20,Woman,Right,
,,,,,,,,,,,,,,,,,1000,20,Woman,Right,2,41,0.4,2,0,180,180,0.8117096999999376,['y'],1.2702022000003126,1.6099999999999999,1779.2737521000001,,,,,1000,20,Woman,Right,
,,,,,,,,,,,,,,,,,1000,20,Woman,Right,2,60,0.15,1,0,-,0,0.9154066000000967,['y'],0.7665578000001005,1.504,1785.1396284,,,,,1000,20,Woman,Right,
,,,,,,,,,,,,,,,,,1000,20,Woman,Right,2,13,0.4,2,0,180,180,0.8417436999998245,['y'],0.6469938999998703,1.746,1790.5735774000002,,,,,1000,20,Woman,Right,
,,,,,,,,,,,,,,,,,1000,20,Woman,Right,2,73,0.15,2,0,180,180,0.8499112000004061,['n'],0.9748666000000412,1.318,1795.2241643999998,,,,,1000,20,Woman,Right,
,,,,,,,,,,,,,,,,,1000,20,Woman,Right,2,52,0.15,1,0,-,180,1.055803300000207,['n'],0.9907362999997531,1.318,1795.2241643999998,,,,,1000,20,Woman,Right,
,,,,,,,,,,,,,,,,,1000,20,Woman,Right,2,51,0.15,2,180,0,0,1.3228327000001627,['y'],1.590482300000076,1.0,1806.7565974000001,,,,,1000,20,Woman,Right,
,,,,,,,,,,,,,,,,,1000,20,Woman,Right,2,55,0.15,2,180,0,0,0.32908750000024156,['y'],0.9187941999998657,1.304,1810.7908731,,,,,1000,20,Woman,Right,
,,,,,,,,,,,,,,,,,1000,20,Woman,Right,2,45,0.15,2,0,180,0,0.5743044999999256,['y'],8.574410300000181,1.0,1822.6902530999998,,,,,1000,20,Woman,Right,
,,,,,,,,,,,,,,,,,1000,20,Woman,Right,2,31,0.4,2,180,0,0,0.6370022999999492,['y'],1.0786323000002085,1.6139999999999999,1827.3896725000002,,,,,1000,20,Woman,Right,
,,,,,,,,,,,,,,,,,1000,20,Woman,Right,2,68,0.15,1,0,-,0,1.631751400000212,['y'],0.5029205999999249,1.512,1832.3402322,,,,,1000,20,Woman,Right,
,,,,,,,,,,,,,,,,,1000,20,Woman,Right,2,28,0.4,1,0,-,0,0.599845500000356,['n'],0.9668105000000651,1.526,1836.7563166000002,,,,,1000,20,Woman,Right,
,,,,,,,,,,,,,,,,,1000,20,Woman,Right,2,70,0.15,1,180,-,0,0.673208700000032,['y'],0.726393200000075,1.476,1840.8905523,,,,,1000,20,Woman,Right,
,,,,,,,,,,,,,,,,,1000,20,Woman,Right,2,65,0.15,2,0,180,0,1.2357303000003412,['y'],0.8145558000001074,1.468,1845.9233148,,,,,1000,20,Woman,Right,
,,,,,,,,,,,,,,,,,1000,20,Woman,Right,2,59,0.15,2,180,0,180,0.8339554000003773,['n'],0.7348163000001477,1.37,1850.2902003000002,,,,,1000,20,Woman,Right,
,,,,,,,,,,,,,,,,,1000,20,Woman,Right,2,16,0.4,1,0,-,0,1.0822238999999172,['y'],0.9986117999997077,1.522,1855.3405565,,,,,1000,20,Woman,Right,
,,,,,,,,,,,,,,,,,1000,20,Woman,Right,2,57,0.15,2,0,180,180,2.589755299999979,['n'],0.799000999999862,1.0,1861.6237751,,,,,1000,20,Woman,Right,
,,,,,,,,,,,,,,,,,1000,20,Woman,Right,2,61,0.15,2,0,180,180,2.5581082000003335,['y'],0.45440199999984543,1.164,1868.2742847000002,,,,,1000,20,Woman,Right,
,,,,,,,,,,,,,,,,,1000,20,Woman,Right,2,17,0.4,2,0,180,180,0.8401767000000291,['y'],0.6543133000000125,1.62,1873.4725126,,,,,1000,20,Woman,Right,
,,,,,,,,,,,,,,,,,1000,20,Woman,Right,2,40,0.4,1,0,-,0,0.5988402000002679,['n'],0.5660527999998521,2.0,1879.3564700999998,,,,,1000,20,Woman,Right,
,,,,,,,,,,,,,,,,,1000,20,Woman,Right,2,67,0.15,2,180,0,0,0.9065411999999924,['y'],0.5025986999999077,1.46,1885.5402265999999,,,,,1000,20,Woman,Right,
,,,,,,,,,,,,,,,,,1000,20,Woman,Right,2,3,1,2,180,0,0,0.7614974000002803,['y'],0.4305485999998382,2.0,1889.9063669999998,,,,,1000,20,Woman,Right,
,,,,,,,,,,,,,,,,,1000,20,Woman,Right,2,69,0.15,2,0,180,180,0.8744206000001213,['n'],0.42237230000000636,1.3900000000000001,1893.9740952,,,,,1000,20,Woman,Right,
,,,,,,,,,,,,,,,,,1000,20,Woman,Right,2,23,0.4,2,180,0,0,0.3369002000004002,['y'],1.0064501000001655,1.634,1898.3399022,,,,,1000,20,Woman,Right,
,,,,,,,,,,,,,,,,,1000,20,Woman,Right,2,32,0.4,1,0,-,180,1.1857990000003156,['n'],1.5824585999998817,1.334,1904.4226627,,,,,1000,20,Woman,Right,
,,,,,,,,,,,,,,,,,1000,20,Woman,Right,2,49,0.15,2,0,180,180,1.4318241999999373,['y'],2.6710722000002534,1.0,1911.0903346000002,,,,,1000,20,Woman,Right,
,,,,,,,,,,,,,,,,,1000,20,Woman,Right,2,76,0.15,1,0,-,0,1.1414061000000402,['n'],3.3580956000000697,1.0,1919.0397483,,,,,1000,20,Woman,Right,
,,,,,,,,,,,,,,,,,1000,20,Woman,Right,2,47,0.15,2,180,0,180,0.6493642999998883,['y'],0.7250226000001021,1.0,1923.2562384999999,,,,,1000,20,Woman,Right,
,,,,,,,,,,,,,,,,,1000,20,Woman,Right,3,38,0.4,1,180,-,180,1.1916714999997566,['n'],0.5185465999998087,1.3719999999999999,1966.8552806,580.0,65.0,80.0,,1000,20,Woman,Right,
,,,,,,,,,,,,,,,,,1000,20,Woman,Right,3,58,0.15,1,180,-,180,0.6471129999999903,['n'],0.6941761000002771,1.374,1970.7394498,,,,,1000,20,Woman,Right,
,,,,,,,,,,,,,,,,,1000,20,Woman,Right,3,18,0.4,1,180,-,0,1.2645419999998921,['y'],0.3986603000003015,1.312,1975.6901523,,,,,1000,20,Woman,Right,
,,,,,,,,,,,,,,,,,1000,20,Woman,Right,3,76,0.15,1,0,-,180,0.5548392999999123,['n'],1.0544967000000725,1.0,1979.9889650000002,,,,,1000,20,Woman,Right,
,,,,,,,,,,,,,,,,,1000,20,Woman,Right,3,23,0.4,2,180,0,0,0.6559440000000905,['y'],0.7187206000003243,1.0,1983.9891587,,,,,1000,20,Woman,Right,
,,,,,,,,,,,,,,,,,1000,20,Woman,Right,3,25,0.4,2,0,180,180,1.7333612999996149,['y'],0.8945974000002934,1.3559999999999999,1989.3891354999998,,,,,1000,20,Woman,Right,
,,,,,,,,,,,,,,,,,1000,20,Woman,Right,3,8,0.4,1,0,-,0,0.40950340000017604,['n'],0.7106173000001945,1.27,1993.0221752,,,,,1000,20,Woman,Right,
,,,,,,,,,,,,,,,,,1000,20,Woman,Right,3,64,0.15,1,0,-,180,2.752331299999696,['y'],0.8383415999996942,1.0,1999.3552222,,,,,1000,20,Woman,Right,
,,,,,,,,,,,,,,,,,1000,20,Woman,Right,3,24,0.4,1,0,-,0,0.28145119999999224,['y'],5.246677600000112,1.0,2008.1888411000002,,,,,1000,20,Woman,Right,
,,,,,,,,,,,,,,,,,1000,20,Woman,Right,3,9,0.4,2,0,180,180,0.4831794000001537,['y'],0.6947643999997126,1.542,2012.3055944,,,,,1000,20,Woman,Right,
,,,,,,,,,,,,,,,,,1000,20,Woman,Right,3,54,0.15,1,180,-,180,2.1790185999998357,['y'],0.42241469999999026,1.0,2017.3394489,,,,,1000,20,Woman,Right,
,,,,,,,,,,,,,,,,,1000,20,Woman,Right,3,15,0.4,2,180,0,180,1.9122902000003705,['y'],2.1504815999996936,1.496,2026.0568977,,,,,1000,20,Woman,Right,
,,,,,,,,,,,,,,,,,1000,20,Woman,Right,3,31,0.4,2,180,0,0,0.5446909000002051,['y'],0.990728499999932,1.692,2030.3558461999999,,,,,1000,20,Woman,Right,
,,,,,,,,,,,,,,,,,1000,20,Woman,Right,3,66,0.15,1,180,-,180,0.5612891000000673,['n'],0.702683700000307,1.38,2034.3059901,,,,,1000,20,Woman,Right,
,,,,,,,,,,,,,,,,,1000,20,Woman,Right,3,68,0.15,1,0,-,0,0.5786816999998337,['n'],0.7340718000000379,1.384,2039.0900086,,,,,1000,20,Woman,Right,
,,,,,,,,,,,,,,,,,1000,20,Woman,Right,3,21,0.4,2,0,180,180,0.6621448000000782,['n'],3.66272089999984,1.35,2046.7227744,,,,,1000,20,Woman,Right,
,,,,,,,,,,,,,,,,,1000,20,Woman,Right,3,39,0.4,2,180,0,0,0.7262193999999909,['y'],0.5742295000000013,1.536,2051.7394093000003,,,,,1000,20,Woman,Right,
,,,,,,,,,,,,,,,,,1000,20,Woman,Right,3,55,0.15,2,180,0,0,0.9964703999999074,['y'],2.0224223999998685,1.27,2057.7383453,,,,,1000,20,Woman,Right,
,,,,,,,,,,,,,,,,,1000,20,Woman,Right,3,46,0.15,1,180,-,180,0.9558515999997326,['n'],0.7024407000003521,1.0,2061.921821,,,,,1000,20,Woman,Right,
,,,,,,,,,,,,,,,,,1000,20,Woman,Right,3,35,0.4,2,180,0,0,0.5391485999998622,['y'],0.894724899999801,1.0,2066.2716547,,,,,1000,20,Woman,Right,
,,,,,,,,,,,,,,,,,1000,20,Woman,Right,3,79,0.15,2,180,0,180,1.8570350999998482,['n'],2.494648999999754,1.0,2073.8388238999996,,,,,1000,20,Woman,Right,
,,,,,,,,,,,,,,,,,1000,20,Woman,Right,3,44,0.15,1,0,-,0,0.4383458000002065,['n'],7.158905199999936,1.0,2085.3397201999996,,,,,1000,20,Woman,Right,
,,,,,,,,,,,,,,,,,1000,20,Woman,Right,3,34,0.4,1,180,-,180,0.715443999999934,['n'],0.9029498999998395,1.3940000000000001,2090.3218243,,,,,1000,20,Woman,Right,
,,,,,,,,,,,,,,,,,1000,20,Woman,Right,3,5,1,2,0,180,180,0.7011029999998755,['y'],1.1984618999999839,2.0,2094.9226072,,,,,1000,20,Woman,Right,
,,,,,,,,,,,,,,,,,1000,20,Woman,Right,3,71,0.15,2,180,0,0,0.7548788000003697,['n'],1.710810600000059,1.0,2099.8713776000004,,,,,1000,20,Woman,Right,
,,,,,,,,,,,,,,,,,1000,20,Woman,Right,3,50,0.15,1,180,-,0,0.9235581999996612,['n'],0.5270886999996947,1.0,2104.3391713,,,,,1000,20,Woman,Right,
,,,,,,,,,,,,,,,,,1000,20,Woman,Right,3,6,1,1,180,-,180,0.611199100000249,['n'],0.5025296999997408,1.908,2110.1886756000004,,,,,1000,20,Woman,Right,
,,,,,,,,,,,,,,,,,1000,20,Woman,Right,3,47,0.15,2,180,0,180,0.6150483999999778,['n'],1.0947575000000143,1.0,2114.5552408000003,,,,,1000,20,Woman,Right,
,,,,,,,,,,,,,,,,,1000,20,Woman,Right,3,48,0.15,1,0,-,0,0.3697471999998925,['n'],1.40691680000009,1.436,2119.3051788000002,,,,,1000,20,Woman,Right,
,,,,,,,,,,,,,,,,,1000,20,Woman,Right,3,49,0.15,2,0,180,0,1.0428126000001612,['y'],2.4393574999999146,1.0,2126.0386651999997,,,,,1000,20,Woman,Right,
,,,,,,,,,,,,,,,,,1000,20,Woman,Right,3,52,0.15,1,0,-,0,1.3169062000001759,['n'],4.01436509999985,1.0,2134.2049451000003,,,,,1000,20,Woman,Right,
,,,,,,,,,,,,,,,,,1000,20,Woman,Right,3,73,0.15,2,0,180,0,0.5828991000003043,['n'],2.358990100000028,1.0,2139.9392226,,,,,1000,20,Woman,Right,
,,,,,,,,,,,,,,,,,1000,20,Woman,Right,3,60,0.15,1,0,-,0,0.7857530000001134,['n'],1.2228130000003148,1.0,2144.8889580000005,,,,,1000,20,Woman,Right,
,,,,,,,,,,,,,,,,,1000,20,Woman,Right,3,51,0.15,2,180,0,0,1.0461784000003718,['n'],1.8471161000002212,1.0,2151.0382087999997,,,,,1000,20,Woman,Right,
,,,,,,,,,,,,,,,,,1000,20,Woman,Right,3,69,0.15,2,0,180,180,0.7250701000002664,['y'],1.3507641999999578,1.654,2157.0209821,,,,,1000,20,Woman,Right,
,,,,,,,,,,,,,,,,,1000,20,Woman,Right,3,30,0.4,1,180,-,180,0.8393333000003622,['y'],1.9106378999999833,1.276,2163.1054071,,,,,1000,20,Woman,Right,
,,,,,,,,,,,,,,,,,1000,20,Woman,Right,3,29,0.4,2,0,180,180,0.7658087999998315,['y'],1.1187808999998197,1.154,2168.7543259000004,,,,,1000,20,Woman,Right,
,,,,,,,,,,,,,,,,,1000,20,Woman,Right,3,4,1,1,0,-,0,0.39322330000004513,['n'],1.5346894999997858,1.552,2173.7552628000003,,,,,1000,20,Woman,Right,
,,,,,,,,,,,,,,,,,1000,20,Woman,Right,3,59,0.15,2,180,0,180,1.9387972999998055,['y'],1.1185931999998502,1.0,2179.4886153999996,,,,,1000,20,Woman,Right,
,,,,,,,,,,,,,,,,,1000,20,Woman,Right,3,70,0.15,1,180,-,180,1.1181353000001764,['n'],1.0065496000001986,1.0,2184.4377496999996,,,,,1000,20,Woman,Right,
,,,,,,,,,,,,,,,,,1000,20,Woman,Right,3,56,0.15,1,0,-,180,5.032361999999921,['n'],0.5982272000001103,1.0,2184.4377496999996,,,,,1000,20,Woman,Right,
,,,,,,,,,,,,,,,,,1000,20,Woman,Right,3,61,0.15,2,0,180,180,2.542493800000102,['y'],2.582475400000021,1.5,2200.3288058999997,,,,,1000,20,Woman,Right,
,,,,,,,,,,,,,,,,,1000,20,Woman,Right,3,72,0.15,1,0,-,0,2.152132899999742,['y'],0.8546323999999004,1.0,2207.3548997999997,,,,,1000,20,Woman,Right,
,,,,,,,,,,,,,,,,,1000,20,Woman,Right,3,57,0.15,2,0,180,180,0.7696427000000767,['y'],0.9583114000001842,1.0,2211.8876172,,,,,1000,20,Woman,Right,
,,,,,,,,,,,,,,,,,1000,20,Woman,Right,3,13,0.4,2,0,180,180,1.3099238999998306,['y'],1.0070497000001524,1.634,2218.7877095000003,,,,,1000,20,Woman,Right,
,,,,,,,,,,,,,,,,,1000,20,Woman,Right,3,42,0.4,1,180,-,180,0.5229294999999183,['n'],0.7983508000002075,1.416,2223.1214945,,,,,1000,20,Woman,Right,
,,,,,,,,,,,,,,,,,1000,20,Woman,Right,3,12,0.4,1,0,-,0,0.7968792000001486,['n'],2.8466733999998723,1.5819999999999999,2230.2207617000004,,,,,1000,20,Woman,Right,
,,,,,,,,,,,,,,,,,1000,20,Woman,Right,3,37,0.4,2,0,180,0,1.684602199999972,['y'],0.9589857000000848,1.458,2237.5380247000003,,,,,1000,20,Woman,Right,
,,,,,,,,,,,,,,,,,1000,20,Woman,Right,3,14,0.4,1,180,-,180,2.0859880000002704,['y'],0.830283799999961,1.412,2243.2039776,,,,,1000,20,Woman,Right,
,,,,,,,,,,,,,,,,,1000,20,Woman,Right,3,10,0.4,1,180,-,0,0.926688799999738,['y'],0.7262413999997079,1.388,2247.5377392,,,,,1000,20,Woman,Right,
,,,,,,,,,,,,,,,,,1000,20,Woman,Right,3,28,0.4,1,0,-,0,0.6348915000003217,['n'],0.8224202999999761,1.3820000000000001,2253.1714368000003,,,,,1000,20,Woman,Right,
,,,,,,,,,,,,,,,,,1000,20,Woman,Right,3,77,0.15,2,0,180,0,0.7002139999999599,['n'],0.9583748000000014,1.0,2258.3215532000004,,,,,1000,20,Woman,Right,
,,,,,,,,,,,,,,,,,1000,20,Woman,Right,3,36,0.4,1,0,-,0,0.7074172999996335,['n'],1.1588770000003024,1.0,2262.9039904,,,,,1000,20,Woman,Right,
,,,,,,,,,,,,,,,,,1000,20,Woman,Right,3,75,0.15,2,180,0,180,1.0526177000001553,['y'],0.8224420000001373,1.0,2267.7545468999997,,,,,1000,20,Woman,Right,
,,,,,,,,,,,,,,,,,1000,20,Woman,Right,3,1,1,2,0,180,180,1.1054610000001048,['y'],0.5662258999996084,1.6440000000000001,2272.4209573999997,,,,,1000,20,Woman,Right,
,,,,,,,,,,,,,,,,,1000,20,Woman,Right,3,62,0.15,1,180,-,0,2.2791971000001467,['y'],8.614691600000242,1.0,2286.2709727,,,,,1000,20,Woman,Right,
,,,,,,,,,,,,,,,,,1000,20,Woman,Right,3,19,0.4,2,180,0,0,0.6651354999999057,['y'],0.6708361999999397,1.224,2290.620401,,,,,1000,20,Woman,Right,
,,,,,,,,,,,,,,,,,1000,20,Woman,Right,3,7,1,2,180,0,0,0.5700222000000394,['y'],1.150832100000116,2.0,2296.1209872,,,,,1000,20,Woman,Right,
,,,,,,,,,,,,,,,,,1000,20,Woman,Right,3,67,0.15,2,180,0,0,0.602984799999831,['y'],0.734790399999838,1.524,2300.4035040999997,,,,,1000,20,Woman,Right,
,,,,,,,,,,,,,,,,,1000,20,Woman,Right,3,74,0.15,1,180,-,180,0.6089122000003044,['y'],0.6309235000003355,1.278,2304.6037871999997,,,,,1000,20,Woman,Right,
,,,,,,,,,,,,,,,,,1000,20,Woman,Right,3,27,0.4,2,180,0,180,3.3923235000002023,['y'],0.8867784999997639,1.0,2311.55505,,,,,1000,20,Woman,Right,
,,,,,,,,,,,,,,,,,1000,20,Woman,Right,3,33,0.4,2,0,180,180,0.5168758999998317,['y'],0.7417080000000169,1.0,2315.6540249,,,,,1000,20,Woman,Right,
,,,,,,,,,,,,,,,,,1000,20,Woman,Right,3,40,0.4,1,0,-,180,0.7255780000000414,['y'],1.4707720000001245,1.0,2321.0368408000004,,,,,1000,20,Woman,Right,
,,,,,,,,,,,,,,,,,1000,20,Woman,Right,3,43,0.4,2,180,0,0,0.5900517000000036,['y'],1.470420600000125,1.3900000000000001,2326.7539667,,,,,1000,20,Woman,Right,
,,,,,,,,,,,,,,,,,1000,20,Woman,Right,3,26,0.4,1,180,-,0,0.43379330000016125,['y'],1.0621155999997427,1.554,2334.1883430999997,,,,,1000,20,Woman,Right,
,,,,,,,,,,,,,,,,,1000,20,Woman,Right,3,65,0.15,2,0,180,180,1.3173673000001145,['y'],1.0304550000000745,1.3559999999999999,2342.2375723000005,,,,,1000,20,Woman,Right,
,,,,,,,,,,,,,,,,,1000,20,Woman,Right,3,41,0.4,2,0,180,180,0.6164722999997139,['y'],3.462797099999989,1.6320000000000001,2349.6556892999997,,,,,1000,20,Woman,Right,
,,,,,,,,,,,,,,,,,1000,20,Woman,Right,3,32,0.4,1,0,-,0,1.4860945999998876,['y'],0.7908465000000433,1.444,2354.5540247999998,,,,,1000,20,Woman,Right,
,,,,,,,,,,,,,,,,,1000,20,Woman,Right,3,3,1,2,180,0,0,0.7334510999999111,['y'],0.5985310000000936,1.5819999999999999,2359.1378212,,,,,1000,20,Woman,Right,
,,,,,,,,,,,,,,,,,1000,20,Woman,Right,3,78,0.15,1,180,-,0,0.50704769999993,['y'],0.6946969000000536,1.5819999999999999,2364.0542349999996,,,,,1000,20,Woman,Right,
,,,,,,,,,,,,,,,,,1000,20,Woman,Right,3,11,0.4,2,180,0,0,0.43883759999971517,['y'],0.7023879999997007,1.6680000000000001,2368.0705553999996,,,,,1000,20,Woman,Right,
,,,,,,,,,,,,,,,,,1000,20,Woman,Right,3,2,1,1,180,-,180,0.8313272999998844,['n'],0.558728400000291,1.6680000000000001,2368.0705553999996,,,,,1000,20,Woman,Right,
,,,,,,,,,,,,,,,,,1000,20,Woman,Right,3,22,0.4,1,180,-,180,0.7533266000000367,['n'],0.8867212000000109,1.556,2377.6532568000002,,,,,1000,20,Woman,Right,
,,,,,,,,,,,,,,,,,1000,20,Woman,Right,3,63,0.15,2,180,0,0,2.2484386000000995,['y'],1.478718200000003,1.0,2384.1211408,,,,,1000,20,Woman,Right,
,,,,,,,,,,,,,,,,,1000,20,Woman,Right,3,0,1,1,0,-,0,0.3713437999999769,['n'],1.3905094000001554,1.44,2389.4040250999997,,,,,1000,20,Woman,Right,
,,,,,,,,,,,,,,,,,1000,20,Woman,Right,3,17,0.4,2,0,180,180,3.0898701000000983,['n'],4.206874700000299,1.0,2399.3374599999997,,,,,1000,20,Woman,Right,
,,,,,,,,,,,,,,,,,1000,20,Woman,Right,3,20,0.4,1,0,-,180,0.8328335000001061,['n'],5.603377599999931,1.0,2408.6209234999997,,,,,1000,20,Woman,Right,
,,,,,,,,,,,,,,,,,1000,20,Woman,Right,3,45,0.15,2,0,180,0,0.5782562999997936,['n'],1.2384952000002158,1.0,2408.6209234999997,,,,,1000,20,Woman,Right,
,,,,,,,,,,,,,,,,,1000,20,Woman,Right,3,16,0.4,1,0,-,180,1.1368801999997231,['y'],0.44650689999980386,1.0,2417.5536258,,,,,1000,20,Woman,Right,
,,,,,,,,,,,,,,,,,1000,20,Woman,Right,3,53,0.15,2,0,180,180,0.5711332999999286,['n'],0.6304571999999098,1.248,2422.1535121999996,,,,,1000,20,Woman,Right,
,,,,,,,,,,,,,,,,,1000,20,Woman,Right,4,59,0.15,2,180,0,180,1.2145792000001165,['y'],1.0864520000000084,1.312,2477.3702451999998,570.0,62.5,75.0,,1000,20,Woman,Right,
,,,,,,,,,,,,,,,,,1000,20,Woman,Right,4,55,0.15,2,180,0,0,0.9916589999997996,['y'],1.5106297000002087,1.262,2483.2026926,,,,,1000,20,Woman,Right,
,,,,,,,,,,,,,,,,,1000,20,Woman,Right,4,78,0.15,1,180,-,0,1.436034600000312,['y'],0.8061642000002394,1.0,2488.5698334,,,,,1000,20,Woman,Right,
,,,,,,,,,,,,,,,,,1000,20,Woman,Right,4,61,0.15,2,0,180,0,0.5619718999996621,['n'],0.7985045000000355,1.584,2494.3027325000003,,,,,1000,20,Woman,Right,
,,,,,,,,,,,,,,,,,1000,20,Woman,Right,4,33,0.4,2,0,180,180,1.6764370000000781,['y'],0.6468488000000434,1.592,2499.8023408999998,,,,,1000,20,Woman,Right,
,,,,,,,,,,,,,,,,,1000,20,Woman,Right,4,70,0.15,1,180,-,0,0.3457809999999881,['n'],0.7429188999999496,1.264,2503.5030175,,,,,1000,20,Woman,Right,
,,,,,,,,,,,,,,,,,1000,20,Woman,Right,4,44,0.15,1,0,-,0,0.44297110000024986,['n'],0.7188790000000154,1.0,2507.386109,,,,,1000,20,Woman,Right,
,,,,,,,,,,,,,,,,,1000,20,Woman,Right,4,65,0.15,2,0,180,0,0.4501676999998381,['n'],0.9983452999999827,1.0,2511.6700047000004,,,,,1000,20,Woman,Right,
,,,,,,,,,,,,,,,,,1000,20,Woman,Right,4,0,1,1,0,-,0,0.7109663999999611,['n'],0.4789811999999074,1.696,2517.1195403,,,,,1000,20,Woman,Right,
,,,,,,,,,,,,,,,,,1000,20,Woman,Right,4,68,0.15,1,0,-,0,1.3187438999998449,['n'],1.7503473000001577,1.3559999999999999,2526.6523803,,,,,1000,20,Woman,Right,
,,,,,,,,,,,,,,,,,1000,20,Woman,Right,4,48,0.15,1,0,-,0,0.30495079999991503,['n'],0.7022633000001406,1.068,2530.3030750999997,,,,,1000,20,Woman,Right,
,,,,,,,,,,,,,,,,,1000,20,Woman,Right,4,39,0.4,2,180,0,0,0.6472813000000315,['y'],0.678424200000336,1.246,2534.3024635,,,,,1000,20,Woman,Right,
,,,,,,,,,,,,,,,,,1000,20,Woman,Right,4,24,0.4,1,0,-,0,1.252783399999771,['y'],0.6704647999999906,1.212,2538.9700826999997,,,,,1000,20,Woman,Right,
,,,,,,,,,,,,,,,,,1000,20,Woman,Right,4,3,1,2,180,0,0,0.5002078000002257,['y'],0.8143198999996457,1.75,2543.1195758000003,,,,,1000,20,Woman,Right,
,,,,,,,,,,,,,,,,,1000,20,Woman,Right,4,28,0.4,1,0,-,0,0.742770500000006,['n'],0.5904307999999219,1.0,2547.5700306999997,,,,,1000,20,Woman,Right,
,,,,,,,,,,,,,,,,,1000,20,Woman,Right,4,13,0.4,2,0,180,180,0.7913846999999805,['y'],0.7347024000000602,1.832,2552.4695204,,,,,1000,20,Woman,Right,
,,,,,,,,,,,,,,,,,1000,20,Woman,Right,4,47,0.15,2,180,0,180,0.7757858999998462,['n'],1.7182279999997263,1.0,2558.2863582,,,,,1000,20,Woman,Right,
,,,,,,,,,,,,,,,,,1000,20,Woman,Right,4,22,0.4,1,180,-,180,0.39219169999978476,['n'],1.9744974000000184,1.0,2563.5195242,,,,,1000,20,Woman,Right,
,,,,,,,,,,,,,,,,,1000,20,Woman,Right,4,35,0.4,2,180,0,0,1.3663727999996809,['y'],0.6703510000002098,1.0,2568.2357648999996,,,,,1000,20,Woman,Right,
,,,,,,,,,,,,,,,,,1000,20,Woman,Right,4,14,0.4,1,180,-,180,1.1137166999997135,['n'],0.7503317999999126,1.276,2574.1024061999997,,,,,1000,20,Woman,Right,
,,,,,,,,,,,,,,,,,1000,20,Woman,Right,4,72,0.15,1,0,-,180,3.157167600000321,['n'],1.8548679000000448,1.0,2581.7710638,,,,,1000,20,Woman,Right,
,,,,,,,,,,,,,,,,,1000,20,Woman,Right,4,53,0.15,2,0,180,180,1.4420078999996804,['n'],0.7826430999998593,1.02,2586.6864877,,,,,1000,20,Woman,Right,
,,,,,,,,,,,,,,,,,1000,20,Woman,Right,4,51,0.15,2,180,0,0,0.4855902999997852,['n'],0.6706666000000041,1.0,2590.4861134000002,,,,,1000,20,Woman,Right,
,,,,,,,,,,,,,,,,,1000,20,Woman,Right,4,32,0.4,1,0,-,0,0.7689914000002318,['n'],1.174525899999935,1.0,2595.2189115,,,,,1000,20,Woman,Right,
,,,,,,,,,,,,,,,,,1000,20,Woman,Right,4,10,0.4,1,180,-,180,1.6201461000000563,['y'],0.7588071999998647,1.0,2600.453028,,,,,1000,20,Woman,Right,
,,,,,,,,,,,,,,,,,1000,20,Woman,Right,4,45,0.15,2,0,180,0,0.6826605999999629,['n'],0.9428921000003356,1.0,2604.8524590999996,,,,,1000,20,Woman,Right,
,,,,,,,,,,,,,,,,,1000,20,Woman,Right,4,69,0.15,2,0,180,0,3.7746344000001955,['n'],4.238003599999956,1.0,2615.8533452,,,,,1000,20,Woman,Right,
,,,,,,,,,,,,,,,,,1000,20,Woman,Right,4,23,0.4,2,180,0,0,0.7149397999996836,['y'],0.9825671999997212,1.58,2620.9187216,,,,,1000,20,Woman,Right,
,,,,,,,,,,,,,,,,,1000,20,Woman,Right,4,29,0.4,2,0,180,180,1.1761188000000402,['y'],0.686606700000084,1.588,2625.3536592,,,,,1000,20,Woman,Right,
,,,,,,,,,,,,,,,,,1000,20,Woman,Right,4,42,0.4,1,180,-,180,0.4999051999998301,['n'],2.1607781999996405,1.552,2631.0362274999998,,,,,1000,20,Woman,Right,
,,,,,,,,,,,,,,,,,1000,20,Woman,Right,4,30,0.4,1,180,-,180,0.8011492999999064,['n'],0.44653489999973317,1.552,2631.0362274999998,,,,,1000,20,Woman,Right,
,,,,,,,,,,,,,,,,,1000,20,Woman,Right,4,79,0.15,2,180,0,180,0.8529019000002336,['n'],1.166563899999801,1.0,2640.5696782000005,,,,,1000,20,Woman,Right,
,,,,,,,,,,,,,,,,,1000,20,Woman,Right,4,20,0.4,1,0,-,0,0.8127067999998872,['y'],0.7268407000001389,1.216,2644.7194326999997,,,,,1000,20,Woman,Right,
,,,,,,,,,,,,,,,,,1000,20,Woman,Right,4,71,0.15,2,180,0,180,0.4632707000000664,['n'],1.9988119999998162,1.0,2649.8187203999996,,,,,1000,20,Woman,Right,
,,,,,,,,,,,,,,,,,1000,20,Woman,Right,4,66,0.15,1,180,-,180,1.7215541000000485,['n'],4.718926600000032,1.254,2659.5358245999996,,,,,1000,20,Woman,Right,
,,,,,,,,,,,,,,,,,1000,20,Woman,Right,4,43,0.4,2,180,0,0,0.6951936999998907,['y'],1.33483410000008,1.588,2664.3522682000003,,,,,1000,20,Woman,Right,
,,,,,,,,,,,,,,,,,1000,20,Woman,Right,4,34,0.4,1,180,-,180,0.6859537000000273,['n'],0.5983135999999831,1.252,2668.5852289000004,,,,,1000,20,Woman,Right,
,,,,,,,,,,,,,,,,,1000,20,Woman,Right,4,64,0.15,1,0,-,0,0.3399671000001945,['n'],1.1984477999999399,1.268,2672.8349563,,,,,1000,20,Woman,Right,
,,,,,,,,,,,,,,,,,1000,20,Woman,Right,4,19,0.4,2,180,0,0,0.6292997000000469,['y'],0.5985416999997142,1.744,2677.651734,,,,,1000,20,Woman,Right,
,,,,,,,,,,,,,,,,,1000,20,Woman,Right,4,26,0.4,1,180,-,180,0.6905794999997852,['n'],0.7103455000001304,1.288,2681.9019596999997,,,,,1000,20,Woman,Right,
,,,,,,,,,,,,,,,,,1000,20,Woman,Right,4,77,0.15,2,0,180,0,0.7675163999997494,['y'],1.1108443000002808,1.396,2686.4349023000004,,,,,1000,20,Woman,Right,
,,,,,,,,,,,,,,,,,1000,20,Woman,Right,4,12,0.4,1,0,-,0,0.360160299999734,['n'],0.8229805999999371,1.572,2690.5523860000003,,,,,1000,20,Woman,Right,
,,,,,,,,,,,,,,,,,1000,20,Woman,Right,4,2,1,1,180,-,180,0.4441633000001275,['n'],0.6469314999999369,2.0,2694.5511938,,,,,1000,20,Woman,Right,
,,,,,,,,,,,,,,,,,1000,20,Woman,Right,4,50,0.15,1,180,-,180,0.6955464000002394,['n'],2.766508000000158,1.304,2701.9192383,,,,,1000,20,Woman,Right,
,,,,,,,,,,,,,,,,,1000,20,Woman,Right,4,9,0.4,2,0,180,180,1.3276428999997734,['y'],0.4065009999999347,1.8519999999999999,2706.8516870000003,,,,,1000,20,Woman,Right,
,,,,,,,,,,,,,,,,,1000,20,Woman,Right,4,75,0.15,2,180,0,180,1.0656041000002006,['n'],0.5267377999998644,1.0,2711.1185778,,,,,1000,20,Woman,Right,
,,,,,,,,,,,,,,,,,1000,20,Woman,Right,4,58,0.15,1,180,-,180,0.5327658999999585,['n'],0.7104682999997749,1.0,2715.0527502000004,,,,,1000,20,Woman,Right,
,,,,,,,,,,,,,,,,,1000,20,Woman,Right,4,5,1,2,0,180,180,0.9493612999999641,['y'],5.014407199999823,1.94,2724.284528,,,,,1000,20,Woman,Right,
,,,,,,,,,,,,,,,,,1000,20,Woman,Right,4,49,0.15,2,0,180,0,1.1126061999998456,['y'],1.3587145999999848,1.176,2729.4521707000004,,,,,1000,20,Woman,Right,
,,,,,,,,,,,,,,,,,1000,20,Woman,Right,4,1,1,2,0,180,180,0.5928109999999833,['y'],0.6226666000002297,2.0,2733.5846668000004,,,,,1000,20,Woman,Right,
,,,,,,,,,,,,,,,,,1000,20,Woman,Right,4,8,0.4,1,0,-,0,0.4006677000002128,['n'],0.7106665000001158,1.798,2737.4689065000002,,,,,1000,20,Woman,Right,
,,,,,,,,,,,,,,,,,1000,20,Woman,Right,4,6,1,1,180,-,180,0.41458849999980885,['y'],0.7826792000000751,1.0,2742.1851052,,,,,1000,20,Woman,Right,
,,,,,,,,,,,,,,,,,1000,20,Woman,Right,4,31,0.4,2,180,0,180,1.425246700000116,['n'],0.7827111000001423,1.5979999999999999,2747.5522277,,,,,1000,20,Woman,Right,
,,,,,,,,,,,,,,,,,1000,20,Woman,Right,4,60,0.15,1,0,-,180,1.0700934000001325,['n'],0.9906107000001612,1.0,2753.101316,,,,,1000,20,Woman,Right,
,,,,,,,,,,,,,,,,,1000,20,Woman,Right,4,63,0.15,2,180,0,0,0.5497178999999051,['n'],1.1589711999999963,1.0,2758.0184781,,,,,1000,20,Woman,Right,
,,,,,,,,,,,,,,,,,1000,20,Woman,Right,4,18,0.4,1,180,-,180,1.1033832999996775,['n'],5.278730799999721,1.3900000000000001,2767.767981,,,,,1000,20,Woman,Right,
,,,,,,,,,,,,,,,,,1000,20,Woman,Right,4,21,0.4,2,0,180,180,2.758932100000038,['y'],0.3504417999997713,1.556,2774.9349653,,,,,1000,20,Woman,Right,
,,,,,,,,,,,,,,,,,1000,20,Woman,Right,4,25,0.4,2,0,180,180,1.3505848999998307,['y'],1.3348618999998507,1.822,2781.5188024,,,,,1000,20,Woman,Right,
,,,,,,,,,,,,,,,,,1000,20,Woman,Right,4,73,0.15,2,0,180,0,0.5987706999999318,['n'],1.1908510000002934,1.1019999999999999,2786.4019848,,,,,1000,20,Woman,Right,
,,,,,,,,,,,,,,,,,1000,20,Woman,Right,4,56,0.15,1,0,-,0,0.9089030000000093,['n'],1.1988777000001392,1.16,2791.518054,,,,,1000,20,Woman,Right,
,,,,,,,,,,,,,,,,,1000,20,Woman,Right,4,54,0.15,1,180,-,0,0.6866310999998859,['n'],1.222949299999982,1.1099999999999999,2796.3175024,,,,,1000,20,Woman,Right,
,,,,,,,,,,,,,,,,,1000,20,Woman,Right,4,27,0.4,2,180,0,0,1.8796595999997407,['y'],0.6864694999999301,1.212,2802.1517685999997,,,,,1000,20,Woman,Right,
,,,,,,,,,,,,,,,,,1000,20,Woman,Right,4,36,0.4,1,0,-,180,0.46926070000017717,['n'],0.8783883000000969,1.23,2806.4850288,,,,,1000,20,Woman,Right,
,,,,,,,,,,,,,,,,,1000,20,Woman,Right,4,7,1,2,180,0,0,1.0170241999999234,['y'],0.7651940999999169,2.0,2810.8344599,,,,,1000,20,Woman,Right,
,,,,,,,,,,,,,,,,,1000,20,Woman,Right,4,62,0.15,1,180,-,180,0.5128187000000253,['n'],0.6305637000000388,1.166,2814.6846162,,,,,1000,20,Woman,Right,
,,,,,,,,,,,,,,,,,1000,20,Woman,Right,4,41,0.4,2,0,180,180,1.1844422999997732,['y'],0.7027682000002642,1.6560000000000001,2819.101431,,,,,1000,20,Woman,Right,
,,,,,,,,,,,,,,,,,1000,20,Woman,Right,4,4,1,1,0,-,0,0.4882599999996273,['y'],1.326604800000041,1.3980000000000001,2823.8346143999997,,,,,1000,20,Woman,Right,
,,,,,,,,,,,,,,,,,1000,20,Woman,Right,4,40,0.4,1,0,-,0,0.4463666000001467,['n'],2.5505339000001186,1.32,2829.6018685,,,,,1000,20,Woman,Right,
,,,,,,,,,,,,,,,,,1000,20,Woman,Right,4,11,0.4,2,180,0,180,0.666586400000142,['y'],0.8146494999996321,1.104,2833.8675200999996,,,,,1000,20,Woman,Right,
,,,,,,,,,,,,,,,,,1000,20,Woman,Right,4,37,0.4,2,0,180,180,1.3608103000001393,['n'],0.8225814000002174,1.0,2838.7179095,,,,,1000,20,Woman,Right,
,,,,,,,,,,,,,,,,,1000,20,Woman,Right,4,15,0.4,2,180,0,0,0.9348377999999684,['y'],1.2629062000000886,1.138,2843.7018605000003,,,,,1000,20,Woman,Right,
,,,,,,,,,,,,,,,,,1000,20,Woman,Right,4,38,0.4,1,180,-,180,0.5991051999999399,['n'],0.5423942000002171,1.0,2847.7682400000003,,,,,1000,20,Woman,Right,
,,,,,,,,,,,,,,,,,1000,20,Woman,Right,4,16,0.4,1,0,-,0,1.8448284000000967,['n'],1.190075699999852,1.0,2854.2849615000005,,,,,1000,20,Woman,Right,
,,,,,,,,,,,,,,,,,1000,20,Woman,Right,4,52,0.15,1,0,-,180,2.015250299999934,['n'],1.1264550000000781,1.0,2860.3336842,,,,,1000,20,Woman,Right,
,,,,,,,,,,,,,,,,,1000,20,Woman,Right,4,76,0.15,1,0,-,180,0.5528859000000921,['n'],1.1664215000000695,1.04,2865.4173696999997,,,,,1000,20,Woman,Right,
,,,,,,,,,,,,,,,,,1000,20,Woman,Right,4,74,0.15,1,180,-,180,1.0574599999999919,['n'],0.8461655999999493,1.0,2870.1178873,,,,,1000,20,Woman,Right,
,,,,,,,,,,,,,,,,,1000,20,Woman,Right,4,67,0.15,2,180,0,180,0.862127099999725,['n'],0.766433600000255,1.0,2874.7181567999996,,,,,1000,20,Woman,Right,
,,,,,,,,,,,,,,,,,1000,20,Woman,Right,4,57,0.15,2,0,180,180,1.0226787000001423,['n'],1.0944338999997854,1.0,2879.8014795999998,,,,,1000,20,Woman,Right,
,,,,,,,,,,,,,,,,,1000,20,Woman,Right,4,46,0.15,1,180,-,180,0.941912400000092,['n'],0.8145129999998062,1.0,2884.6338901,,,,,1000,20,Woman,Right,
,,,,,,,,,,,,,,,,,1000,20,Woman,Right,4,17,0.4,2,0,180,180,1.2104914999999892,['y'],1.1504641999999876,1.7,2892.7011322,,,,,1000,20,Woman,Right,
,,,,,,,,,,,,,,,,,1000,20,Woman,Right,5,36,0.4,1,0,-,0,1.7966175000001385,['y'],0.4945161000000553,1.012,2922.1503433999997,570.0,85.0,60.0,,1000,20,Woman,Right,
,,,,,,,,,,,,,,,,,1000,20,Woman,Right,5,55,0.15,2,180,0,0,1.1866014000001996,['y'],0.42261839999991935,1.0,2926.3839509,,,,,1000,20,Woman,Right,
,,,,,,,,,,,,,,,,,1000,20,Woman,Right,5,5,1,2,0,180,180,0.5828870999998799,['y'],0.5250965999998698,2.0,2930.4010399999997,,,,,1000,20,Woman,Right,
,,,,,,,,,,,,,,,,,1000,20,Woman,Right,5,22,0.4,1,180,-,180,0.3221091999998862,['n'],0.7583687999999711,1.236,2934.1679383,,,,,1000,20,Woman,Right,
,,,,,,,,,,,,,,,,,1000,20,Woman,Right,5,72,0.15,1,0,-,180,2.0785476000000926,['y'],1.0466169000001173,1.278,2939.9007119,,,,,1000,20,Woman,Right,
,,,,,,,,,,,,,,,,,1000,20,Woman,Right,5,60,0.15,1,0,-,0,0.6480871999997362,['n'],2.6937348999999813,1.188,2945.9509827,,,,,1000,20,Woman,Right,
,,,,,,,,,,,,,,,,,1000,20,Woman,Right,5,69,0.15,2,0,180,180,0.7754487000001973,['y'],0.8065728999999919,1.178,2950.3512266,,,,,1000,20,Woman,Right,
,,,,,,,,,,,,,,,,,1000,20,Woman,Right,5,29,0.4,2,0,180,180,0.7824801000001571,['y'],0.7102261999998518,1.836,2955.2333952,,,,,1000,20,Woman,Right,
,,,,,,,,,,,,,,,,,1000,20,Woman,Right,5,45,0.15,2,0,180,180,0.37085419999993974,['y'],0.7267179000000397,1.88,2959.2009866,,,,,1000,20,Woman,Right,
,,,,,,,,,,,,,,,,,1000,20,Woman,Right,5,75,0.15,2,180,0,180,0.706498599999577,['y'],0.8548626000001605,1.92,2963.7172154,,,,,1000,20,Woman,Right,
,,,,,,,,,,,,,,,,,1000,20,Woman,Right,5,35,0.4,2,180,0,180,1.160362200000236,['y'],1.30242459999954,1.448,2970.0343327,,,,,1000,20,Woman,Right,
,,,,,,,,,,,,,,,,,1000,20,Woman,Right,5,56,0.15,1,0,-,0,1.5156863000001977,['n'],1.4627049000000625,1.0,2975.6009668000006,,,,,1000,20,Woman,Right,
,,,,,,,,,,,,,,,,,1000,20,Woman,Right,5,76,0.15,1,0,-,180,0.5870168000001286,['y'],1.5584717000001547,1.626,2980.8010305,,,,,1000,20,Woman,Right,
,,,,,,,,,,,,,,,,,1000,20,Woman,Right,5,6,1,1,180,-,180,0.6216526999996859,['n'],0.5107212000002619,1.57,2984.5170588,,,,,1000,20,Woman,Right,
,,,,,,,,,,,,,,,,,1000,20,Woman,Right,5,32,0.4,1,0,-,0,0.6796003999997993,['n'],0.6224984999998924,1.08,2988.3500409,,,,,1000,20,Woman,Right,
,,,,,,,,,,,,,,,,,1000,20,Woman,Right,5,17,0.4,2,0,180,180,1.7669223000002603,['y'],0.806200600000011,1.218,2993.7674487000004,,,,,1000,20,Woman,Right,
,,,,,,,,,,,,,,,,,1000,20,Woman,Right,5,7,1,2,180,0,0,0.9115820000006352,['y'],1.2865007999998852,1.726,3001.9336208000004,,,,,1000,20,Woman,Right,
,,,,,,,,,,,,,,,,,1000,20,Woman,Right,5,12,0.4,1,0,-,180,1.5830738999993628,['y'],3.054499599999872,1.6680000000000001,3011.0338325000002,,,,,1000,20,Woman,Right,
,,,,,,,,,,,,,,,,,1000,20,Woman,Right,5,27,0.4,2,180,0,0,0.478138399999807,['y'],1.486832499999764,1.732,3015.7835188,,,,,1000,20,Woman,Right,
,,,,,,,,,,,,,,,,,1000,20,Woman,Right,5,30,0.4,1,180,-,0,0.4534293000006073,['y'],0.7107488000001467,1.47,3019.7839520000007,,,,,1000,20,Woman,Right,
,,,,,,,,,,,,,,,,,1000,20,Woman,Right,5,9,0.4,2,0,180,180,0.8031824999998207,['y'],0.7983657000004314,1.446,3024.0331385,,,,,1000,20,Woman,Right,
,,,,,,,,,,,,,,,,,1000,20,Woman,Right,5,71,0.15,2,180,0,0,0.6883518000004187,['n'],0.6786314000000857,1.142,3028.1168975,,,,,1000,20,Woman,Right,
,,,,,,,,,,,,,,,,,1000,20,Woman,Right,5,20,0.4,1,0,-,0,0.4637825999998313,['n'],0.6545626999995875,1.0,3032.0172857000007,,,,,1000,20,Woman,Right,
,,,,,,,,,,,,,,,,,1000,20,Woman,Right,5,57,0.15,2,0,180,180,0.6873711999996885,['y'],1.2067735999999059,1.3719999999999999,3037.9497105,,,,,1000,20,Woman,Right,
,,,,,,,,,,,,,,,,,1000,20,Woman,Right,5,28,0.4,1,0,-,180,2.902262100000371,['y'],1.1267470000002504,1.0,3044.4832681,,,,,1000,20,Woman,Right,
,,,,,,,,,,,,,,,,,1000,20,Woman,Right,5,21,0.4,2,0,180,180,0.7182581000006394,['y'],1.1266584999993938,1.554,3049.4493706000003,,,,,1000,20,Woman,Right,
,,,,,,,,,,,,,,,,,1000,20,Woman,Right,5,61,0.15,2,0,180,180,0.8231169000000591,['y'],2.0469649999995454,1.174,3055.2660879000005,,,,,1000,20,Woman,Right,
,,,,,,,,,,,,,,,,,1000,20,Woman,Right,5,51,0.15,2,180,0,180,1.2335408999997526,['n'],0.9827232000006916,1.0,3060.482935,,,,,1000,20,Woman,Right,
,,,,,,,,,,,,,,,,,1000,20,Woman,Right,5,0,1,1,0,-,0,0.41512819999934436,['n'],0.654674100000193,2.0,3064.8494205000006,,,,,1000,20,Woman,Right,
,,,,,,,,,,,,,,,,,1000,20,Woman,Right,5,73,0.15,2,0,180,0,2.0871438000003764,['y'],3.494729600000028,1.216,3073.6160519000005,,,,,1000,20,Woman,Right,
,,,,,,,,,,,,,,,,,1000,20,Woman,Right,5,16,0.4,1,0,-,0,0.3870725000006132,['n'],1.4066833999995652,1.626,3078.8826268000003,,,,,1000,20,Woman,Right,
,,,,,,,,,,,,,,,,,1000,20,Woman,Right,5,33,0.4,2,0,180,180,1.1706427999997686,['y'],1.0145285999997213,1.12,3084.2831405000006,,,,,1000,20,Woman,Right,
,,,,,,,,,,,,,,,,,1000,20,Woman,Right,5,8,0.4,1,0,-,0,0.609631299999819,['n'],0.6784004000001005,1.0,3088.3661805,,,,,1000,20,Woman,Right,
,,,,,,,,,,,,,,,,,1000,20,Woman,Right,5,25,0.4,2,0,180,180,0.577194700000291,['y'],2.2628631999996287,1.0,3094.3170822,,,,,1000,20,Woman,Right,
,,,,,,,,,,,,,,,,,1000,20,Woman,Right,5,64,0.15,1,0,-,180,0.622981599999548,['y'],1.1188776000008147,1.0,3098.7998753,,,,,1000,20,Woman,Right,
,,,,,,,,,,,,,,,,,1000,20,Woman,Right,5,4,1,1,0,-,0,0.4591105999998035,['n'],2.422679000000244,1.596,3107.5504447000003,,,,,1000,20,Woman,Right,
,,,,,,,,,,,,,,,,,1000,20,Woman,Right,5,48,0.15,1,0,-,180,1.3830933999997796,['y'],0.37740349999967293,1.62,3112.5838585,,,,,1000,20,Woman,Right,
,,,,,,,,,,,,,,,,,1000,20,Woman,Right,5,39,0.4,2,180,0,0,0.613230900000417,['y'],1.3826312000001053,1.6179999999999999,3117.1005601000006,,,,,1000,20,Woman,Right,
,,,,,,,,,,,,,,,,,1000,20,Woman,Right,5,65,0.15,2,0,180,0,0.7601270999994085,['y'],1.1665411000003587,1.078,3121.6333054000006,,,,,1000,20,Woman,Right,
,,,,,,,,,,,,,,,,,1000,20,Woman,Right,5,26,0.4,1,180,-,180,1.7796798999997918,['n'],2.3584181999995053,1.314,3128.7822107,,,,,1000,20,Woman,Right,
,,,,,,,,,,,,,,,,,1000,20,Woman,Right,5,77,0.15,2,0,180,0,2.2692548000004535,['y'],1.5587872000005518,1.0,3135.8334754000007,,,,,1000,20,Woman,Right,
,,,,,,,,,,,,,,,,,1000,20,Woman,Right,5,74,0.15,1,180,-,180,1.8107927999999447,['y'],0.9105155999995986,1.0,3141.1997763,,,,,1000,20,Woman,Right,
,,,,,,,,,,,,,,,,,1000,20,Woman,Right,5,62,0.15,1,180,-,0,2.131182300000546,['y'],0.6148817999992389,1.0,3146.7345245000006,,,,,1000,20,Woman,Right,
,,,,,,,,,,,,,,,,,1000,20,Woman,Right,5,14,0.4,1,180,-,0,0.821993300000031,['y'],1.2381761000006009,1.0,3151.7828025,,,,,1000,20,Woman,Right,
,,,,,,,,,,,,,,,,,1000,20,Woman,Right,5,42,0.4,1,180,-,180,0.5748400000002221,['n'],0.6304485999999088,1.0,3156.0485674,,,,,1000,20,Woman,Right,
,,,,,,,,,,,,,,,,,1000,20,Woman,Right,5,10,0.4,1,180,-,180,0.3970539000001736,['n'],0.8303871999996773,1.674,3160.4489584000003,,,,,1000,20,Woman,Right,
,,,,,,,,,,,,,,,,,1000,20,Woman,Right,5,49,0.15,2,0,180,0,1.599360200000774,['y'],0.8787880999998379,1.0,3165.7660075000003,,,,,1000,20,Woman,Right,
,,,,,,,,,,,,,,,,,1000,20,Woman,Right,5,66,0.15,1,180,-,180,1.5539608999997654,['y'],0.8468893999997817,1.0,3170.9989114,,,,,1000,20,Woman,Right,
,,,,,,,,,,,,,,,,,1000,20,Woman,Right,5,67,0.15,2,180,0,0,0.5448581999999078,['y'],0.7426295000004757,1.616,3175.2494944,,,,,1000,20,Woman,Right,
,,,,,,,,,,,,,,,,,1000,20,Woman,Right,5,79,0.15,2,180,0,0,0.521875700000237,['y'],0.8149198000000979,1.0,3179.5321856,,,,,1000,20,Woman,Right,
,,,,,,,,,,,,,,,,,1000,20,Woman,Right,5,54,0.15,1,180,-,180,0.6596188000003167,['y'],2.414542999999867,1.0,3185.7499022,,,,,1000,20,Woman,Right,
,,,,,,,,,,,,,,,,,1000,20,Woman,Right,5,63,0.15,2,180,0,0,1.012301299999308,['y'],1.014484899999843,1.104,3190.5331761000007,,,,,1000,20,Woman,Right,
,,,,,,,,,,,,,,,,,1000,20,Woman,Right,5,70,0.15,1,180,-,0,0.7185685000004014,['y'],0.8464489999996658,1.21,3194.8161174000006,,,,,1000,20,Woman,Right,
,,,,,,,,,,,,,,,,,1000,20,Woman,Right,5,2,1,1,180,-,180,0.6455147999995461,['n'],0.830664600000091,1.692,3199.1998008,,,,,1000,20,Woman,Right,
,,,,,,,,,,,,,,,,,1000,20,Woman,Right,5,43,0.4,2,180,0,0,0.6283885000002556,['y'],1.1184315000000424,1.564,3203.6828039,,,,,1000,20,Woman,Right,
,,,,,,,,,,,,,,,,,1000,20,Woman,Right,5,47,0.15,2,180,0,180,2.2563202999999703,['n'],3.5988595999997415,1.294,3212.2329998000005,,,,,1000,20,Woman,Right,
,,,,,,,,,,,,,,,,,1000,20,Woman,Right,5,68,0.15,1,0,-,0,0.43351540000003297,['n'],0.8348782000002757,1.0,3215.9824936000005,,,,,1000,20,Woman,Right,
,,,,,,,,,,,,,,,,,1000,20,Woman,Right,5,37,0.4,2,0,180,0,1.6935452999996414,['y'],1.0860374000003503,1.42,3221.9167787000006,,,,,1000,20,Woman,Right,
,,,,,,,,,,,,,,,,,1000,20,Woman,Right,5,19,0.4,2,180,0,0,0.8315334999997503,['y'],0.9187121999993906,1.0,3226.4828924000003,,,,,1000,20,Woman,Right,
,,,,,,,,,,,,,,,,,1000,20,Woman,Right,5,3,1,2,180,0,0,0.5041302999998152,['y'],0.7265071000001626,2.0,3230.3824502000007,,,,,1000,20,Woman,Right,
,,,,,,,,,,,,,,,,,1000,20,Woman,Right,5,24,0.4,1,0,-,0,0.4839812999998685,['n'],0.727054599999974,1.0,3234.2161645000006,,,,,1000,20,Woman,Right,
,,,,,,,,,,,,,,,,,1000,20,Woman,Right,5,78,0.15,1,180,-,0,0.42683239999951184,['y'],0.7588402999999744,1.0,3238.0326982000006,,,,,1000,20,Woman,Right,
,,,,,,,,,,,,,,,,,1000,20,Woman,Right,5,11,0.4,2,180,0,0,0.9123021999994307,['y'],0.7428178999998636,1.1019999999999999,3242.4656407,,,,,1000,20,Woman,Right,
,,,,,,,,,,,,,,,,,1000,20,Woman,Right,5,44,0.15,1,0,-,0,0.28798550000010437,['n'],0.6384420999993381,1.226,3246.1656147000003,,,,,1000,20,Woman,Right,
,,,,,,,,,,,,,,,,,1000,20,Woman,Right,5,58,0.15,1,180,-,0,0.4395957999995517,['n'],1.1429275000000416,1.0,3250.7996031000002,,,,,1000,20,Woman,Right,
,,,,,,,,,,,,,,,,,1000,20,Woman,Right,5,23,0.4,2,180,0,0,1.219568600000457,['y'],1.5028801999997086,1.054,3256.3486706000003,,,,,1000,20,Woman,Right,
,,,,,,,,,,,,,,,,,1000,20,Woman,Right,5,40,0.4,1,0,-,180,0.6362744999996721,['n'],0.654751000000033,1.0,3260.6158381000005,,,,,1000,20,Woman,Right,
,,,,,,,,,,,,,,,,,1000,20,Woman,Right,5,53,0.15,2,0,180,180,1.627949799999442,['n'],1.1827066000005289,1.0,3266.2325876000004,,,,,1000,20,Woman,Right,
,,,,,,,,,,,,,,,,,1000,20,Woman,Right,5,31,0.4,2,180,0,0,0.8999905000000581,['n'],1.3026178000000073,1.0,3271.3153606000005,,,,,1000,20,Woman,Right,
,,,,,,,,,,,,,,,,,1000,20,Woman,Right,5,41,0.4,2,0,180,0,0.5781882000001133,['y'],1.702490300000136,1.0,3275.9823078,,,,,1000,20,Woman,Right,
,,,,,,,,,,,,,,,,,1000,20,Woman,Right,5,1,1,2,0,180,180,1.0759436999996979,['y'],1.1424101000002338,1.76,3280.948907,,,,,1000,20,Woman,Right,
,,,,,,,,,,,,,,,,,1000,20,Woman,Right,5,46,0.15,1,180,-,180,0.7446890999999596,['n'],2.0782884000000195,1.0,3286.3148846000004,,,,,1000,20,Woman,Right,
,,,,,,,,,,,,,,,,,1000,20,Woman,Right,5,34,0.4,1,180,-,180,0.47986200000013923,['y'],0.7668030000004364,1.0,3290.7497485000004,,,,,1000,20,Woman,Right,
,,,,,,,,,,,,,,,,,1000,20,Woman,Right,5,52,0.15,1,0,-,180,0.7159446999994543,['n'],0.9429442000000563,1.0,3295.2153264,,,,,1000,20,Woman,Right,
,,,,,,,,,,,,,,,,,1000,20,Woman,Right,5,13,0.4,2,0,180,180,1.2031915999996272,['y'],1.1507527000003392,1.0,3300.1487462000005,,,,,1000,20,Woman,Right,
,,,,,,,,,,,,,,,,,1000,20,Woman,Right,5,50,0.15,1,180,-,0,0.5425992000000406,['y'],1.1907001999998101,1.0,3304.9322388,,,,,1000,20,Woman,Right,
,,,,,,,,,,,,,,,,,1000,20,Woman,Right,5,38,0.4,1,180,-,180,0.5082572999999684,['n'],0.6545241000003443,1.0,3309.3663017,,,,,1000,20,Woman,Right,
,,,,,,,,,,,,,,,,,1000,20,Woman,Right,5,59,0.15,2,180,0,0,0.35132249999969645,['n'],0.7423957000000883,1.0,3313.0320737,,,,,1000,20,Woman,Right,
,,,,,,,,,,,,,,,,,1000,20,Woman,Right,5,18,0.4,1,180,-,180,0.6598242999998547,['n'],1.1584616999998616,1.0,3317.6985432,,,,,1000,20,Woman,Right,
,,,,,,,,,,,,,,,,,1000,20,Woman,Right,5,15,0.4,2,180,0,180,0.8723847000001115,['n'],0.654548700000305,1.0,3321.7991831,,,,,1000,20,Woman,Right,
,,,,,,,,,,,,,,,,,,,,,,,,,,,,,,,,,540.0,57.5,82.5,2992.4579820999998,,,,,
