p_block,p_section,p_coherence,p_direction1,p_direction2,p_direction_response,p_direction_RT,p_change_response,p_change_RT,p_confidence,p_full_correct,p_without5_correct,p_full_total,p_without5_total,p_full_avg,p_witout5_avg,p_total_time,sub,age,sex,handedness,loop,trial randomization,coherence,condition,direction1,direction2,direction_response,direction_RT,change_response,change_RT,change_confidence,change_confidence_RT,block_direction_avg,block_stable_avg,block_change_avg,total_time,sub,age,sex,handedness,
1,1,1.0,180,-,180,0.3629309000000376,-,-,-,,,,,,,,551,18,Woman,Left,,,,,,,,,,,,,,,,,551,18,Woman,Left,
1,1,1.0,0,-,0,0.19072129999995013,-,-,-,,,,,,,,551,18,Woman,Left,,,,,,,,,,,,,,,,,551,18,Woman,Left,
1,1,1.0,0,-,0,0.2655875999998898,-,-,-,,,,,,,,551,18,Woman,Left,,,,,,,,,,,,,,,,,551,18,Woman,Left,
1,1,1.0,180,-,180,1.2013385000000198,-,-,-,,,,,,,,551,18,Woman,Left,,,,,,,,,,,,,,,,,551,18,Woman,Left,
1,1,1.0,0,-,0,0.016717700000072,-,-,-,,,,,,,,551,18,Woman,Left,,,,,,,,,,,,,,,,,551,18,Woman,Left,
1,1,1.0,0,-,0,0.016639700000041557,-,-,-,,,,,,,,551,18,Woman,Left,,,,,,,,,,,,,,,,,551,18,Woman,Left,
1,1,1.0,180,-,180,0.016758299999992232,-,-,-,,,,,,,,551,18,Woman,Left,,,,,,,,,,,,,,,,,551,18,Woman,Left,
1,1,1.0,0,-,0,2.9506169999999656,-,-,-,,,,,,,,551,18,Woman,Left,,,,,,,,,,,,,,,,,551,18,Woman,Left,
1,1,1.0,0,-,0,0.5547477000000072,-,-,-,,,,,,,,551,18,Woman,Left,,,,,,,,,,,,,,,,,551,18,Woman,Left,
1,1,1.0,180,-,180,0.016812500000014552,-,-,-,10,10,10,10,1.0,1.0,,551,18,Woman,Left,,,,,,,,,,,,,,,,,551,18,Woman,Left,
2,1,0.4,180,-,180,0.26564540000003944,-,-,-,,,,,,,,551,18,Woman,Left,,,,,,,,,,,,,,,,,551,18,Woman,Left,
2,1,0.15,180,-,180,0.7219657999999072,-,-,-,,,,,,,,551,18,Woman,Left,,,,,,,,,,,,,,,,,551,18,Woman,Left,
2,1,0.15,0,-,0,0.016667999999981475,-,-,-,,,,,,,,551,18,Woman,Left,,,,,,,,,,,,,,,,,551,18,Woman,Left,
2,1,0.4,180,-,180,0.04846700000007331,-,-,-,,,,,,,,551,18,Woman,Left,,,,,,,,,,,,,,,,,551,18,Woman,Left,
2,1,0.4,180,-,180,0.016925799999853552,-,-,-,,,,,,,,551,18,Woman,Left,,,,,,,,,,,,,,,,,551,18,Woman,Left,
2,1,0.15,0,-,0,0.08262489999992795,-,-,-,,,,,,,,551,18,Woman,Left,,,,,,,,,,,,,,,,,551,18,Woman,Left,
2,1,0.15,180,-,180,0.016688199999862263,-,-,-,,,,,,,,551,18,Woman,Left,,,,,,,,,,,,,,,,,551,18,Woman,Left,
2,1,0.15,180,-,0,0.016753300000118543,-,-,-,,,,,,,,551,18,Woman,Left,,,,,,,,,,,,,,,,,551,18,Woman,Left,
2,1,0.15,180,-,180,0.15557349999994585,-,-,-,,,,,,,,551,18,Woman,Left,,,,,,,,,,,,,,,,,551,18,Woman,Left,
2,1,0.4,180,-,180,0.016520700000000943,-,-,-,9,4,10,4,0.9,1.0,,551,18,Woman,Left,,,,,,,,,,,,,,,,,551,18,Woman,Left,
3,2,1.0,180,0,180,0.016652900000053705,['y'],3.3824220000001333,2,,,,,,,,551,18,Woman,Left,,,,,,,,,,,,,,,,,551,18,Woman,Left,
3,2,1.0,0,180,180,3.501068499999974,['y'],1.4659867000000304,2.0,,,,,,,,551,18,Woman,Left,,,,,,,,,,,,,,,,,551,18,Woman,Left,
3,2,1.0,0,180,0,1.2487914999999248,['y'],1.4246060000000398,2.0,,,,,,,,551,18,Woman,Left,,,,,,,,,,,,,,,,,551,18,Woman,Left,
3,2,1.0,180,0,0,1.4060425000000123,['y'],1.3754690000000664,2.0,,,,,,,,551,18,Woman,Left,,,,,,,,,,,,,,,,,551,18,Woman,Left,
3,2,1.0,180,0,0,1.2533295000000635,['y'],1.3482688000001417,2.0,,,,,,,,551,18,Woman,Left,,,,,,,,,,,,,,,,,551,18,Woman,Left,
3,2,1.0,180,0,0,0.9407013000000006,['y'],0.7766498000000865,2.0,,,,,,,,551,18,Woman,Left,,,,,,,,,,,,,,,,,551,18,Woman,Left,
3,2,1.0,0,180,180,0.9749793999999383,['y'],1.136806500000148,2.0,,,,,,,,551,18,Woman,Left,,,,,,,,,,,,,,,,,551,18,Woman,Left,
3,2,1.0,0,180,180,0.9345350000003236,['y'],0.40236060000006546,2.0,,,,,,,,551,18,Woman,Left,,,,,,,,,,,,,,,,,551,18,Woman,Left,
3,2,1.0,180,0,0,0.7171156000003975,['y'],0.8012611999997716,2.0,,,,,,,,551,18,Woman,Left,,,,,,,,,,,,,,,,,551,18,Woman,Left,
3,2,1.0,0,180,180,0.887891700000182,['y'],0.2931557000001703,2.0,8,8,10,10,0.8,0.8,,551,18,Woman,Left,,,,,,,,,,,,,,,,,551,18,Woman,Left,
4,2,0.4,0,180,180,0.989091300000382,['y'],1.1351451999998972,1.99,,,,,,,,551,18,Woman,Left,,,,,,,,,,,,,,,,,551,18,Woman,Left,
4,2,0.15,180,0,0,1.342798600000151,['y'],1.1790533999997024,1.93,,,,,,,,551,18,Woman,Left,,,,,,,,,,,,,,,,,551,18,Woman,Left,
4,2,0.15,0,180,180,1.3994392999998126,['n'],1.9934082999998282,1.6520000000000001,,,,,,,,551,18,Woman,Left,,,,,,,,,,,,,,,,,551,18,Woman,Left,
4,2,0.4,180,0,0,0.8140880000000834,['y'],0.7122325000000274,1.662,,,,,,,,551,18,Woman,Left,,,,,,,,,,,,,,,,,551,18,Woman,Left,
4,2,0.4,180,0,0,0.6559477999999217,['y'],0.9281543000001875,1.6640000000000001,,,,,,,,551,18,Woman,Left,,,,,,,,,,,,,,,,,551,18,Woman,Left,
4,2,0.15,0,180,180,0.9087864999996782,['y'],0.8179915000000619,1.4060000000000001,,,,,,,,551,18,Woman,Left,,,,,,,,,,,,,,,,,551,18,Woman,Left,
4,2,0.15,180,0,0,0.651382200000171,['y'],0.9783714999998665,1.554,,,,,,,,551,18,Woman,Left,,,,,,,,,,,,,,,,,551,18,Woman,Left,
4,2,0.4,0,180,180,0.47003959999983635,['y'],0.3092207999998209,1.634,,,,,,,,551,18,Woman,Left,,,,,,,,,,,,,,,,,551,18,Woman,Left,
4,2,0.15,180,0,0,1.0875612999998339,['y'],1.0541740999997273,1.24,,,,,,,,551,18,Woman,Left,,,,,,,,,,,,,,,,,551,18,Woman,Left,
4,2,0.4,0,180,0,0.9463237999998455,['y'],0.9740815000000111,1.066,9,4,10,5,0.9,0.8,,551,18,Woman,Left,,,,,,,,,,,,,,,,,551,18,Woman,Left,
5,3,0.15,180,0,0,2.0336656999998013,['y'],1.2684825999999703,1.0,,,,,,,,551,18,Woman,Left,,,,,,,,,,,,,,,,,551,18,Woman,Left,
5,3,1.0,0,-,0,1.5757226999999148,['n'],1.2502502000002096,1.6,,,,,,,,551,18,Woman,Left,,,,,,,,,,,,,,,,,551,18,Woman,Left,
5,3,0.15,0,-,0,1.8381979999999203,['y'],1.1186583000003338,1.158,,,,,,,,551,18,Woman,Left,,,,,,,,,,,,,,,,,551,18,Woman,Left,
5,3,0.15,0,-,180,0.793406799999957,['n'],1.2829513000001498,1.0,,,,,,,,551,18,Woman,Left,,,,,,,,,,,,,,,,,551,18,Woman,Left,
5,3,1.0,180,-,180,0.6035449000000881,['y'],1.4288235000003624,1.678,,,,,,,,551,18,Woman,Left,,,,,,,,,,,,,,,,,551,18,Woman,Left,
5,3,1.0,180,-,180,1.1554657000001498,['n'],0.8301727999996729,1.802,,,,,,,,551,18,Woman,Left,,,,,,,,,,,,,,,,,551,18,Woman,Left,
5,3,1.0,180,-,180,0.3943053000002692,['n'],1.5480605999996442,1.802,,,,,,,,551,18,Woman,Left,,,,,,,,,,,,,,,,,551,18,Woman,Left,
5,3,1.0,0,-,0,0.1373209000003044,['n'],1.8937458000000333,1.802,,,,,,,,551,18,Woman,Left,,,,,,,,,,,,,,,,,551,18,Woman,Left,
5,3,0.4,0,180,180,1.3227133000000322,['y'],1.1037418000000798,1.576,,,,,,,,551,18,Woman,Left,,,,,,,,,,,,,,,,,551,18,Woman,Left,
5,3,0.4,180,0,0,0.8558797000000595,['y'],0.32749009999997725,1.572,9,7,10,7,0.9,1.0,,551,18,Woman,Left,,,,,,,,,,,,,,,,,551,18,Woman,Left,
,,,,,,,,,,,,,,,,7.500000265281415e-06,551,18,Woman,Left,,,,,,,,,,,,,,,,,551,18,Woman,Left,
,,,,,,,,,,,,,,,,,551,18,Woman,Left,0,28,0.4,1,0,-,0,0.915991600000325,['y'],1.1987157000003208,1.6360000000000001,298.2344366000002,,,,,551,18,Woman,Left,
,,,,,,,,,,,,,,,,,551,18,Woman,Left,0,21,0.4,2,0,180,180,1.142850499999895,['y'],2.4306338999999753,1.6219999999999999,305.0679733000002,,,,,551,18,Woman,Left,
,,,,,,,,,,,,,,,,,551,18,Woman,Left,0,44,0.15,1,0,-,0,3.229940799999895,['n'],2.102854899999784,1.71,314.01781359999995,,,,,551,18,Woman,Left,
,,,,,,,,,,,,,,,,,551,18,Woman,Left,0,6,1,1,180,-,180,0.41193139999995765,['n'],1.766792400000213,1.714,319.2351543,,,,,551,18,Woman,Left,
,,,,,,,,,,,,,,,,,551,18,Woman,Left,0,70,0.15,1,180,-,180,0.8282255999997687,['n'],1.3189010999999482,1.714,324.0192698999999,,,,,551,18,Woman,Left,
,,,,,,,,,,,,,,,,,551,18,Woman,Left,0,79,0.15,2,180,0,180,2.2666134999999485,['n'],3.3823661999999786,1.714,332.28478619999987,,,,,551,18,Woman,Left,
,,,,,,,,,,,,,,,,,551,18,Woman,Left,0,52,0.15,1,0,-,180,1.8474348000004284,['n'],3.134897099999762,1.714,339.95149089999995,,,,,551,18,Woman,Left,
,,,,,,,,,,,,,,,,,551,18,Woman,Left,0,61,0.15,2,0,180,180,0.886185000000296,['y'],2.1189974999997503,1.314,347.1678772999999,,,,,551,18,Woman,Left,
,,,,,,,,,,,,,,,,,551,18,Woman,Left,0,1,1,2,0,180,180,1.3625566000000617,['y'],1.4145668000001024,1.884,353.26795960000027,,,,,551,18,Woman,Left,
,,,,,,,,,,,,,,,,,551,18,Woman,Left,0,68,0.15,1,0,-,180,3.5391780999998446,['n'],2.094704300000103,1.88,361.6514019000001,,,,,551,18,Woman,Left,
,,,,,,,,,,,,,,,,,551,18,Woman,Left,0,14,0.4,1,180,-,180,0.6880267000001368,['n'],1.0072455999998056,1.88,366.10141380000005,,,,,551,18,Woman,Left,
,,,,,,,,,,,,,,,,,551,18,Woman,Left,0,50,0.15,1,180,-,0,1.4034550000001218,['y'],3.455071500000031,1.746,374.9513286000001,,,,,551,18,Woman,Left,
,,,,,,,,,,,,,,,,,551,18,Woman,Left,0,64,0.15,1,0,-,0,0.8157155999997485,['n'],1.863119199999801,1.746,380.2679336000001,,,,,551,18,Woman,Left,
,,,,,,,,,,,,,,,,,551,18,Woman,Left,0,20,0.4,1,0,-,0,0.6679874999999811,['n'],1.8149948000000222,1.746,385.2179854000001,,,,,551,18,Woman,Left,
,,,,,,,,,,,,,,,,,551,18,Woman,Left,0,60,0.15,1,0,-,0,1.4501225999997587,['n'],3.4565738000001147,1.71,392.6679730999999,,,,,551,18,Woman,Left,
,,,,,,,,,,,,,,,,,551,18,Woman,Left,0,24,0.4,1,0,-,180,1.9008558000000448,['n'],1.5112207000001945,1.712,398.85156529999995,,,,,551,18,Woman,Left,
,,,,,,,,,,,,,,,,,551,18,Woman,Left,0,51,0.15,2,180,0,180,1.7403285000000324,['n'],1.879022200000236,1.712,404.9016369000001,,,,,551,18,Woman,Left,
,,,,,,,,,,,,,,,,,551,18,Woman,Left,0,73,0.15,2,0,180,180,0.6737614000003305,['n'],1.287020400000074,1.712,409.26804429999993,,,,,551,18,Woman,Left,
,,,,,,,,,,,,,,,,,551,18,Woman,Left,0,5,1,2,0,180,180,1.5811588000001393,['y'],1.2869274999998197,1.99,415.4847528999999,,,,,551,18,Woman,Left,
,,,,,,,,,,,,,,,,,551,18,Woman,Left,0,3,1,2,180,0,0,1.1479873999996926,['y'],1.0469372999996267,1.99,420.08482790000016,,,,,551,18,Woman,Left,
,,,,,,,,,,,,,,,,,551,18,Woman,Left,0,46,0.15,1,180,-,180,0.7473838000000796,['n'],1.3430496000000858,1.99,424.6680415000001,,,,,551,18,Woman,Left,
,,,,,,,,,,,,,,,,,551,18,Woman,Left,0,13,0.4,2,0,180,180,1.2796668000000864,['y'],1.0226843000000372,1.99,430.2514691000001,,,,,551,18,Woman,Left,
,,,,,,,,,,,,,,,,,551,18,Woman,Left,0,22,0.4,1,180,-,180,0.7329861000002893,['n'],0.9670699000002969,1.6480000000000001,435.0848498999999,,,,,551,18,Woman,Left,
,,,,,,,,,,,,,,,,,551,18,Woman,Left,0,19,0.4,2,180,0,0,0.9766406999997344,['y'],1.0791948000000957,1.8519999999999999,439.85153279999986,,,,,551,18,Woman,Left,
,,,,,,,,,,,,,,,,,551,18,Woman,Left,0,16,0.4,1,0,-,0,0.5744325999999091,['n'],0.8949689999999464,1.8519999999999999,443.7348971000001,,,,,551,18,Woman,Left,
,,,,,,,,,,,,,,,,,551,18,Woman,Left,0,63,0.15,2,180,0,0,1.433279300000322,['y'],1.3033731999998963,1.8519999999999999,448.93482330000006,,,,,551,18,Woman,Left,
,,,,,,,,,,,,,,,,,551,18,Woman,Left,0,69,0.15,2,0,180,180,1.2677122000000054,['y'],1.454997999999705,1.854,453.95156320000024,,,,,551,18,Woman,Left,
,,,,,,,,,,,,,,,,,551,18,Woman,Left,0,41,0.4,2,0,180,180,1.7290591999999378,['y'],1.0549274999998488,1.854,460.16822600000023,,,,,551,18,Woman,Left,
,,,,,,,,,,,,,,,,,551,18,Woman,Left,0,77,0.15,2,0,180,180,1.1564398999998957,['y'],3.006967799999984,1.854,466.76913490000015,,,,,551,18,Woman,Left,
,,,,,,,,,,,,,,,,,551,18,Woman,Left,0,29,0.4,2,0,180,180,1.2229546999997183,['y'],1.1989209999997001,1.854,471.534952,,,,,551,18,Woman,Left,
,,,,,,,,,,,,,,,,,551,18,Woman,Left,0,31,0.4,2,180,0,0,1.3723274999997557,['y'],1.0629053000002386,1.854,476.3349538000002,,,,,551,18,Woman,Left,
,,,,,,,,,,,,,,,,,551,18,Woman,Left,0,71,0.15,2,180,0,180,1.4522827999999208,['n'],1.1911933000001227,1.854,481.21848809999983,,,,,551,18,Woman,Left,
,,,,,,,,,,,,,,,,,551,18,Woman,Left,0,54,0.15,1,180,-,180,1.104284000000007,['n'],1.3190332999997736,1.854,485.8682729000002,,,,,551,18,Woman,Left,
,,,,,,,,,,,,,,,,,551,18,Woman,Left,0,76,0.15,1,0,-,180,2.0622557000001507,['n'],1.3028976999999031,1.896,492.26826459999984,,,,,551,18,Woman,Left,
,,,,,,,,,,,,,,,,,551,18,Woman,Left,0,48,0.15,1,0,-,0,1.382927500000278,['n'],1.4149787999999717,1.904,497.8183457,,,,,551,18,Woman,Left,
,,,,,,,,,,,,,,,,,551,18,Woman,Left,0,4,1,1,0,-,0,0.5336284999998497,['n'],1.2673718000000918,1.904,501.85166660000004,,,,,551,18,Woman,Left,
,,,,,,,,,,,,,,,,,551,18,Woman,Left,0,23,0.4,2,180,0,0,1.0224911999998767,['y'],1.0467616999999336,1.92,506.08503699999983,,,,,551,18,Woman,Left,
,,,,,,,,,,,,,,,,,551,18,Woman,Left,0,58,0.15,1,180,-,180,0.5869700999996894,['n'],1.0067094000000907,1.922,509.95192050000014,,,,,551,18,Woman,Left,
,,,,,,,,,,,,,,,,,551,18,Woman,Left,0,38,0.4,1,180,-,180,0.6271651999995811,['y'],1.2149575999997069,1.928,514.5017582999999,,,,,551,18,Woman,Left,
,,,,,,,,,,,,,,,,,551,18,Woman,Left,0,42,0.4,1,180,-,180,0.7800850999997238,['n'],0.7189199999997982,1.928,518.4849924999999,,,,,551,18,Woman,Left,
,,,,,,,,,,,,,,,,,551,18,Woman,Left,0,74,0.15,1,180,-,180,1.6360865000001468,['n'],1.0068989999999758,1.928,523.5016350999999,,,,,551,18,Woman,Left,
,,,,,,,,,,,,,,,,,551,18,Woman,Left,0,39,0.4,2,180,0,0,1.6760418999997455,['y'],2.4789433000000827,2.0,531.3017307999999,,,,,551,18,Woman,Left,
,,,,,,,,,,,,,,,,,551,18,Woman,Left,0,30,0.4,1,180,-,180,0.7028302999997322,['n'],0.9429694000000381,2.0,535.3518709999998,,,,,551,18,Woman,Left,
,,,,,,,,,,,,,,,,,551,18,Woman,Left,0,75,0.15,2,180,0,0,0.9699650000002293,['y'],2.0553469000001314,1.576,541.2183970000001,,,,,551,18,Woman,Left,
,,,,,,,,,,,,,,,,,551,18,Woman,Left,0,59,0.15,2,180,0,0,0.6471248000002561,['n'],1.0474645999997847,1.858,545.8684475999999,,,,,551,18,Woman,Left,
,,,,,,,,,,,,,,,,,551,18,Woman,Left,0,56,0.15,1,0,-,0,0.9635005000000092,['n'],2.462742000000162,1.8599999999999999,551.6516998000002,,,,,551,18,Woman,Left,
,,,,,,,,,,,,,,,,,551,18,Woman,Left,0,72,0.15,1,0,-,0,0.8992190999997547,['n'],1.2074216000000888,1.862,556.4684891000002,,,,,551,18,Woman,Left,
,,,,,,,,,,,,,,,,,551,18,Woman,Left,0,32,0.4,1,0,-,0,0.4419487999998637,['n'],1.0229340000000775,1.862,560.2184625,,,,,551,18,Woman,Left,
,,,,,,,,,,,,,,,,,551,18,Woman,Left,0,45,0.15,2,0,180,180,0.6716053000000102,['y'],1.3187525999996978,1.862,564.4184599,,,,,551,18,Woman,Left,
,,,,,,,,,,,,,,,,,551,18,Woman,Left,0,78,0.15,1,180,-,0,2.0166910999996617,['y'],1.7327377999999953,1.624,572.2019845999998,,,,,551,18,Woman,Left,
,,,,,,,,,,,,,,,,,551,18,Woman,Left,0,25,0.4,2,0,180,180,0.6800321000000622,['y'],1.1747924999999668,1.942,577.3518358000001,,,,,551,18,Woman,Left,
,,,,,,,,,,,,,,,,,551,18,Woman,Left,0,0,1,1,0,-,0,1.5837549000002582,['n'],1.3670836999999665,1.91,582.6854251,,,,,551,18,Woman,Left,
,,,,,,,,,,,,,,,,,551,18,Woman,Left,0,26,0.4,1,180,-,180,0.3605697000002692,['y'],2.8469891999998254,1.3719999999999999,591.7852569000001,,,,,551,18,Woman,Left,
,,,,,,,,,,,,,,,,,551,18,Woman,Left,0,65,0.15,2,0,180,180,0.9134245000000192,['y'],1.6227966000001288,1.772,597.1686109000002,,,,,551,18,Woman,Left,
,,,,,,,,,,,,,,,,,551,18,Woman,Left,0,18,0.4,1,180,-,0,1.9721520999996756,['y'],1.9425224999999955,1.772,603.2517882000002,,,,,551,18,Woman,Left,
,,,,,,,,,,,,,,,,,551,18,Woman,Left,0,11,0.4,2,180,0,0,1.1025618999997278,['y'],1.1747857000000295,1.772,607.7685740000002,,,,,551,18,Woman,Left,
,,,,,,,,,,,,,,,,,551,18,Woman,Left,0,36,0.4,1,0,-,0,0.8196278999998867,['n'],0.9109170000001541,1.828,612.9362135000001,,,,,551,18,Woman,Left,
,,,,,,,,,,,,,,,,,551,18,Woman,Left,0,7,1,2,180,0,0,0.715344499999901,['y'],1.0468730000002324,2.0,617.5520074000001,,,,,551,18,Woman,Left,
,,,,,,,,,,,,,,,,,551,18,Woman,Left,0,10,0.4,1,180,-,180,0.9397123000003376,['n'],1.031230300000061,1.93,622.2189014999999,,,,,551,18,Woman,Left,
,,,,,,,,,,,,,,,,,551,18,Woman,Left,0,53,0.15,2,0,180,180,0.6809742999998889,['y'],1.0473502999998345,1.918,626.2352922,,,,,551,18,Woman,Left,
,,,,,,,,,,,,,,,,,551,18,Woman,Left,0,9,0.4,2,0,180,180,0.9169034999999894,['y'],0.7516271999998025,1.918,630.5523401,,,,,551,18,Woman,Left,
,,,,,,,,,,,,,,,,,551,18,Woman,Left,0,47,0.15,2,180,0,0,1.8225657000002684,['y'],2.462724900000012,1.916,638.3520369000003,,,,,551,18,Woman,Left,
,,,,,,,,,,,,,,,,,551,18,Woman,Left,0,40,0.4,1,0,-,0,0.6167989000000489,['n'],0.7909153000000515,1.916,642.4519377000001,,,,,551,18,Woman,Left,
,,,,,,,,,,,,,,,,,551,18,Woman,Left,0,67,0.15,2,180,0,0,0.8503771000000597,['y'],1.3910832999999911,1.916,647.0020552999999,,,,,551,18,Woman,Left,
,,,,,,,,,,,,,,,,,551,18,Woman,Left,0,8,0.4,1,0,-,0,1.2219921999999315,['n'],1.2790393000000222,1.728,652.1520507,,,,,551,18,Woman,Left,
,,,,,,,,,,,,,,,,,551,18,Woman,Left,0,33,0.4,2,0,180,180,0.5002523999996811,['y'],1.4468057999997654,1.73,656.4528776000002,,,,,551,18,Woman,Left,
,,,,,,,,,,,,,,,,,551,18,Woman,Left,0,34,0.4,1,180,-,0,2.1778872999998384,['n'],0.9989000000000487,1.73,661.8352829,,,,,551,18,Woman,Left,
,,,,,,,,,,,,,,,,,551,18,Woman,Left,0,37,0.4,2,0,180,180,0.7139777999996113,['y'],2.1510889000001043,1.952,668.1853792000002,,,,,551,18,Woman,Left,
,,,,,,,,,,,,,,,,,551,18,Woman,Left,0,57,0.15,2,0,180,180,0.8719036000002234,['n'],1.7904386999998678,1.866,673.6020942999999,,,,,551,18,Woman,Left,
,,,,,,,,,,,,,,,,,551,18,Woman,Left,0,27,0.4,2,180,0,0,1.2296116000002257,['y'],0.7669479999999567,1.8820000000000001,678.7863228000001,,,,,551,18,Woman,Left,
,,,,,,,,,,,,,,,,,551,18,Woman,Left,0,17,0.4,2,0,180,180,0.6885461000001669,['y'],1.006806399999732,1.8639999999999999,682.7021502000002,,,,,551,18,Woman,Left,
,,,,,,,,,,,,,,,,,551,18,Woman,Left,0,49,0.15,2,0,180,180,0.7126081999999769,['y'],0.8149619999999231,1.8639999999999999,686.4687419000002,,,,,551,18,Woman,Left,
,,,,,,,,,,,,,,,,,551,18,Woman,Left,0,66,0.15,1,180,-,180,1.1004183999998531,['n'],1.37645190000012,1.8639999999999999,692.6521343,,,,,551,18,Woman,Left,
,,,,,,,,,,,,,,,,,551,18,Woman,Left,0,55,0.15,2,180,0,180,2.451289800000268,['n'],0.9749990999998772,1.8639999999999999,698.5854650000001,,,,,551,18,Woman,Left,
,,,,,,,,,,,,,,,,,551,18,Woman,Left,0,62,0.15,1,180,-,180,0.8457779000000301,['n'],0.7590887000001203,1.8639999999999999,702.4025531000002,,,,,551,18,Woman,Left,
,,,,,,,,,,,,,,,,,551,18,Woman,Left,0,15,0.4,2,180,0,0,1.083207399999992,['y'],1.5269366999996237,1.8639999999999999,707.2687145,,,,,551,18,Woman,Left,
,,,,,,,,,,,,,,,,,551,18,Woman,Left,0,12,0.4,1,0,-,0,1.145721599999888,['y'],1.638958300000013,1.8639999999999999,712.3522065000002,,,,,551,18,Woman,Left,
,,,,,,,,,,,,,,,,,551,18,Woman,Left,0,43,0.4,2,180,0,180,0.760474400000021,['n'],3.806515499999932,1.8639999999999999,719.6690309999999,,,,,551,18,Woman,Left,
,,,,,,,,,,,,,,,,,551,18,Woman,Left,0,35,0.4,2,180,0,0,1.122658699999647,['y'],1.1508989999997539,1.8639999999999999,724.6687643,,,,,551,18,Woman,Left,
,,,,,,,,,,,,,,,,,551,18,Woman,Left,0,2,1,1,180,-,180,0.5654810000000907,['n'],1.406643300000269,1.8639999999999999,728.8022896000002,,,,,551,18,Woman,Left,
,,,,,,,,,,,,,,,,,551,18,Woman,Left,1,72,0.15,1,0,-,0,1.0625578999997742,['n'],1.2468699999999444,1.8639999999999999,743.2357099999999,83.75,82.5,80.0,,551,18,Woman,Left,
,,,,,,,,,,,,,,,,,551,18,Woman,Left,1,68,0.15,1,0,-,0,0.8176674000001185,['y'],1.2791975999998613,1.8639999999999999,747.7025471000002,,,,,551,18,Woman,Left,
,,,,,,,,,,,,,,,,,551,18,Woman,Left,1,60,0.15,1,0,-,180,2.1135410000001684,['n'],1.7750684999996338,1.8639999999999999,754.2855684000001,,,,,551,18,Woman,Left,
,,,,,,,,,,,,,,,,,551,18,Woman,Left,1,0,1,1,0,-,0,0.29018730000007054,['n'],1.0789147000000412,1.964,759.2689009999999,,,,,551,18,Woman,Left,
,,,,,,,,,,,,,,,,,551,18,Woman,Left,1,12,0.4,1,0,-,0,0.18669099999988248,['n'],0.8869070999999167,1.964,762.6189727000001,,,,,551,18,Woman,Left,
,,,,,,,,,,,,,,,,,551,18,Woman,Left,1,45,0.15,2,0,180,180,2.281599400000232,['n'],1.2068679000003613,1.964,769.1024877,,,,,551,18,Woman,Left,
,,,,,,,,,,,,,,,,,551,18,Woman,Left,1,27,0.4,2,180,0,0,0.8498528999998598,['n'],2.2066835000000538,1.756,777.5357437000002,,,,,551,18,Woman,Left,
,,,,,,,,,,,,,,,,,551,18,Woman,Left,1,56,0.15,1,0,-,180,1.7123735000000124,['n'],1.046588299999712,2.0,783.4024196999999,,,,,551,18,Woman,Left,
,,,,,,,,,,,,,,,,,551,18,Woman,Left,1,18,0.4,1,180,-,180,0.9077862999997706,['n'],1.2228125999999975,1.97,788.2523746000002,,,,,551,18,Woman,Left,
,,,,,,,,,,,,,,,,,551,18,Woman,Left,1,40,0.4,1,0,-,0,0.6274045999998634,['n'],1.9750873000002684,1.97,793.1523412000001,,,,,551,18,Woman,Left,
,,,,,,,,,,,,,,,,,551,18,Woman,Left,1,29,0.4,2,0,180,180,1.0346639999997933,['y'],1.959120399999847,1.972,798.6857803000003,,,,,551,18,Woman,Left,
,,,,,,,,,,,,,,,,,551,18,Woman,Left,1,44,0.15,1,0,-,180,2.6499822000000677,['n'],0.9882631000000401,1.972,804.9190720000001,,,,,551,18,Woman,Left,
,,,,,,,,,,,,,,,,,551,18,Woman,Left,1,53,0.15,2,0,180,180,1.1671461000000818,['y'],1.025755499999832,1.892,811.5190935999999,,,,,551,18,Woman,Left,
,,,,,,,,,,,,,,,,,551,18,Woman,Left,1,10,0.4,1,180,-,180,2.068670199999815,['n'],2.3990492000002632,1.892,818.7690725000002,,,,,551,18,Woman,Left,
,,,,,,,,,,,,,,,,,551,18,Woman,Left,1,48,0.15,1,0,-,180,0.7147817000000032,['n'],0.8547997999999097,1.892,823.0023360999999,,,,,551,18,Woman,Left,
,,,,,,,,,,,,,,,,,551,18,Woman,Left,1,36,0.4,1,0,-,0,1.2673122999999578,['n'],0.9755488000000696,1.892,828.5028574000003,,,,,551,18,Woman,Left,
,,,,,,,,,,,,,,,,,551,18,Woman,Left,1,6,1,1,180,-,180,0.5541135000003123,['n'],1.8867777999998907,1.8940000000000001,833.0357386999999,,,,,551,18,Woman,Left,
,,,,,,,,,,,,,,,,,551,18,Woman,Left,1,31,0.4,2,180,0,0,0.9965993999999228,['y'],0.8551328000003195,1.8940000000000001,837.5357066000001,,,,,551,18,Woman,Left,
,,,,,,,,,,,,,,,,,551,18,Woman,Left,1,69,0.15,2,0,180,180,1.2620096999999078,['y'],1.5989228000003095,2.0,843.7696734000001,,,,,551,18,Woman,Left,
,,,,,,,,,,,,,,,,,551,18,Woman,Left,1,77,0.15,2,0,180,180,0.5145646999999371,['n'],1.1189125999999305,2.0,847.5359908999999,,,,,551,18,Woman,Left,
,,,,,,,,,,,,,,,,,551,18,Woman,Left,1,21,0.4,2,0,180,180,0.6691078999997444,['y'],1.0390257000003658,2.0,851.7192015,,,,,551,18,Woman,Left,
,,,,,,,,,,,,,,,,,551,18,Woman,Left,1,55,0.15,2,180,0,0,1.3519506999996338,['y'],0.8067963999997119,2.0,856.1524927999999,,,,,551,18,Woman,Left,
,,,,,,,,,,,,,,,,,551,18,Woman,Left,1,74,0.15,1,180,-,180,0.5516726999999264,['n'],0.7508792000003268,2.0,859.6026746000002,,,,,551,18,Woman,Left,
,,,,,,,,,,,,,,,,,551,18,Woman,Left,1,28,0.4,1,0,-,0,2.2470768000002863,['n'],1.0949378000000252,2.0,865.169187,,,,,551,18,Woman,Left,
,,,,,,,,,,,,,,,,,551,18,Woman,Left,1,37,0.4,2,0,180,180,0.7332011999997121,['n'],0.9879450999997061,2.0,869.7691731999998,,,,,551,18,Woman,Left,
,,,,,,,,,,,,,,,,,551,18,Woman,Left,1,34,0.4,1,180,-,180,0.3270292000001973,['n'],1.07905030000029,2.0,873.8359635000002,,,,,551,18,Woman,Left,
,,,,,,,,,,,,,,,,,551,18,Woman,Left,1,75,0.15,2,180,0,0,0.7748660000002019,['y'],1.2469507999999223,2.0,878.4360981,,,,,551,18,Woman,Left,
,,,,,,,,,,,,,,,,,551,18,Woman,Left,1,3,1,2,180,0,0,0.920525799999723,['y'],1.6947242999999617,1.972,883.7025521999999,,,,,551,18,Woman,Left,
,,,,,,,,,,,,,,,,,551,18,Woman,Left,1,65,0.15,2,0,180,180,0.8013737999999648,['n'],1.0548782000000756,1.818,888.9527177999998,,,,,551,18,Woman,Left,
,,,,,,,,,,,,,,,,,551,18,Woman,Left,1,23,0.4,2,180,0,0,0.6149792000001071,['y'],1.190699200000381,1.824,893.2526137999998,,,,,551,18,Woman,Left,
,,,,,,,,,,,,,,,,,551,18,Woman,Left,1,13,0.4,2,0,180,180,0.46542429999999513,['y'],1.1669345999998768,1.824,897.0526392000002,,,,,551,18,Woman,Left,
,,,,,,,,,,,,,,,,,551,18,Woman,Left,1,79,0.15,2,180,0,0,0.817626399999881,['y'],0.8231377000001885,2.0,901.6025098,,,,,551,18,Woman,Left,
,,,,,,,,,,,,,,,,,551,18,Woman,Left,1,59,0.15,2,180,0,0,0.5748896999998578,['y'],0.9752748999999312,1.982,905.5691802000001,,,,,551,18,Woman,Left,
,,,,,,,,,,,,,,,,,551,18,Woman,Left,1,71,0.15,2,180,0,0,0.6308093000002373,['y'],0.7912621000000399,1.982,909.9865248000001,,,,,551,18,Woman,Left,
,,,,,,,,,,,,,,,,,551,18,Woman,Left,1,14,0.4,1,180,-,180,0.4854035000003023,['n'],0.6869303999997101,1.982,913.3197832999999,,,,,551,18,Woman,Left,
,,,,,,,,,,,,,,,,,551,18,Woman,Left,1,57,0.15,2,0,180,180,0.9426791999999296,['y'],0.775160600000163,1.94,917.2027263,,,,,551,18,Woman,Left,
,,,,,,,,,,,,,,,,,551,18,Woman,Left,1,32,0.4,1,0,-,0,0.9347837000000254,['n'],1.023090200000297,1.94,921.8862317000003,,,,,551,18,Woman,Left,
,,,,,,,,,,,,,,,,,551,18,Woman,Left,1,43,0.4,2,180,0,0,0.4874269000001732,['y'],1.2072204000000966,1.98,926.5695331000002,,,,,551,18,Woman,Left,
,,,,,,,,,,,,,,,,,551,18,Woman,Left,1,19,0.4,2,180,0,0,0.5167492000000493,['y'],0.9411534000000756,1.972,930.7529370000002,,,,,551,18,Woman,Left,
,,,,,,,,,,,,,,,,,551,18,Woman,Left,1,73,0.15,2,0,180,180,0.6577185000001009,['n'],1.1110653999999158,1.974,934.5860090000001,,,,,551,18,Woman,Left,
,,,,,,,,,,,,,,,,,551,18,Woman,Left,1,20,0.4,1,0,-,180,1.734033300000192,['y'],0.5508996000003208,1.974,938.9693735999999,,,,,551,18,Woman,Left,
,,,,,,,,,,,,,,,,,551,18,Woman,Left,1,61,0.15,2,0,180,180,1.7827360000001136,['n'],0.21499279999989085,1.974,943.5863042000001,,,,,551,18,Woman,Left,
,,,,,,,,,,,,,,,,,551,18,Woman,Left,1,11,0.4,2,180,0,0,0.47894769999993514,['y'],0.9348069999996369,1.974,948.1030208000002,,,,,551,18,Woman,Left,
,,,,,,,,,,,,,,,,,551,18,Woman,Left,1,5,1,2,0,180,180,1.0885607999998683,['y'],0.7590617000000748,1.974,952.1528803000001,,,,,551,18,Woman,Left,
,,,,,,,,,,,,,,,,,551,18,Woman,Left,1,30,0.4,1,180,-,180,0.8239502000001266,['n'],0.7748855999998341,1.974,956.0527652999999,,,,,551,18,Woman,Left,
,,,,,,,,,,,,,,,,,551,18,Woman,Left,1,4,1,1,0,-,0,0.4337991000002148,['n'],2.055075300000226,1.974,960.7529181,,,,,551,18,Woman,Left,
,,,,,,,,,,,,,,,,,551,18,Woman,Left,1,49,0.15,2,0,180,180,0.45442030000003797,['n'],0.9670120000000679,1.974,964.3699513000001,,,,,551,18,Woman,Left,
,,,,,,,,,,,,,,,,,551,18,Woman,Left,1,78,0.15,1,180,-,180,0.09704659999988507,['n'],0.9029209999998784,1.974,967.4026557000002,,,,,551,18,Woman,Left,
,,,,,,,,,,,,,,,,,551,18,Woman,Left,1,1,1,2,0,180,180,0.54585169999973,['y'],0.7910706000002392,1.974,971.0028788,,,,,551,18,Woman,Left,
,,,,,,,,,,,,,,,,,551,18,Woman,Left,1,9,0.4,2,0,180,180,0.5784813999998732,['y'],1.167014399999971,1.974,974.9363716000003,,,,,551,18,Woman,Left,
,,,,,,,,,,,,,,,,,551,18,Woman,Left,1,24,0.4,1,0,-,180,0.5812470000000758,['n'],1.1909427999999025,1.972,978.9032534000003,,,,,551,18,Woman,Left,
,,,,,,,,,,,,,,,,,551,18,Woman,Left,1,35,0.4,2,180,0,0,0.418960099999822,['y'],1.0224441999998817,1.972,982.7361679,,,,,551,18,Woman,Left,
,,,,,,,,,,,,,,,,,551,18,Woman,Left,1,42,0.4,1,180,-,180,0.5850124000003234,['n'],0.7189395999998851,1.972,986.1194466000002,,,,,551,18,Woman,Left,
,,,,,,,,,,,,,,,,,551,18,Woman,Left,1,39,0.4,2,180,0,0,0.46656149999989793,['y'],1.2752753999998276,1.972,990.0527664000001,,,,,551,18,Woman,Left,
,,,,,,,,,,,,,,,,,551,18,Woman,Left,1,47,0.15,2,180,0,0,1.0272675000001072,['y'],1.2630597000002126,1.972,994.5530536000001,,,,,551,18,Woman,Left,
,,,,,,,,,,,,,,,,,551,18,Woman,Left,1,16,0.4,1,0,-,0,0.4778294000002461,['n'],0.7991173000000344,1.972,998.3028678999999,,,,,551,18,Woman,Left,
,,,,,,,,,,,,,,,,,551,18,Woman,Left,1,52,0.15,1,0,-,180,1.8141660000001139,['n'],0.598351200000252,1.972,1003.0361026999999,,,,,551,18,Woman,Left,
,,,,,,,,,,,,,,,,,551,18,Woman,Left,1,33,0.4,2,0,180,180,0.6110625999999684,['y'],1.0870096000003286,1.972,1006.9195994000002,,,,,551,18,Woman,Left,
,,,,,,,,,,,,,,,,,551,18,Woman,Left,1,58,0.15,1,180,-,180,0.7518648000000212,['n'],1.0469894000002569,1.968,1010.8197381,,,,,551,18,Woman,Left,
,,,,,,,,,,,,,,,,,551,18,Woman,Left,1,17,0.4,2,0,180,180,0.46992520000003424,['y'],1.702628100000311,1.952,1015.7528063,,,,,551,18,Woman,Left,
,,,,,,,,,,,,,,,,,551,18,Woman,Left,1,70,0.15,1,180,-,180,0.3553130999998757,['n'],3.4312778000003163,1.918,1021.7195732,,,,,551,18,Woman,Left,
,,,,,,,,,,,,,,,,,551,18,Woman,Left,1,15,0.4,2,180,0,0,0.7116977999999108,['y'],0.790954800000236,1.918,1025.9529858,,,,,551,18,Woman,Left,
,,,,,,,,,,,,,,,,,551,18,Woman,Left,1,64,0.15,1,0,-,180,0.4484032999998817,['n'],1.2628042999999707,1.918,1030.0864858,,,,,551,18,Woman,Left,
,,,,,,,,,,,,,,,,,551,18,Woman,Left,1,50,0.15,1,180,-,180,0.5242164999999659,['n'],1.0310260000001108,1.918,1033.7529036,,,,,551,18,Woman,Left,
,,,,,,,,,,,,,,,,,551,18,Woman,Left,1,54,0.15,1,180,-,180,0.5544066999996176,['n'],0.7907994999995935,1.918,1037.0865624000003,,,,,551,18,Woman,Left,
,,,,,,,,,,,,,,,,,551,18,Woman,Left,1,7,1,2,180,0,0,0.5100792999996884,['y'],0.9673543000003519,1.918,1041.3032426999998,,,,,551,18,Woman,Left,
,,,,,,,,,,,,,,,,,551,18,Woman,Left,1,22,0.4,1,180,-,180,0.40141829999993206,['n'],0.8792324000000917,1.918,1044.65387,,,,,551,18,Woman,Left,
,,,,,,,,,,,,,,,,,551,18,Woman,Left,1,8,0.4,1,0,-,0,0.5455239000002621,['n'],1.2868202999998175,1.918,1048.6364561999999,,,,,551,18,Woman,Left,
,,,,,,,,,,,,,,,,,551,18,Woman,Left,1,25,0.4,2,0,180,180,3.000184200000149,['y'],0.32484500000009575,1.918,1054.0696252000002,,,,,551,18,Woman,Left,
,,,,,,,,,,,,,,,,,551,18,Woman,Left,1,2,1,1,180,-,180,0.4490928999998687,['n'],1.079117899999801,1.918,1057.7197875000002,,,,,551,18,Woman,Left,
,,,,,,,,,,,,,,,,,551,18,Woman,Left,1,38,0.4,1,180,-,0,1.136082400000305,['y'],0.7189708000000792,1.5859999999999999,1062.7196232000001,,,,,551,18,Woman,Left,
,,,,,,,,,,,,,,,,,551,18,Woman,Left,1,63,0.15,2,180,0,0,1.0562089999998534,['y'],1.1826805000000604,1.684,1067.5195783,,,,,551,18,Woman,Left,
,,,,,,,,,,,,,,,,,551,18,Woman,Left,1,26,0.4,1,180,-,180,1.1168021999997109,['y'],0.766845099999955,1.8,1072.0363609,,,,,551,18,Woman,Left,
,,,,,,,,,,,,,,,,,551,18,Woman,Left,1,51,0.15,2,180,0,0,1.048159499999656,['y'],0.7347466000001077,1.8,1076.4696898000002,,,,,551,18,Woman,Left,
,,,,,,,,,,,,,,,,,551,18,Woman,Left,1,62,0.15,1,180,-,180,0.40824079999993046,['n'],1.742925500000183,1.8,1081.0365677999998,,,,,551,18,Woman,Left,
,,,,,,,,,,,,,,,,,551,18,Woman,Left,1,46,0.15,1,180,-,180,0.7105609000000186,['n'],0.4229267999999138,1.8,1084.236554,,,,,551,18,Woman,Left,
,,,,,,,,,,,,,,,,,551,18,Woman,Left,1,76,0.15,1,0,-,180,1.024107599999752,['n'],1.5586247999999614,1.346,1089.5197196,,,,,551,18,Woman,Left,
,,,,,,,,,,,,,,,,,551,18,Woman,Left,1,41,0.4,2,0,180,180,1.1174657999999908,['y'],0.9028745999999046,1.6099999999999999,1093.7864509,,,,,551,18,Woman,Left,
,,,,,,,,,,,,,,,,,551,18,Woman,Left,1,67,0.15,2,180,0,0,0.7853423000001385,['y'],0.9589191999998548,1.72,1098.3532785000002,,,,,551,18,Woman,Left,
,,,,,,,,,,,,,,,,,551,18,Woman,Left,1,66,0.15,1,180,-,180,0.5504839000000175,['n'],0.9322575999999572,1.72,1101.8366236000002,,,,,551,18,Woman,Left,
,,,,,,,,,,,,,,,,,551,18,Woman,Left,2,46,0.15,1,180,-,180,1.4485810000001038,['n'],1.5909263999997165,1.996,1166.603223,87.5,90.0,80.0,,551,18,Woman,Left,
,,,,,,,,,,,,,,,,,551,18,Woman,Left,2,59,0.15,2,180,0,0,2.2501047999999173,['n'],1.08104000000003,1.988,1172.8866050000001,,,,,551,18,Woman,Left,
,,,,,,,,,,,,,,,,,551,18,Woman,Left,2,69,0.15,2,0,180,180,1.2281598999998096,['y'],0.8070766000000731,1.998,1178.853497,,,,,551,18,Woman,Left,
,,,,,,,,,,,,,,,,,551,18,Woman,Left,2,60,0.15,1,0,-,0,0.8687998999998854,['n'],0.7108627000002343,1.998,1182.5707999,,,,,551,18,Woman,Left,
,,,,,,,,,,,,,,,,,551,18,Woman,Left,2,18,0.4,1,180,-,180,0.4481467000000521,['n'],0.7428457999999409,1.998,1185.8198416999999,,,,,551,18,Woman,Left,
,,,,,,,,,,,,,,,,,551,18,Woman,Left,2,24,0.4,1,0,-,180,1.5307440000001407,['y'],0.9429238000002442,1.786,1191.2199366999998,,,,,551,18,Woman,Left,
,,,,,,,,,,,,,,,,,551,18,Woman,Left,2,43,0.4,2,180,0,0,1.333180000000084,['y'],0.7745015000000421,1.834,1195.5365772,,,,,551,18,Woman,Left,
,,,,,,,,,,,,,,,,,551,18,Woman,Left,2,25,0.4,2,0,180,180,1.108639900000071,['y'],1.0872369000003346,2.0,1200.5033887,,,,,551,18,Woman,Left,
,,,,,,,,,,,,,,,,,551,18,Woman,Left,2,34,0.4,1,180,-,180,1.4767266999997446,['y'],0.7509095000000343,2.0,1205.2366924000003,,,,,551,18,Woman,Left,
,,,,,,,,,,,,,,,,,551,18,Woman,Left,2,74,0.15,1,180,-,180,1.284685100000388,['y'],0.5829846999999972,2.0,1209.4199813,,,,,551,18,Woman,Left,
,,,,,,,,,,,,,,,,,551,18,Woman,Left,2,48,0.15,1,0,-,0,3.0005997000002935,['n'],1.0790406999999504,2.0,1215.8866505,,,,,551,18,Woman,Left,
,,,,,,,,,,,,,,,,,551,18,Woman,Left,2,56,0.15,1,0,-,0,1.2412586999998894,['n'],0.8787082000003466,2.0,1220.4036231999999,,,,,551,18,Woman,Left,
,,,,,,,,,,,,,,,,,551,18,Woman,Left,2,36,0.4,1,0,-,0,0.6064046999999846,['n'],0.9665149000002202,2.0,1224.6202511000001,,,,,551,18,Woman,Left,
,,,,,,,,,,,,,,,,,551,18,Woman,Left,2,57,0.15,2,0,180,180,1.9499165000001994,['y'],0.3848038000000997,2.0,1229.2369993000002,,,,,551,18,Woman,Left,
,,,,,,,,,,,,,,,,,551,18,Woman,Left,2,16,0.4,1,0,-,180,1.100224100000105,['y'],0.5957652000001872,2.0,1233.0034129,,,,,551,18,Woman,Left,
,,,,,,,,,,,,,,,,,551,18,Woman,Left,2,14,0.4,1,180,-,180,0.752511400000003,['y'],1.1031182000001536,2.0,1237.220104,,,,,551,18,Woman,Left,
,,,,,,,,,,,,,,,,,551,18,Woman,Left,2,52,0.15,1,0,-,0,1.1431486999999834,['n'],0.9192167000001064,2.0,1242.4869898000002,,,,,551,18,Woman,Left,
,,,,,,,,,,,,,,,,,551,18,Woman,Left,2,55,0.15,2,180,0,0,0.910226099999818,['y'],0.7823876000002201,2.0,1246.4367679000002,,,,,551,18,Woman,Left,
,,,,,,,,,,,,,,,,,551,18,Woman,Left,2,72,0.15,1,0,-,0,3.139187700000093,['n'],0.6709019999998418,2.0,1252.6202763000001,,,,,551,18,Woman,Left,
,,,,,,,,,,,,,,,,,551,18,Woman,Left,2,9,0.4,2,0,180,180,0.5528864000002613,['y'],0.5904673000000003,2.0,1256.3700136000002,,,,,551,18,Woman,Left,
,,,,,,,,,,,,,,,,,551,18,Woman,Left,2,12,0.4,1,0,-,0,0.5064649999999347,['n'],0.9268769000000248,2.0,1260.3703202000002,,,,,551,18,Woman,Left,
,,,,,,,,,,,,,,,,,551,18,Woman,Left,2,29,0.4,2,0,180,180,0.49102170000014667,['y'],1.4390302000001611,2.0,1264.4545173000001,,,,,551,18,Woman,Left,
,,,,,,,,,,,,,,,,,551,18,Woman,Left,2,15,0.4,2,180,0,0,1.350342400000045,['y'],0.7269250000003922,2.0,1268.8540895,,,,,551,18,Woman,Left,
,,,,,,,,,,,,,,,,,551,18,Woman,Left,2,62,0.15,1,180,-,180,1.8177433999999266,['n'],0.2068141999998261,2.0,1273.053453,,,,,551,18,Woman,Left,
,,,,,,,,,,,,,,,,,551,18,Woman,Left,2,58,0.15,1,180,-,180,0.8756094000000303,['n'],0.6468835000000581,2.0,1276.6701481,,,,,551,18,Woman,Left,
,,,,,,,,,,,,,,,,,551,18,Woman,Left,2,6,1,1,180,-,180,0.38278909999962707,['n'],0.4143616999999722,2.0,1279.9876504,,,,,551,18,Woman,Left,
,,,,,,,,,,,,,,,,,551,18,Woman,Left,2,51,0.15,2,180,0,0,1.2143565999999737,['y'],1.1589484999999513,2.0,1284.5534777000003,,,,,551,18,Woman,Left,
,,,,,,,,,,,,,,,,,551,18,Woman,Left,2,50,0.15,1,180,-,180,0.5357029000001603,['n'],0.35886740000023565,2.0,1287.570087,,,,,551,18,Woman,Left,
,,,,,,,,,,,,,,,,,551,18,Woman,Left,2,75,0.15,2,180,0,0,1.1500745000003008,['y'],0.8996632000003046,2.0,1292.2371245,,,,,551,18,Woman,Left,
,,,,,,,,,,,,,,,,,551,18,Woman,Left,2,53,0.15,2,0,180,180,1.4822963000001437,['y'],1.5348274999996647,2.0,1297.3534586,,,,,551,18,Woman,Left,
,,,,,,,,,,,,,,,,,551,18,Woman,Left,2,0,1,1,0,-,0,1.0695878999999877,['n'],1.4792294000003494,2.0,1303.4536782999999,,,,,551,18,Woman,Left,
,,,,,,,,,,,,,,,,,551,18,Woman,Left,2,78,0.15,1,180,-,180,0.9731139999998959,['n'],1.3751208999997289,2.0,1308.720359,,,,,551,18,Woman,Left,
,,,,,,,,,,,,,,,,,551,18,Woman,Left,2,73,0.15,2,0,180,0,3.0487570000000233,['n'],2.2310879999999997,2.0,1316.4710817999999,,,,,551,18,Woman,Left,
,,,,,,,,,,,,,,,,,551,18,Woman,Left,2,1,1,2,0,180,180,0.9261059999998906,['y'],1.3029062000000522,2.0,1320.8869135,,,,,551,18,Woman,Left,
,,,,,,,,,,,,,,,,,551,18,Woman,Left,2,40,0.4,1,0,-,0,0.7996533000000454,['n'],0.5026968000001943,2.0,1324.3869087000003,,,,,551,18,Woman,Left,
,,,,,,,,,,,,,,,,,551,18,Woman,Left,2,61,0.15,2,0,180,180,1.4988319999997657,['y'],0.13472960000035528,2.0,1328.4538336,,,,,551,18,Woman,Left,
,,,,,,,,,,,,,,,,,551,18,Woman,Left,2,23,0.4,2,180,0,0,0.6895564000001286,['y'],0.8388073000000986,2.0,1332.1371021,,,,,551,18,Woman,Left,
,,,,,,,,,,,,,,,,,551,18,Woman,Left,2,42,0.4,1,180,-,180,0.2391861000000972,['n'],0.7750856000002386,2.0,1335.1869486,,,,,551,18,Woman,Left,
,,,,,,,,,,,,,,,,,551,18,Woman,Left,2,35,0.4,2,180,0,0,0.38871030000018436,['y'],1.407129199999872,2.0,1339.0539193,,,,,551,18,Woman,Left,
,,,,,,,,,,,,,,,,,551,18,Woman,Left,2,22,0.4,1,180,-,180,0.4575033999999505,['n'],0.37473399999998946,2.0,1342.0536898999999,,,,,551,18,Woman,Left,
,,,,,,,,,,,,,,,,,551,18,Woman,Left,2,5,1,2,0,180,180,0.35193200000003344,['y'],1.4470427999999629,2.0,1345.9870028,,,,,551,18,Woman,Left,
,,,,,,,,,,,,,,,,,551,18,Woman,Left,2,65,0.15,2,0,180,0,0.7997331000001395,['n'],0.9902424000001702,2.0,1350.2703130999998,,,,,551,18,Woman,Left,
,,,,,,,,,,,,,,,,,551,18,Woman,Left,2,66,0.15,1,180,-,180,1.595838900000217,['n'],0.8789762999999766,2.0,1354.7369803000001,,,,,551,18,Woman,Left,
,,,,,,,,,,,,,,,,,551,18,Woman,Left,2,7,1,2,180,0,0,0.48982359999990877,['y'],1.0389479999998912,2.0,1358.3036609,,,,,551,18,Woman,Left,
,,,,,,,,,,,,,,,,,551,18,Woman,Left,2,45,0.15,2,0,180,0,1.2970310000000609,['n'],0.35894999999982247,2.0,1362.0537136000003,,,,,551,18,Woman,Left,
,,,,,,,,,,,,,,,,,551,18,Woman,Left,2,4,1,1,0,-,0,0.36258719999977984,['n'],0.4709599999996499,2.0,1365.30368,,,,,551,18,Woman,Left,
,,,,,,,,,,,,,,,,,551,18,Woman,Left,2,19,0.4,2,180,0,0,3.231901999999991,['y'],0.2789753000001838,2.0,1371.4872712000001,,,,,551,18,Woman,Left,
,,,,,,,,,,,,,,,,,551,18,Woman,Left,2,33,0.4,2,0,180,180,1.3344977000001563,['y'],1.070937800000138,2.0,1376.0038911000001,,,,,551,18,Woman,Left,
,,,,,,,,,,,,,,,,,551,18,Woman,Left,2,54,0.15,1,180,-,180,1.641200900000058,['n'],1.406934000000092,2.0,1381.2205631000002,,,,,551,18,Woman,Left,
,,,,,,,,,,,,,,,,,551,18,Woman,Left,2,39,0.4,2,180,0,0,0.9163395999999011,['y'],1.8470336000000316,2.0,1386.0382187999999,,,,,551,18,Woman,Left,
,,,,,,,,,,,,,,,,,551,18,Woman,Left,2,10,0.4,1,180,-,180,0.929802699999982,['n'],0.238874499999838,2.0,1389.4709223999998,,,,,551,18,Woman,Left,
,,,,,,,,,,,,,,,,,551,18,Woman,Left,2,30,0.4,1,180,-,180,0.19507310000017242,['n'],0.3832814000002145,2.0,1392.1370000000002,,,,,551,18,Woman,Left,
,,,,,,,,,,,,,,,,,551,18,Woman,Left,2,11,0.4,2,180,0,0,0.39768720000029134,['y'],1.4070816999997078,2.0,1396.0370790000002,,,,,551,18,Woman,Left,
,,,,,,,,,,,,,,,,,551,18,Woman,Left,2,70,0.15,1,180,-,180,2.7589146000000255,['y'],0.8949839000001703,2.0,1401.8204099,,,,,551,18,Woman,Left,
,,,,,,,,,,,,,,,,,551,18,Woman,Left,2,13,0.4,2,0,180,180,1.0043691000000763,['y'],0.7670013000001745,2.0,1405.8038482000002,,,,,551,18,Woman,Left,
,,,,,,,,,,,,,,,,,551,18,Woman,Left,2,44,0.15,1,0,-,180,0.4833039000000099,['n'],0.38017770000033124,2.0,1408.9871811000003,,,,,551,18,Woman,Left,
,,,,,,,,,,,,,,,,,551,18,Woman,Left,2,27,0.4,2,180,0,0,1.3665894999999182,['y'],0.2738481999999749,2.0,1413.6038160000003,,,,,551,18,Woman,Left,
,,,,,,,,,,,,,,,,,551,18,Woman,Left,2,79,0.15,2,180,0,0,0.9029879000004257,['y'],0.5909270000001925,2.0,1417.4204450000002,,,,,551,18,Woman,Left,
,,,,,,,,,,,,,,,,,551,18,Woman,Left,2,20,0.4,1,0,-,0,0.6991391000001386,['n'],1.0466502999997829,2.0,1421.2538193,,,,,551,18,Woman,Left,
,,,,,,,,,,,,,,,,,551,18,Woman,Left,2,49,0.15,2,0,180,180,0.6987507999997433,['y'],0.6552947000000131,2.0,1424.6038738000002,,,,,551,18,Woman,Left,
,,,,,,,,,,,,,,,,,551,18,Woman,Left,2,31,0.4,2,180,0,0,0.538988899999822,['y'],1.8950315999995837,2.0,1429.2204993,,,,,551,18,Woman,Left,
,,,,,,,,,,,,,,,,,551,18,Woman,Left,2,71,0.15,2,180,0,180,1.4180116999996244,['n'],0.6708912999997665,2.0,1433.4705029000002,,,,,551,18,Woman,Left,
,,,,,,,,,,,,,,,,,551,18,Woman,Left,2,8,0.4,1,0,-,180,1.3643169000001762,['n'],1.0628513999999996,2.0,1438.1540561000002,,,,,551,18,Woman,Left,
,,,,,,,,,,,,,,,,,551,18,Woman,Left,2,47,0.15,2,180,0,0,1.9367393000002266,['n'],1.6712474999999358,2.0,1443.8705753,,,,,551,18,Woman,Left,
,,,,,,,,,,,,,,,,,551,18,Woman,Left,2,26,0.4,1,180,-,180,4.052863299999899,['n'],1.3590938000002097,2.0,1453.7042672000002,,,,,551,18,Woman,Left,
,,,,,,,,,,,,,,,,,551,18,Woman,Left,2,37,0.4,2,0,180,180,1.1668878000000404,['y'],0.6786660999996457,2.0,1457.9371418,,,,,551,18,Woman,Left,
,,,,,,,,,,,,,,,,,551,18,Woman,Left,2,63,0.15,2,180,0,180,0.973253399999976,['n'],0.9112828000002082,2.0,1461.9873026,,,,,551,18,Woman,Left,
,,,,,,,,,,,,,,,,,551,18,Woman,Left,2,28,0.4,1,0,-,0,0.906594000000041,['n'],0.7112623999996686,2.0,1465.7540301,,,,,551,18,Woman,Left,
,,,,,,,,,,,,,,,,,551,18,Woman,Left,2,21,0.4,2,0,180,180,1.8499214000003121,['y'],1.7583091000001332,2.0,1471.6042228000001,,,,,551,18,Woman,Left,
,,,,,,,,,,,,,,,,,551,18,Woman,Left,2,38,0.4,1,180,-,180,0.41002660000003743,['n'],1.6711148999997931,2.0,1475.9042211,,,,,551,18,Woman,Left,
,,,,,,,,,,,,,,,,,551,18,Woman,Left,2,77,0.15,2,0,180,180,0.878103099999862,['n'],0.8312823000001117,2.0,1479.8540271000002,,,,,551,18,Woman,Left,
,,,,,,,,,,,,,,,,,551,18,Woman,Left,2,67,0.15,2,180,0,180,0.4607261000001017,['n'],0.23052229999984775,2.0,1483.4539398000002,,,,,551,18,Woman,Left,
,,,,,,,,,,,,,,,,,551,18,Woman,Left,2,41,0.4,2,0,180,180,0.7618625000000065,['y'],0.5509657000002335,2.0,1486.8383073,,,,,551,18,Woman,Left,
,,,,,,,,,,,,,,,,,551,18,Woman,Left,2,3,1,2,180,0,0,0.8792229000000589,['y'],0.7189235999999255,2.0,1490.7206211000002,,,,,551,18,Woman,Left,
,,,,,,,,,,,,,,,,,551,18,Woman,Left,2,32,0.4,1,0,-,180,0.45638400000007096,['n'],0.9993990000002668,2.0,1494.2209595,,,,,551,18,Woman,Left,
,,,,,,,,,,,,,,,,,551,18,Woman,Left,2,68,0.15,1,0,-,180,1.5178618999998434,['n'],0.21488890000000538,2.0,1498.1875325,,,,,551,18,Woman,Left,
,,,,,,,,,,,,,,,,,551,18,Woman,Left,2,64,0.15,1,0,-,0,0.810452499999883,['n'],0.6869259999998576,2.0,1501.6382984000002,,,,,551,18,Woman,Left,
,,,,,,,,,,,,,,,,,551,18,Woman,Left,2,76,0.15,1,0,-,180,0.5363093999999364,['n'],0.3108751000004304,2.0,1505.4884958000002,,,,,551,18,Woman,Left,
,,,,,,,,,,,,,,,,,551,18,Woman,Left,2,2,1,1,180,-,180,0.2872370000000046,['n'],0.5909413000003951,2.0,1508.9539986,,,,,551,18,Woman,Left,
,,,,,,,,,,,,,,,,,551,18,Woman,Left,2,17,0.4,2,0,180,180,1.0199108999995588,['y'],0.8391068000000814,2.0,1513.1207610000001,,,,,551,18,Woman,Left,
,,,,,,,,,,,,,,,,,551,18,Woman,Left,3,30,0.4,1,180,-,180,0.5543025000001762,['n'],1.022901599999841,2.0,1524.6540906999999,83.75,85.0,77.5,,551,18,Woman,Left,
,,,,,,,,,,,,,,,,,551,18,Woman,Left,3,48,0.15,1,0,-,0,0.9997724999998354,['n'],0.9514930000000277,2.0,1528.7042794,,,,,551,18,Woman,Left,
,,,,,,,,,,,,,,,,,551,18,Woman,Left,3,44,0.15,1,0,-,0,0.5001303000003645,['n'],0.32849960000021383,2.0,1532.1040685000003,,,,,551,18,Woman,Left,
,,,,,,,,,,,,,,,,,551,18,Woman,Left,3,46,0.15,1,180,-,180,0.48709680000001754,['n'],0.5509346999997433,2.0,1535.2709618,,,,,551,18,Woman,Left,
,,,,,,,,,,,,,,,,,551,18,Woman,Left,3,35,0.4,2,180,0,180,0.04167929999994158,['y'],1.630990699999984,2.0,1539.0544833,,,,,551,18,Woman,Left,
,,,,,,,,,,,,,,,,,551,18,Woman,Left,3,27,0.4,2,180,0,0,0.5450720999997429,['y'],1.038991299999907,2.0,1542.7209705999999,,,,,551,18,Woman,Left,
,,,,,,,,,,,,,,,,,551,18,Woman,Left,3,1,1,2,0,180,180,1.528400899999724,['y'],0.2712676000001011,2.0,1546.6876995000002,,,,,551,18,Woman,Left,
,,,,,,,,,,,,,,,,,551,18,Woman,Left,3,21,0.4,2,0,180,180,0.8740025000001879,['y'],0.5988859999997658,2.0,1550.5707668,,,,,551,18,Woman,Left,
,,,,,,,,,,,,,,,,,551,18,Woman,Left,3,77,0.15,2,0,180,0,0.6354793000000427,['n'],0.8870256000000154,2.0,1555.4210733999998,,,,,551,18,Woman,Left,
,,,,,,,,,,,,,,,,,551,18,Woman,Left,3,0,1,1,0,-,0,0.640888299999915,['n'],0.5433251999997992,2.0,1558.7708412000002,,,,,551,18,Woman,Left,
,,,,,,,,,,,,,,,,,551,18,Woman,Left,3,16,0.4,1,0,-,0,0.3449080000000322,['n'],1.279403000000002,2.0,1562.9707461000003,,,,,551,18,Woman,Left,
,,,,,,,,,,,,,,,,,551,18,Woman,Left,3,38,0.4,1,180,-,180,0.17305919999989783,['n'],0.6631633000001784,2.0,1566.0042241,,,,,551,18,Woman,Left,
,,,,,,,,,,,,,,,,,551,18,Woman,Left,3,71,0.15,2,180,0,180,0.42884090000006836,['n'],0.318909099999928,2.0,1569.1050497,,,,,551,18,Woman,Left,
,,,,,,,,,,,,,,,,,551,18,Woman,Left,3,55,0.15,2,180,0,180,0.15419599999995626,['n'],0.8389838999996755,2.0,1572.7382354000001,,,,,551,18,Woman,Left,
,,,,,,,,,,,,,,,,,551,18,Woman,Left,3,64,0.15,1,0,-,0,0.45669230000021344,['n'],0.5108792999999423,2.0,1576.0210685000002,,,,,551,18,Woman,Left,
,,,,,,,,,,,,,,,,,551,18,Woman,Left,3,63,0.15,2,180,0,0,0.5907772999998997,['y'],1.527130699999816,2.0,1580.2541966,,,,,551,18,Woman,Left,
,,,,,,,,,,,,,,,,,551,18,Woman,Left,3,37,0.4,2,0,180,180,1.6353715000000193,['y'],0.5189248000001498,2.0,1584.8877154000002,,,,,551,18,Woman,Left,
,,,,,,,,,,,,,,,,,551,18,Woman,Left,3,47,0.15,2,180,0,180,0.3217789000000266,['n'],0.7509778999997252,2.0,1588.0377535000002,,,,,551,18,Woman,Left,
,,,,,,,,,,,,,,,,,551,18,Woman,Left,3,25,0.4,2,0,180,180,1.6838087000000996,['y'],0.3394658000001982,2.0,1592.2210479,,,,,551,18,Woman,Left,
,,,,,,,,,,,,,,,,,551,18,Woman,Left,3,49,0.15,2,0,180,180,0.2574360999997225,['n'],0.43890559999999823,2.0,1595.0209038000003,,,,,551,18,Woman,Left,
,,,,,,,,,,,,,,,,,551,18,Woman,Left,3,59,0.15,2,180,0,180,0.4298877999999604,['n'],0.6067571999997199,2.0,1598.2709782000002,,,,,551,18,Woman,Left,
,,,,,,,,,,,,,,,,,551,18,Woman,Left,3,36,0.4,1,0,-,0,0.12666110000009212,['n'],0.8551039999997556,2.0,1601.3709344,,,,,551,18,Woman,Left,
,,,,,,,,,,,,,,,,,551,18,Woman,Left,3,78,0.15,1,180,-,180,0.33074549999992087,['n'],0.3829283000000032,2.0,1604.5710875999998,,,,,551,18,Woman,Left,
,,,,,,,,,,,,,,,,,551,18,Woman,Left,3,61,0.15,2,0,180,0,0.7865286999999626,['n'],0.21512369999982184,2.0,1607.8877923999999,,,,,551,18,Woman,Left,
,,,,,,,,,,,,,,,,,551,18,Woman,Left,3,8,0.4,1,0,-,0,0.46049900000025445,['n'],0.5029521999999815,2.0,1611.3043054,,,,,551,18,Woman,Left,
,,,,,,,,,,,,,,,,,551,18,Woman,Left,3,5,1,2,0,180,180,1.0905686999999489,['y'],0.7430893999999171,2.0,1615.3375689,,,,,551,18,Woman,Left,
,,,,,,,,,,,,,,,,,551,18,Woman,Left,3,52,0.15,1,0,-,0,0.4354791999999179,['n'],0.3428862000000663,2.0,1618.3709133000002,,,,,551,18,Woman,Left,
,,,,,,,,,,,,,,,,,551,18,Woman,Left,3,3,1,2,180,0,0,1.7437302999996973,['y'],0.8467457000001559,2.0,1623.1542356,,,,,551,18,Woman,Left,
,,,,,,,,,,,,,,,,,551,18,Woman,Left,3,13,0.4,2,0,180,180,1.4633767999998781,['y'],0.583096000000296,2.0,1627.2051403,,,,,551,18,Woman,Left,
,,,,,,,,,,,,,,,,,551,18,Woman,Left,3,24,0.4,1,0,-,0,0.595190200000161,['n'],1.1029982000000018,2.0,1630.9876539000002,,,,,551,18,Woman,Left,
,,,,,,,,,,,,,,,,,551,18,Woman,Left,3,65,0.15,2,0,180,0,0.3893017999998847,['n'],0.5832437999997637,2.0,1634.0212179999999,,,,,551,18,Woman,Left,
,,,,,,,,,,,,,,,,,551,18,Woman,Left,3,76,0.15,1,0,-,180,0.4481221999999434,['n'],0.31879159999971307,1.97,1638.6879130000002,,,,,551,18,Woman,Left,
,,,,,,,,,,,,,,,,,551,18,Woman,Left,3,54,0.15,1,180,-,180,2.2504509999998845,['n'],0.21476829999983238,1.97,1643.1709968999999,,,,,551,18,Woman,Left,
,,,,,,,,,,,,,,,,,551,18,Woman,Left,3,53,0.15,2,0,180,180,0.368367500000204,['n'],0.2868989999997211,1.97,1646.4378103,,,,,551,18,Woman,Left,
,,,,,,,,,,,,,,,,,551,18,Woman,Left,3,7,1,2,180,0,0,0.3999029999999948,['y'],0.749072999999953,1.97,1649.7042969,,,,,551,18,Woman,Left,
,,,,,,,,,,,,,,,,,551,18,Woman,Left,3,34,0.4,1,180,-,180,0.5501832999998442,['n'],0.3172500000000582,1.97,1652.7377848,,,,,551,18,Woman,Left,
,,,,,,,,,,,,,,,,,551,18,Woman,Left,3,40,0.4,1,0,-,0,0.31172990000004575,['n'],0.6950243999999657,1.97,1655.7876854,,,,,551,18,Woman,Left,
,,,,,,,,,,,,,,,,,551,18,Woman,Left,3,19,0.4,2,180,0,0,0.8630747000001975,['y'],1.2071227999999792,1.97,1659.8711505,,,,,551,18,Woman,Left,
,,,,,,,,,,,,,,,,,551,18,Woman,Left,3,9,0.4,2,0,180,180,2.398407099999986,['y'],1.0071009999996932,1.97,1665.4044407000001,,,,,551,18,Woman,Left,
,,,,,,,,,,,,,,,,,551,18,Woman,Left,3,79,0.15,2,180,0,0,1.0998214000001099,['y'],1.175430399999641,1.3439999999999999,1670.6543302999999,,,,,551,18,Woman,Left,
,,,,,,,,,,,,,,,,,551,18,Woman,Left,3,42,0.4,1,180,-,180,0.34179549999998926,['n'],1.3189910999999483,1.984,1675.0377238,,,,,551,18,Woman,Left,
,,,,,,,,,,,,,,,,,551,18,Woman,Left,3,26,0.4,1,180,-,180,1.1169576000002053,['n'],0.6631569000001036,1.984,1678.7886412000003,,,,,551,18,Woman,Left,
,,,,,,,,,,,,,,,,,551,18,Woman,Left,3,33,0.4,2,0,180,180,1.232405000000199,['y'],0.8712778000003709,1.984,1683.2713749,,,,,551,18,Woman,Left,
,,,,,,,,,,,,,,,,,551,18,Woman,Left,3,12,0.4,1,0,-,0,0.3198234000001321,['n'],0.6709092000000965,1.984,1686.3546897,,,,,551,18,Woman,Left,
,,,,,,,,,,,,,,,,,551,18,Woman,Left,3,41,0.4,2,0,180,180,0.6103078999999525,['y'],0.9031907999997202,1.984,1690.0546399,,,,,551,18,Woman,Left,
,,,,,,,,,,,,,,,,,551,18,Woman,Left,3,28,0.4,1,0,-,0,0.40296859999989465,['n'],0.3672056000000339,1.984,1693.1877041000002,,,,,551,18,Woman,Left,
,,,,,,,,,,,,,,,,,551,18,Woman,Left,3,14,0.4,1,180,-,180,0.6421291000001474,['n'],1.6470580999998674,1.984,1697.6044698,,,,,551,18,Woman,Left,
,,,,,,,,,,,,,,,,,551,18,Woman,Left,3,31,0.4,2,180,0,0,0.7499486000001525,['y'],1.325178899999628,1.984,1701.7044905000002,,,,,551,18,Woman,Left,
,,,,,,,,,,,,,,,,,551,18,Woman,Left,3,50,0.15,1,180,-,180,1.0684463000002324,['n'],0.36685280000028797,1.996,1705.9378575,,,,,551,18,Woman,Left,
,,,,,,,,,,,,,,,,,551,18,Woman,Left,3,18,0.4,1,180,-,180,0.11696740000024874,['n'],1.2523498999998992,1.996,1705.9378575,,,,,551,18,Woman,Left,
,,,,,,,,,,,,,,,,,551,18,Woman,Left,3,67,0.15,2,180,0,180,0.2794947000002139,['n'],0.7029972000000271,1.996,1712.2544734000003,,,,,551,18,Woman,Left,
,,,,,,,,,,,,,,,,,551,18,Woman,Left,3,75,0.15,2,180,0,0,0.5809314000002814,['n'],0.782798400000047,1.998,1716.1554225999998,,,,,551,18,Woman,Left,
,,,,,,,,,,,,,,,,,551,18,Woman,Left,3,68,0.15,1,0,-,0,0.43012540000017907,['n'],0.28723119999995106,1.998,1719.5878824000001,,,,,551,18,Woman,Left,
,,,,,,,,,,,,,,,,,551,18,Woman,Left,3,32,0.4,1,0,-,0,0.12348869999959788,['n'],1.4798162000001867,1.998,1723.7045789,,,,,551,18,Woman,Left,
,,,,,,,,,,,,,,,,,551,18,Woman,Left,3,74,0.15,1,180,-,180,1.29231209999989,['n'],0.9588859000000411,2.0,1728.1714121999998,,,,,551,18,Woman,Left,
,,,,,,,,,,,,,,,,,551,18,Woman,Left,3,22,0.4,1,180,-,180,0.35942700000032346,['n'],0.6629903000002741,1.998,1731.4378904,,,,,551,18,Woman,Left,
,,,,,,,,,,,,,,,,,551,18,Woman,Left,3,51,0.15,2,180,0,180,0.22153670000034253,['n'],0.5110726999996587,1.998,1734.4547475,,,,,551,18,Woman,Left,
,,,,,,,,,,,,,,,,,551,18,Woman,Left,3,73,0.15,2,0,180,180,1.2291205999999875,['n'],0.5589631000002555,1.998,1738.8378224000003,,,,,551,18,Woman,Left,
,,,,,,,,,,,,,,,,,551,18,Woman,Left,3,6,1,1,180,-,180,0.280500999999731,['n'],0.3188758000001144,1.998,1742.2545197,,,,,551,18,Woman,Left,
,,,,,,,,,,,,,,,,,551,18,Woman,Left,3,39,0.4,2,180,0,180,0.09872339999992619,['y'],1.39943889999995,1.998,1746.1044717999998,,,,,551,18,Woman,Left,
,,,,,,,,,,,,,,,,,551,18,Woman,Left,3,58,0.15,1,180,-,180,0.4988450999999259,['n'],0.9186352000001534,1.998,1749.7046073000001,,,,,551,18,Woman,Left,
,,,,,,,,,,,,,,,,,551,18,Woman,Left,3,43,0.4,2,180,0,0,0.5058468000001994,['y'],0.8069768000000295,1.998,1753.2378917,,,,,551,18,Woman,Left,
,,,,,,,,,,,,,,,,,551,18,Woman,Left,3,11,0.4,2,180,0,0,0.48866839999982403,['y'],0.7668157000002793,1.998,1756.8878976,,,,,551,18,Woman,Left,
,,,,,,,,,,,,,,,,,551,18,Woman,Left,3,45,0.15,2,0,180,180,0.43530409999993935,['n'],0.41485629999988305,1.998,1759.8879482000002,,,,,551,18,Woman,Left,
,,,,,,,,,,,,,,,,,551,18,Woman,Left,3,56,0.15,1,0,-,0,0.9812790999999379,['n'],0.43888660000038726,1.998,1763.5879709,,,,,551,18,Woman,Left,
,,,,,,,,,,,,,,,,,551,18,Woman,Left,3,60,0.15,1,0,-,0,1.0717913000003136,['n'],0.33489929999996093,1.998,1767.2215578999999,,,,,551,18,Woman,Left,
,,,,,,,,,,,,,,,,,551,18,Woman,Left,3,4,1,1,0,-,0,0.3165334999998777,['n'],0.2650885000002745,1.998,1770.1715163,,,,,551,18,Woman,Left,
,,,,,,,,,,,,,,,,,551,18,Woman,Left,3,23,0.4,2,180,0,0,0.43337930000006963,['y'],0.7135459999999512,1.998,1773.4046722000003,,,,,551,18,Woman,Left,
,,,,,,,,,,,,,,,,,551,18,Woman,Left,3,66,0.15,1,180,-,180,0.5594986999999492,['n'],0.44670369999994364,1.998,1776.5545622,,,,,551,18,Woman,Left,
,,,,,,,,,,,,,,,,,551,18,Woman,Left,3,29,0.4,2,0,180,180,1.2039323999997578,['y'],0.3590630999997302,1.998,1780.1888342000002,,,,,551,18,Woman,Left,
,,,,,,,,,,,,,,,,,551,18,Woman,Left,3,57,0.15,2,0,180,0,0.5157894999997552,['y'],3.6474356999997326,1.998,1786.7056195999999,,,,,551,18,Woman,Left,
,,,,,,,,,,,,,,,,,551,18,Woman,Left,3,62,0.15,1,180,-,180,1.4698984999999993,['n'],0.37525270000014643,1.998,1790.6549306000002,,,,,551,18,Woman,Left,
,,,,,,,,,,,,,,,,,551,18,Woman,Left,3,72,0.15,1,0,-,180,0.7225495999996383,['n'],0.38285790000009,1.998,1794.3546993999998,,,,,551,18,Woman,Left,
,,,,,,,,,,,,,,,,,551,18,Woman,Left,3,15,0.4,2,180,0,0,1.8836974000000737,['y'],0.5748794000000998,1.998,1798.8880050000002,,,,,551,18,Woman,Left,
,,,,,,,,,,,,,,,,,551,18,Woman,Left,3,17,0.4,2,0,180,180,0.7037626999999702,['y'],0.24672860000009678,1.998,1801.8715539999998,,,,,551,18,Woman,Left,
,,,,,,,,,,,,,,,,,551,18,Woman,Left,3,69,0.15,2,0,180,180,0.7532059000000118,['n'],0.19909790000019711,1.998,1804.8380447,,,,,551,18,Woman,Left,
,,,,,,,,,,,,,,,,,551,18,Woman,Left,3,20,0.4,1,0,-,0,0.5436995000000024,['n'],1.1509213999997883,1.998,1809.1549665000002,,,,,551,18,Woman,Left,
,,,,,,,,,,,,,,,,,551,18,Woman,Left,3,70,0.15,1,180,-,180,0.6086030000001301,['n'],0.37506219999977475,1.998,1812.4380839,,,,,551,18,Woman,Left,
,,,,,,,,,,,,,,,,,551,18,Woman,Left,3,10,0.4,1,180,-,180,0.48780930000020817,['n'],0.3028073000000404,1.998,1815.7880893000001,,,,,551,18,Woman,Left,
,,,,,,,,,,,,,,,,,551,18,Woman,Left,3,2,1,1,180,-,180,0.3594589000003907,['n'],0.23102560000006633,1.998,1818.9047556,,,,,551,18,Woman,Left,
,,,,,,,,,,,,,,,,,551,18,Woman,Left,4,63,0.15,2,180,0,0,1.4281793000000107,['n'],1.4708411999999953,2.0,1850.2381622000003,82.5,100.0,62.5,,551,18,Woman,Left,
,,,,,,,,,,,,,,,,,551,18,Woman,Left,4,8,0.4,1,0,-,0,0.42012449999992896,['n'],0.3588377999999466,2.0,1853.4548435000002,,,,,551,18,Woman,Left,
,,,,,,,,,,,,,,,,,551,18,Woman,Left,4,44,0.15,1,0,-,0,0.46490570000014486,['n'],0.8787978999998813,2.0,1856.9381574,,,,,551,18,Woman,Left,
,,,,,,,,,,,,,,,,,551,18,Woman,Left,4,56,0.15,1,0,-,0,0.41177950000019337,['n'],0.3268514999999752,2.0,1860.1719122,,,,,551,18,Woman,Left,
,,,,,,,,,,,,,,,,,551,18,Woman,Left,4,10,0.4,1,180,-,180,0.6839482000000316,['n'],0.8549201000000721,2.0,1863.8715526,,,,,551,18,Woman,Left,
,,,,,,,,,,,,,,,,,551,18,Woman,Left,4,69,0.15,2,0,180,0,1.127414100000351,['n'],0.9912107999998625,2.0,1868.1381359000002,,,,,551,18,Woman,Left,
,,,,,,,,,,,,,,,,,551,18,Woman,Left,4,3,1,2,180,0,0,0.4973026000002392,['y'],0.710944599999948,2.0,1871.5052340000002,,,,,551,18,Woman,Left,
,,,,,,,,,,,,,,,,,551,18,Woman,Left,4,79,0.15,2,180,0,180,0.5288525999999365,['y'],1.7107974000000468,2.0,1876.1382115000001,,,,,551,18,Woman,Left,
,,,,,,,,,,,,,,,,,551,18,Woman,Left,4,62,0.15,1,180,-,0,0.328210499999841,['n'],0.8466582000000926,2.0,1879.6548487999999,,,,,551,18,Woman,Left,
,,,,,,,,,,,,,,,,,551,18,Woman,Left,4,4,1,1,0,-,0,0.47001709999995,['n'],0.8149825000000419,2.0,1883.4382630999999,,,,,551,18,Woman,Left,
,,,,,,,,,,,,,,,,,551,18,Woman,Left,4,7,1,2,180,0,0,0.7912100000003193,['y'],0.8475447999999233,2.0,1888.2552693000002,,,,,551,18,Woman,Left,
,,,,,,,,,,,,,,,,,551,18,Woman,Left,4,61,0.15,2,0,180,180,0.5737420999998903,['n'],1.0475179000000026,2.0,1892.2384207,,,,,551,18,Woman,Left,
,,,,,,,,,,,,,,,,,551,18,Woman,Left,4,48,0.15,1,0,-,180,0.5599126000001888,['n'],0.2948648999999932,2.0,1895.2218618000002,,,,,551,18,Woman,Left,
,,,,,,,,,,,,,,,,,551,18,Woman,Left,4,16,0.4,1,0,-,0,0.30590490000031423,['n'],0.28695299999981216,2.0,1898.2715074000002,,,,,551,18,Woman,Left,
,,,,,,,,,,,,,,,,,551,18,Woman,Left,4,75,0.15,2,180,0,180,0.7646885000003749,['n'],0.615003699999761,2.0,1901.9391418999999,,,,,551,18,Woman,Left,
,,,,,,,,,,,,,,,,,551,18,Woman,Left,4,37,0.4,2,0,180,180,0.6265610000000379,['y'],0.4949923999997736,2.0,1905.1215542999998,,,,,551,18,Woman,Left,
,,,,,,,,,,,,,,,,,551,18,Woman,Left,4,47,0.15,2,180,0,0,1.3198267000002488,['y'],0.6710536999999022,2.0,1909.2881983000002,,,,,551,18,Woman,Left,
,,,,,,,,,,,,,,,,,551,18,Woman,Left,4,33,0.4,2,0,180,180,0.8057825999999295,['y'],0.7030777999998463,2.0,1912.8882365,,,,,551,18,Woman,Left,
,,,,,,,,,,,,,,,,,551,18,Woman,Left,4,45,0.15,2,0,180,180,0.5692137000000912,['n'],0.47913910000033866,2.0,1916.1716933000002,,,,,551,18,Woman,Left,
,,,,,,,,,,,,,,,,,551,18,Woman,Left,4,65,0.15,2,0,180,180,0.868590999999924,['y'],0.5430499999997664,2.0,1919.8217183000002,,,,,551,18,Woman,Left,
,,,,,,,,,,,,,,,,,551,18,Woman,Left,4,72,0.15,1,0,-,0,1.462931099999878,['n'],0.8706236000002718,2.0,1924.2050212,,,,,551,18,Woman,Left,
,,,,,,,,,,,,,,,,,551,18,Woman,Left,4,18,0.4,1,180,-,180,0.5698051999997915,['n'],0.3189975999998751,2.0,1927.1217367,,,,,551,18,Woman,Left,
,,,,,,,,,,,,,,,,,551,18,Woman,Left,4,58,0.15,1,180,-,180,0.4184882999998081,['n'],0.3428279999998267,2.0,1929.9883952999999,,,,,551,18,Woman,Left,
,,,,,,,,,,,,,,,,,551,18,Woman,Left,4,25,0.4,2,0,180,180,1.3516215999998167,['y'],0.33493110000017623,2.0,1933.771662,,,,,551,18,Woman,Left,
,,,,,,,,,,,,,,,,,551,18,Woman,Left,4,12,0.4,1,0,-,0,0.5117730000001757,['n'],0.4151566999998977,2.0,1937.2051296,,,,,551,18,Woman,Left,
,,,,,,,,,,,,,,,,,551,18,Woman,Left,4,15,0.4,2,180,0,0,1.4951049999999668,['y'],0.3108904000000621,2.0,1941.4384036000001,,,,,551,18,Woman,Left,
,,,,,,,,,,,,,,,,,551,18,Woman,Left,4,42,0.4,1,180,-,180,0.3923499000002266,['n'],0.3269593999998506,2.0,1944.2218032,,,,,551,18,Woman,Left,
,,,,,,,,,,,,,,,,,551,18,Woman,Left,4,14,0.4,1,180,-,180,0.24038530000007086,['n'],0.2549394000002394,2.0,1947.0717301,,,,,551,18,Woman,Left,
,,,,,,,,,,,,,,,,,551,18,Woman,Left,4,9,0.4,2,0,180,180,1.200198100000307,['y'],0.4937513000004401,2.0,1950.9884139,,,,,551,18,Woman,Left,
,,,,,,,,,,,,,,,,,551,18,Woman,Left,4,6,1,1,180,-,180,0.3167490999999245,['n'],0.3143192000002273,2.0,1953.8884321,,,,,551,18,Woman,Left,
,,,,,,,,,,,,,,,,,551,18,Woman,Left,4,31,0.4,2,180,0,0,1.0924310000000332,['y'],0.38310180000007676,2.0,1957.5552315,,,,,551,18,Woman,Left,
,,,,,,,,,,,,,,,,,551,18,Woman,Left,4,29,0.4,2,0,180,180,1.1875490000002173,['y'],0.28687870000021576,2.0,1961.2220826000002,,,,,551,18,Woman,Left,
,,,,,,,,,,,,,,,,,551,18,Woman,Left,4,64,0.15,1,0,-,0,0.40831969999999274,['n'],0.3754684000000452,2.0,1964.3720561,,,,,551,18,Woman,Left,
,,,,,,,,,,,,,,,,,551,18,Woman,Left,4,17,0.4,2,0,180,180,0.8888713000001189,['y'],0.4151872000002186,2.0,1968.8217740999999,,,,,551,18,Woman,Left,
,,,,,,,,,,,,,,,,,551,18,Woman,Left,4,21,0.4,2,0,180,180,0.7656235000004017,['y'],0.358856399999695,2.0,1972.055123,,,,,551,18,Woman,Left,
,,,,,,,,,,,,,,,,,551,18,Woman,Left,4,1,1,2,0,180,180,0.25032499999997526,['y'],0.406787599999916,2.0,1975.0387105999998,,,,,551,18,Woman,Left,
,,,,,,,,,,,,,,,,,551,18,Woman,Left,4,54,0.15,1,180,-,180,0.3845694999999978,['n'],0.39890120000018214,2.0,1978.0050956999999,,,,,551,18,Woman,Left,
,,,,,,,,,,,,,,,,,551,18,Woman,Left,4,32,0.4,1,0,-,0,0.7122908999999709,['n'],0.5832746999999472,2.0,1981.4720078999999,,,,,551,18,Woman,Left,
,,,,,,,,,,,,,,,,,551,18,Woman,Left,4,23,0.4,2,180,0,0,0.7262080000000424,['y'],0.36684210000021267,2.0,1984.6221863,,,,,551,18,Woman,Left,
,,,,,,,,,,,,,,,,,551,18,Woman,Left,4,53,0.15,2,0,180,180,0.25977400000010675,['n'],0.2790040999998382,1.982,1987.3883974,,,,,551,18,Woman,Left,
,,,,,,,,,,,,,,,,,551,18,Woman,Left,4,70,0.15,1,180,-,180,1.1486064000000624,['y'],0.26246480000008887,1.982,1991.6720558000002,,,,,551,18,Woman,Left,
,,,,,,,,,,,,,,,,,551,18,Woman,Left,4,28,0.4,1,0,-,0,1.4241087000000334,['n'],0.8630308000001605,1.982,1996.3221896,,,,,551,18,Woman,Left,
,,,,,,,,,,,,,,,,,551,18,Woman,Left,4,74,0.15,1,180,-,180,0.35155079999958616,['n'],0.18315179999990505,1.982,1999.0552381000002,,,,,551,18,Woman,Left,
,,,,,,,,,,,,,,,,,551,18,Woman,Left,4,35,0.4,2,180,0,0,1.5001048999997693,['y'],1.0806625000000167,1.996,2004.3062291,,,,,551,18,Woman,Left,
,,,,,,,,,,,,,,,,,551,18,Woman,Left,4,49,0.15,2,0,180,180,1.6172558999996909,['y'],0.31998479999992924,2.0,2009.3386181,,,,,551,18,Woman,Left,
,,,,,,,,,,,,,,,,,551,18,Woman,Left,4,38,0.4,1,180,-,180,0.2851661999998214,['n'],0.3189667000001464,2.0,2011.9052206000001,,,,,551,18,Woman,Left,
,,,,,,,,,,,,,,,,,551,18,Woman,Left,4,71,0.15,2,180,0,0,1.0333627999998498,['y'],0.5322114000000511,2.0,2015.4884757999998,,,,,551,18,Woman,Left,
,,,,,,,,,,,,,,,,,551,18,Woman,Left,4,60,0.15,1,0,-,0,0.46384549999993396,['n'],1.0865865999999187,2.0,2019.6718323,,,,,551,18,Woman,Left,
,,,,,,,,,,,,,,,,,551,18,Woman,Left,4,2,1,1,180,-,180,0.27196749999984604,['y'],0.45499999999992724,1.02,2023.9885348000003,,,,,551,18,Woman,Left,
,,,,,,,,,,,,,,,,,551,18,Woman,Left,4,66,0.15,1,180,-,180,0.49095790000001216,['n'],0.5585949999999684,2.0,2028.8718718,,,,,551,18,Woman,Left,
,,,,,,,,,,,,,,,,,551,18,Woman,Left,4,36,0.4,1,0,-,0,0.4464882000002035,['n'],1.6791933000004065,2.0,2033.0885687999998,,,,,551,18,Woman,Left,
,,,,,,,,,,,,,,,,,551,18,Woman,Left,4,30,0.4,1,180,-,180,0.26523760000009133,['n'],0.8392251999998734,2.0,2036.3220144000002,,,,,551,18,Woman,Left,
,,,,,,,,,,,,,,,,,551,18,Woman,Left,4,78,0.15,1,180,-,180,0.08103460000029372,['n'],0.6389888999997311,2.0,2039.2388085000002,,,,,551,18,Woman,Left,
,,,,,,,,,,,,,,,,,551,18,Woman,Left,4,11,0.4,2,180,0,0,1.9790608999996948,['y'],0.7109485000000859,2.0,2044.1886091000001,,,,,551,18,Woman,Left,
,,,,,,,,,,,,,,,,,551,18,Woman,Left,4,27,0.4,2,180,0,0,0.7251612000000023,['y'],0.9749033999996755,2.0,2048.022475,,,,,551,18,Woman,Left,
,,,,,,,,,,,,,,,,,551,18,Woman,Left,4,20,0.4,1,0,-,0,0.591171999999915,['n'],0.567207199999757,2.0,2051.2386526,,,,,551,18,Woman,Left,
,,,,,,,,,,,,,,,,,551,18,Woman,Left,4,68,0.15,1,0,-,180,0.8005201000000852,['n'],0.21526899999980742,2.0,2054.3053868,,,,,551,18,Woman,Left,
,,,,,,,,,,,,,,,,,551,18,Woman,Left,4,22,0.4,1,180,-,180,0.4724884000002021,['n'],0.41475360000004,2.0,2056.9885847,,,,,551,18,Woman,Left,
,,,,,,,,,,,,,,,,,551,18,Woman,Left,4,26,0.4,1,180,-,180,0.2244101999999657,['n'],0.3110888999999588,2.0,2060.5553905,,,,,551,18,Woman,Left,
,,,,,,,,,,,,,,,,,551,18,Woman,Left,4,55,0.15,2,180,0,180,0.19572229999994306,['n'],0.23084160000007614,2.0,2063.3223006,,,,,551,18,Woman,Left,
,,,,,,,,,,,,,,,,,551,18,Woman,Left,4,40,0.4,1,0,-,0,0.5997931000001699,['n'],1.1993243000001712,2.0,2067.3387187,,,,,551,18,Woman,Left,
,,,,,,,,,,,,,,,,,551,18,Woman,Left,4,57,0.15,2,0,180,180,0.8000230000002375,['n'],0.6606390000001738,2.0,2070.8552838,,,,,551,18,Woman,Left,
,,,,,,,,,,,,,,,,,551,18,Woman,Left,4,50,0.15,1,180,-,0,0.9337281999996776,['n'],0.41352420000021084,2.0,2074.356261,,,,,551,18,Woman,Left,
,,,,,,,,,,,,,,,,,551,18,Woman,Left,4,52,0.15,1,0,-,0,0.31206690000044546,['n'],0.23091869999962,2.0,2077.0552711,,,,,551,18,Woman,Left,
,,,,,,,,,,,,,,,,,551,18,Woman,Left,4,76,0.15,1,0,-,180,0.15966919999982565,['n'],0.25489250000009633,2.0,2079.7395742,,,,,551,18,Woman,Left,
,,,,,,,,,,,,,,,,,551,18,Woman,Left,4,24,0.4,1,0,-,0,0.6756819000001997,['y'],1.1429073999997854,2.0,2083.8053827,,,,,551,18,Woman,Left,
,,,,,,,,,,,,,,,,,551,18,Woman,Left,4,46,0.15,1,180,-,180,0.3368408000001182,['n'],0.23888769999985016,2.0,2086.4222625,,,,,551,18,Woman,Left,
,,,,,,,,,,,,,,,,,551,18,Woman,Left,4,59,0.15,2,180,0,180,0.05366830000002665,['y'],1.430971000000227,2.0,2090.2386763,,,,,551,18,Woman,Left,
,,,,,,,,,,,,,,,,,551,18,Woman,Left,4,34,0.4,1,180,-,180,1.0249674999995477,['n'],0.15882479999982024,2.0,2093.4387692000005,,,,,551,18,Woman,Left,
,,,,,,,,,,,,,,,,,551,18,Woman,Left,4,43,0.4,2,180,0,0,1.6950331999996706,['y'],1.0709611000002042,2.0,2098.4720003999996,,,,,551,18,Woman,Left,
,,,,,,,,,,,,,,,,,551,18,Woman,Left,4,0,1,1,0,-,0,0.46088719999988825,['n'],0.6152314999999362,2.0,2101.6224549000003,,,,,551,18,Woman,Left,
,,,,,,,,,,,,,,,,,551,18,Woman,Left,4,73,0.15,2,0,180,180,1.1996224000004077,['y'],1.3108977000001687,2.0,2106.2223602999998,,,,,551,18,Woman,Left,
,,,,,,,,,,,,,,,,,551,18,Woman,Left,4,13,0.4,2,0,180,180,1.064269599999534,['y'],0.27102449999983946,2.0,2109.5721145,,,,,551,18,Woman,Left,
,,,,,,,,,,,,,,,,,551,18,Woman,Left,4,67,0.15,2,180,0,0,0.6788790000000517,['y'],0.4632945000003019,2.0,2112.9221964000003,,,,,551,18,Woman,Left,
,,,,,,,,,,,,,,,,,551,18,Woman,Left,4,5,1,2,0,180,180,0.4680938999999853,['y'],0.35894250000001193,2.0,2115.7720203000003,,,,,551,18,Woman,Left,
,,,,,,,,,,,,,,,,,551,18,Woman,Left,4,51,0.15,2,180,0,0,1.1943742000003112,['y'],0.24657289999959175,2.0,2119.2554513,,,,,551,18,Woman,Left,
,,,,,,,,,,,,,,,,,551,18,Woman,Left,4,19,0.4,2,180,0,0,0.40090150000014546,['y'],0.46280490000026475,2.0,2122.3056621,,,,,551,18,Woman,Left,
,,,,,,,,,,,,,,,,,551,18,Woman,Left,4,39,0.4,2,180,0,0,0.5594906999995146,['y'],0.21487180000076478,2.0,2125.1387343,,,,,551,18,Woman,Left,
,,,,,,,,,,,,,,,,,551,18,Woman,Left,4,77,0.15,2,0,180,180,0.750031300000046,['n'],0.1782863999997062,2.0,2128.2888132000003,,,,,551,18,Woman,Left,
,,,,,,,,,,,,,,,,,551,18,Woman,Left,4,41,0.4,2,0,180,180,0.36858010000014474,['y'],0.6950289999995221,2.0,2131.4888471,,,,,551,18,Woman,Left,
,,,,,,,,,,,,,,,,,551,18,Woman,Left,5,50,0.15,1,180,-,180,0.5322865999996793,['n'],0.9828016999999818,2.0,2164.6223222000003,87.5,92.5,77.5,,551,18,Woman,Left,
,,,,,,,,,,,,,,,,,551,18,Woman,Left,5,32,0.4,1,0,-,0,0.17917430000034074,['n'],0.7191247000000658,2.0,2167.5556706,,,,,551,18,Woman,Left,
,,,,,,,,,,,,,,,,,551,18,Woman,Left,5,65,0.15,2,0,180,180,1.4559787999996843,['y'],0.26287049999973533,2.0,2171.438839,,,,,551,18,Woman,Left,
,,,,,,,,,,,,,,,,,551,18,Woman,Left,5,26,0.4,1,180,-,180,0.37053130000003875,['n'],0.4309284999999363,2.0,2174.4062479,,,,,551,18,Woman,Left,
,,,,,,,,,,,,,,,,,551,18,Woman,Left,5,31,0.4,2,180,0,0,0.5838948000000528,['y'],0.5348217000000659,2.0,2177.7888669999998,,,,,551,18,Woman,Left,
,,,,,,,,,,,,,,,,,551,18,Woman,Left,5,56,0.15,1,0,-,0,0.49577960000078747,['n'],0.5668256999997539,2.0,2181.1388567999998,,,,,551,18,Woman,Left,
,,,,,,,,,,,,,,,,,551,18,Woman,Left,5,27,0.4,2,180,0,0,0.5083138999998482,['y'],0.3428970999993908,2.0,2183.9889721000004,,,,,551,18,Woman,Left,
,,,,,,,,,,,,,,,,,551,18,Woman,Left,5,21,0.4,2,0,180,180,0.42663420000008045,['y'],0.2790180000001783,2.0,2186.6890332999997,,,,,551,18,Woman,Left,
,,,,,,,,,,,,,,,,,551,18,Woman,Left,5,5,1,2,0,180,180,0.3358360000001994,['y'],0.2387484000000768,2.0,2190.5058622,,,,,551,18,Woman,Left,
,,,,,,,,,,,,,,,,,551,18,Woman,Left,5,57,0.15,2,0,180,180,1.1000435000005382,['y'],0.2599840000002587,2.0,2193.7889767,,,,,551,18,Woman,Left,
,,,,,,,,,,,,,,,,,551,18,Woman,Left,5,73,0.15,2,0,180,180,0.905962400000135,['n'],0.11078220000035799,1.998,2197.0058635,,,,,551,18,Woman,Left,
,,,,,,,,,,,,,,,,,551,18,Woman,Left,5,54,0.15,1,180,-,180,0.42635990000053425,['n'],0.25497290000021167,1.998,2200.0232266999997,,,,,551,18,Woman,Left,
,,,,,,,,,,,,,,,,,551,18,Woman,Left,5,76,0.15,1,0,-,0,0.46161579999989044,['n'],1.4472975999997288,1.998,2204.1224306,,,,,551,18,Woman,Left,
,,,,,,,,,,,,,,,,,551,18,Woman,Left,5,17,0.4,2,0,180,180,0.5731676000004882,['y'],0.590817799999968,1.998,2207.2731881000004,,,,,551,18,Woman,Left,
,,,,,,,,,,,,,,,,,551,18,Woman,Left,5,69,0.15,2,0,180,0,0.8906392999997479,['n'],0.5905542000000423,1.998,2210.855663,,,,,551,18,Woman,Left,
,,,,,,,,,,,,,,,,,551,18,Woman,Left,5,15,0.4,2,180,0,0,2.0134805000006963,['y'],0.33520899999984977,1.998,2215.289104,,,,,551,18,Woman,Left,
,,,,,,,,,,,,,,,,,551,18,Woman,Left,5,52,0.15,1,0,-,180,0.36623469999994995,['n'],0.359292799999821,1.998,2217.9893656,,,,,551,18,Woman,Left,
,,,,,,,,,,,,,,,,,551,18,Woman,Left,5,70,0.15,1,180,-,180,1.2230422000002363,['n'],0.19089879999955883,2.0,2221.5232069999997,,,,,551,18,Woman,Left,
,,,,,,,,,,,,,,,,,551,18,Woman,Left,5,40,0.4,1,0,-,0,0.7624556999999186,['n'],0.3191893999992317,2.0,2225.0056759000004,,,,,551,18,Woman,Left,
,,,,,,,,,,,,,,,,,551,18,Woman,Left,5,72,0.15,1,0,-,0,0.3434510999995837,['n'],0.19089609999991808,2.0,2227.7228068,,,,,551,18,Woman,Left,
,,,,,,,,,,,,,,,,,551,18,Woman,Left,5,58,0.15,1,180,-,180,0.38197409999975207,['n'],0.1825738999996247,2.0,2230.5068644999997,,,,,551,18,Woman,Left,
,,,,,,,,,,,,,,,,,551,18,Woman,Left,5,42,0.4,1,180,-,180,0.07437879999997676,['n'],0.1828386999995928,2.0,2233.1557540999997,,,,,551,18,Woman,Left,
,,,,,,,,,,,,,,,,,551,18,Woman,Left,5,16,0.4,1,0,-,0,0.48765869999988354,['n'],0.35096119999980147,2.0,2236.6225491,,,,,551,18,Woman,Left,
,,,,,,,,,,,,,,,,,551,18,Woman,Left,5,39,0.4,2,180,0,0,0.6548339999999371,['y'],0.6309014999997089,2.0,2239.9559655,,,,,551,18,Woman,Left,
,,,,,,,,,,,,,,,,,551,18,Woman,Left,5,30,0.4,1,180,-,180,0.3835954000005586,['n'],0.5591241000001901,2.0,2243.0390015999997,,,,,551,18,Woman,Left,
,,,,,,,,,,,,,,,,,551,18,Woman,Left,5,2,1,1,180,-,180,0.4314606999996613,['n'],0.7190396000005421,2.0,2246.3390517000003,,,,,551,18,Woman,Left,
,,,,,,,,,,,,,,,,,551,18,Woman,Left,5,11,0.4,2,180,0,180,0.03320869999970455,['y'],1.096440199999961,2.0,2249.539107,,,,,551,18,Woman,Left,
,,,,,,,,,,,,,,,,,551,18,Woman,Left,5,36,0.4,1,0,-,0,0.42533020000064425,['n'],0.886989600000561,2.0,2252.9393609000003,,,,,551,18,Woman,Left,
,,,,,,,,,,,,,,,,,551,18,Woman,Left,5,4,1,1,0,-,0,1.0997457000003124,['n'],0.2337543999992704,2.0,2256.2225052999997,,,,,551,18,Woman,Left,
,,,,,,,,,,,,,,,,,551,18,Woman,Left,5,45,0.15,2,0,180,180,0.47203910000007454,['n'],0.20729990000018006,2.0,2259.0390556999996,,,,,551,18,Woman,Left,
,,,,,,,,,,,,,,,,,551,18,Woman,Left,5,74,0.15,1,180,-,180,0.3227823000006538,['n'],1.911280700000134,2.0,2263.4560400000005,,,,,551,18,Woman,Left,
,,,,,,,,,,,,,,,,,551,18,Woman,Left,5,20,0.4,1,0,-,0,0.34103479999976116,['n'],0.26272849999986647,2.0,2266.2058376,,,,,551,18,Woman,Left,
,,,,,,,,,,,,,,,,,551,18,Woman,Left,5,59,0.15,2,180,0,0,2.0359779000000344,['y'],0.5348350000003848,2.0,2270.7559047,,,,,551,18,Woman,Left,
,,,,,,,,,,,,,,,,,551,18,Woman,Left,5,25,0.4,2,0,180,180,0.8280645999993794,['y'],0.27083109999966837,2.0,2273.8728611,,,,,551,18,Woman,Left,
,,,,,,,,,,,,,,,,,551,18,Woman,Left,5,28,0.4,1,0,-,0,0.9741040999997495,['n'],0.6469008000003669,2.0,2277.4725374000004,,,,,551,18,Woman,Left,
,,,,,,,,,,,,,,,,,551,18,Woman,Left,5,51,0.15,2,180,0,0,0.8380525000002308,['y'],0.21466030000010505,2.0,2280.5559091,,,,,551,18,Woman,Left,
,,,,,,,,,,,,,,,,,551,18,Woman,Left,5,10,0.4,1,180,-,180,0.5554150999996637,['n'],0.2147246999993513,2.0,2283.3392692,,,,,551,18,Woman,Left,
,,,,,,,,,,,,,,,,,551,18,Woman,Left,5,34,0.4,1,180,-,180,0.17985630000021047,['n'],0.1829146000000037,2.0,2285.9726228000004,,,,,551,18,Woman,Left,
,,,,,,,,,,,,,,,,,551,18,Woman,Left,5,61,0.15,2,0,180,0,0.6433415000001332,['n'],0.4228616999998849,2.0,2289.3227669000003,,,,,551,18,Woman,Left,
,,,,,,,,,,,,,,,,,551,18,Woman,Left,5,60,0.15,1,0,-,0,0.3338744000002407,['n'],0.17490770000040357,2.0,2291.9060809,,,,,551,18,Woman,Left,
,,,,,,,,,,,,,,,,,551,18,Woman,Left,5,77,0.15,2,0,180,180,0.2239296000007016,['n'],0.4232383000007758,2.0,2294.5735029,,,,,551,18,Woman,Left,
,,,,,,,,,,,,,,,,,551,18,Woman,Left,5,46,0.15,1,180,-,0,0.9218160000000353,['n'],0.22293290000015986,2.0,2297.7892171999997,,,,,551,18,Woman,Left,
,,,,,,,,,,,,,,,,,551,18,Woman,Left,5,64,0.15,1,0,-,180,0.6999648000000889,['n'],0.16745819999960077,2.0,2300.6559024000003,,,,,551,18,Woman,Left,
,,,,,,,,,,,,,,,,,551,18,Woman,Left,5,49,0.15,2,0,180,180,0.2592524000001504,['n'],0.15878889999930834,2.0,2303.2060962,,,,,551,18,Woman,Left,
,,,,,,,,,,,,,,,,,551,18,Woman,Left,5,71,0.15,2,180,0,180,0.01907310000024154,['y'],1.0869260999998005,2.0,2306.2728992999996,,,,,551,18,Woman,Left,
,,,,,,,,,,,,,,,,,551,18,Woman,Left,5,67,0.15,2,180,0,180,0.3833332000003793,['n'],0.11841379999987112,2.0,2308.8061453000005,,,,,551,18,Woman,Left,
,,,,,,,,,,,,,,,,,551,18,Woman,Left,5,68,0.15,1,0,-,180,0.38183480000043346,['n'],0.1588568999995914,2.0,2311.6558652,,,,,551,18,Woman,Left,
,,,,,,,,,,,,,,,,,551,18,Woman,Left,5,41,0.4,2,0,180,180,1.0839925000000221,['y'],0.14618719999998575,2.0,2315.3061485000003,,,,,551,18,Woman,Left,
,,,,,,,,,,,,,,,,,551,18,Woman,Left,5,48,0.15,1,0,-,0,0.4156493999998929,['n'],0.23030029999972612,2.0,2318.0392339000005,,,,,551,18,Woman,Left,
,,,,,,,,,,,,,,,,,551,18,Woman,Left,5,75,0.15,2,180,0,0,1.4717601000002105,['y'],0.17473100000006525,2.0,2321.6392504,,,,,551,18,Woman,Left,
,,,,,,,,,,,,,,,,,551,18,Woman,Left,5,7,1,2,180,0,0,0.7676326999999219,['y'],0.2788514000003488,2.0,2324.6728530000005,,,,,551,18,Woman,Left,
,,,,,,,,,,,,,,,,,551,18,Woman,Left,5,35,0.4,2,180,0,0,0.5192065999999613,['y'],0.279264100000546,2.0,2327.4395122,,,,,551,18,Woman,Left,
,,,,,,,,,,,,,,,,,551,18,Woman,Left,5,23,0.4,2,180,0,0,0.9359492000003229,['y'],0.1108025000003181,2.0,2330.5059849000004,,,,,551,18,Woman,Left,
,,,,,,,,,,,,,,,,,551,18,Woman,Left,5,38,0.4,1,180,-,180,1.3205024999997477,['n'],0.11884859999918262,2.0,2330.5059849000004,,,,,551,18,Woman,Left,
,,,,,,,,,,,,,,,,,551,18,Woman,Left,5,19,0.4,2,180,0,0,0.7551266000000396,['y'],0.1191634000006161,2.0,2336.6393998999997,,,,,551,18,Woman,Left,
,,,,,,,,,,,,,,,,,551,18,Woman,Left,5,78,0.15,1,180,-,0,0.640976600000613,['n'],0.2071936000002097,2.0,2339.5394013,,,,,551,18,Woman,Left,
,,,,,,,,,,,,,,,,,551,18,Woman,Left,5,0,1,1,0,-,0,0.3444651999998314,['n'],0.6627242999993541,2.0,2342.4392943999997,,,,,551,18,Woman,Left,
,,,,,,,,,,,,,,,,,551,18,Woman,Left,5,66,0.15,1,180,-,180,0.7101889999994455,['n'],0.10958930000015243,2.0,2345.1726917,,,,,551,18,Woman,Left,
,,,,,,,,,,,,,,,,,551,18,Woman,Left,5,8,0.4,1,0,-,0,0.3508984000000055,['n'],0.19898730000022624,2.0,2347.6227434999996,,,,,551,18,Woman,Left,
,,,,,,,,,,,,,,,,,551,18,Woman,Left,5,24,0.4,1,0,-,0,0.26027930000054766,['n'],0.11898710000059509,2.0,2350.2892698,,,,,551,18,Woman,Left,
,,,,,,,,,,,,,,,,,551,18,Woman,Left,5,37,0.4,2,0,180,180,0.53898240000035,['y'],0.2788194000004296,2.0,2353.3563738999997,,,,,551,18,Woman,Left,
,,,,,,,,,,,,,,,,,551,18,Woman,Left,5,1,1,2,0,180,180,1.1492334999993545,['y'],0.12644340000042575,2.0,2357.6563486,,,,,551,18,Woman,Left,
,,,,,,,,,,,,,,,,,551,18,Woman,Left,5,55,0.15,2,180,0,0,1.0711436000001413,['y'],0.13469609999992826,2.0,2360.9064267,,,,,551,18,Woman,Left,
,,,,,,,,,,,,,,,,,551,18,Woman,Left,5,3,1,2,180,0,0,0.4563479999997071,['y'],0.2866689000002225,2.0,2363.9562657,,,,,551,18,Woman,Left,
,,,,,,,,,,,,,,,,,551,18,Woman,Left,5,47,0.15,2,180,0,0,0.5242712999997821,['y'],0.27932760000021517,2.0,2366.7226471,,,,,551,18,Woman,Left,
,,,,,,,,,,,,,,,,,551,18,Woman,Left,5,33,0.4,2,0,180,180,0.5776316000001316,['y'],0.28714770000078715,2.0,2369.6394162,,,,,551,18,Woman,Left,
,,,,,,,,,,,,,,,,,551,18,Woman,Left,5,18,0.4,1,180,-,180,0.6695801999994728,['n'],0.1427204999999958,2.0,2372.5061415000005,,,,,551,18,Woman,Left,
,,,,,,,,,,,,,,,,,551,18,Woman,Left,5,43,0.4,2,180,0,0,0.8668064000003142,['y'],0.30177439999988565,2.0,2375.5733359,,,,,551,18,Woman,Left,
,,,,,,,,,,,,,,,,,551,18,Woman,Left,5,44,0.15,1,0,-,0,0.2742046000003029,['n'],0.33492050000040763,2.0,2378.1893809999997,,,,,551,18,Woman,Left,
,,,,,,,,,,,,,,,,,551,18,Woman,Left,5,53,0.15,2,0,180,0,0.5315457999995488,['n'],0.17508550000002288,2.0,2380.8561751,,,,,551,18,Woman,Left,
,,,,,,,,,,,,,,,,,551,18,Woman,Left,5,62,0.15,1,180,-,180,1.237403699999959,['n'],0.8068965000002208,2.0,2384.9062138000004,,,,,551,18,Woman,Left,
,,,,,,,,,,,,,,,,,551,18,Woman,Left,5,63,0.15,2,180,0,0,0.6304781999997431,['n'],0.2385314000002836,2.0,2388.9561449999997,,,,,551,18,Woman,Left,
,,,,,,,,,,,,,,,,,551,18,Woman,Left,5,22,0.4,1,180,-,0,1.532612999999401,['n'],0.12632440000015777,2.0,2392.6893715,,,,,551,18,Woman,Left,
,,,,,,,,,,,,,,,,,551,18,Woman,Left,5,79,0.15,2,180,0,0,0.528801200000089,['n'],0.21477330000016082,2.0,2395.6399333000004,,,,,551,18,Woman,Left,
,,,,,,,,,,,,,,,,,551,18,Woman,Left,5,6,1,1,180,-,180,0.38146099999994476,['n'],1.566973599999983,2.0,2399.6727525,,,,,551,18,Woman,Left,
,,,,,,,,,,,,,,,,,551,18,Woman,Left,5,9,0.4,2,0,180,180,0.672732800000631,['y'],0.2151971000002959,2.0,2402.4897263,,,,,551,18,Woman,Left,
,,,,,,,,,,,,,,,,,551,18,Woman,Left,5,14,0.4,1,180,-,180,0.4684748000008767,['n'],0.2867813999991995,2.0,2405.2395258,,,,,551,18,Woman,Left,
,,,,,,,,,,,,,,,,,551,18,Woman,Left,5,12,0.4,1,0,-,0,0.5783606999993935,['n'],0.19116719999965426,2.0,2408.1396657,,,,,551,18,Woman,Left,
,,,,,,,,,,,,,,,,,551,18,Woman,Left,5,13,0.4,2,0,180,180,1.276058099999318,['y'],0.2791925999999876,2.0,2411.6563542999997,,,,,551,18,Woman,Left,
,,,,,,,,,,,,,,,,,551,18,Woman,Left,5,29,0.4,2,0,180,180,0.7114948000007644,['y'],0.214848599999641,2.0,2414.5395966,,,,,551,18,Woman,Left,
,,,,,,,,,,,,,,,,,,,,,,,,,,,,,,,,,85.0,100.0,75.0,2125.1785039,,,,,
