p_block,p_section,p_coherence,p_direction1,p_direction2,p_direction_response,p_direction_RT,p_change_response,p_change_RT,p_confidence,p_full_correct,p_without5_correct,p_full_total,p_without5_total,p_full_avg,p_witout5_avg,p_total_time,sub,age,sex,handedness,loop,trial randomization,coherence,condition,direction1,direction2,direction_response,direction_RT,change_response,change_RT,change_confidence,change_confidence_RT,block_direction_avg,block_stable_avg,block_change_avg,total_time,sub,age,sex,handedness,
1,1,1.0,180,-,180,4.49616489999994,-,-,-,,,,,,,,537,19,Woman,Right,,,,,,,,,,,,,,,,,537,19,Woman,Right,
1,1,1.0,0,-,0,0.8154643000000306,-,-,-,,,,,,,,537,19,Woman,Right,,,,,,,,,,,,,,,,,537,19,Woman,Right,
1,1,1.0,180,-,180,0.12112200000001394,-,-,-,,,,,,,,537,19,Woman,Right,,,,,,,,,,,,,,,,,537,19,Woman,Right,
1,1,1.0,0,-,0,3.2787914000000455,-,-,-,,,,,,,,537,19,Woman,Right,,,,,,,,,,,,,,,,,537,19,Woman,Right,
1,1,1.0,180,-,180,0.5512911000000713,-,-,-,,,,,,,,537,19,Woman,Right,,,,,,,,,,,,,,,,,537,19,Woman,Right,
1,1,1.0,0,-,0,0.09934839999982614,-,-,-,,,,,,,,537,19,Woman,Right,,,,,,,,,,,,,,,,,537,19,Woman,Right,
1,1,1.0,0,-,0,0.21705599999995684,-,-,-,,,,,,,,537,19,Woman,Right,,,,,,,,,,,,,,,,,537,19,Woman,Right,
1,1,1.0,180,-,180,0.6742271999999048,-,-,-,,,,,,,,537,19,Woman,Right,,,,,,,,,,,,,,,,,537,19,Woman,Right,
1,1,1.0,180,-,180,0.409704099999999,-,-,-,,,,,,,,537,19,Woman,Right,,,,,,,,,,,,,,,,,537,19,Woman,Right,
1,1,1.0,0,-,0,0.3652227000000039,-,-,-,10,10,10,10,1.0,1.0,,537,19,Woman,Right,,,,,,,,,,,,,,,,,537,19,Woman,Right,
2,1,0.4,0,-,0,1.3659261000000242,-,-,-,,,,,,,,537,19,Woman,Right,,,,,,,,,,,,,,,,,537,19,Woman,Right,
2,1,0.4,0,-,0,0.5777260999998362,-,-,-,,,,,,,,537,19,Woman,Right,,,,,,,,,,,,,,,,,537,19,Woman,Right,
2,1,0.4,180,-,180,0.3657227999999577,-,-,-,,,,,,,,537,19,Woman,Right,,,,,,,,,,,,,,,,,537,19,Woman,Right,
2,1,0.4,0,-,180,1.2172537999999804,-,-,-,,,,,,,,537,19,Woman,Right,,,,,,,,,,,,,,,,,537,19,Woman,Right,
2,1,0.15,180,-,180,0.4906537000001663,-,-,-,,,,,,,,537,19,Woman,Right,,,,,,,,,,,,,,,,,537,19,Woman,Right,
2,1,0.4,0,-,0,0.49722680000013497,-,-,-,,,,,,,,537,19,Woman,Right,,,,,,,,,,,,,,,,,537,19,Woman,Right,
2,1,0.4,180,-,180,0.35979199999997036,-,-,-,,,,,,,,537,19,Woman,Right,,,,,,,,,,,,,,,,,537,19,Woman,Right,
2,1,0.4,0,-,0,1.0119606999999178,-,-,-,,,,,,,,537,19,Woman,Right,,,,,,,,,,,,,,,,,537,19,Woman,Right,
2,1,0.15,0,-,180,0.6301779000000352,-,-,-,,,,,,,,537,19,Woman,Right,,,,,,,,,,,,,,,,,537,19,Woman,Right,
2,1,0.4,180,-,180,0.40031439999984286,-,-,-,8,7,10,8,0.8,0.875,,537,19,Woman,Right,,,,,,,,,,,,,,,,,537,19,Woman,Right,
3,2,1.0,0,180,180,2.6663088000000243,['y'],2.446023700000069,1.994,,,,,,,,537,19,Woman,Right,,,,,,,,,,,,,,,,,537,19,Woman,Right,
3,2,1.0,180,0,0,2.524698199999875,['y'],1.4164690000000064,2.0,,,,,,,,537,19,Woman,Right,,,,,,,,,,,,,,,,,537,19,Woman,Right,
3,2,1.0,0,180,180,1.470069599999988,['y'],1.702063199999884,1.998,,,,,,,,537,19,Woman,Right,,,,,,,,,,,,,,,,,537,19,Woman,Right,
3,2,1.0,0,180,180,0.8974479999999403,['y'],1.559575900000027,1.996,,,,,,,,537,19,Woman,Right,,,,,,,,,,,,,,,,,537,19,Woman,Right,
3,2,1.0,180,0,0,0.7851536999999098,['y'],0.4749233000000004,1.996,,,,,,,,537,19,Woman,Right,,,,,,,,,,,,,,,,,537,19,Woman,Right,
3,2,1.0,180,0,0,0.8890171999998984,['y'],0.3275710000000345,1.996,,,,,,,,537,19,Woman,Right,,,,,,,,,,,,,,,,,537,19,Woman,Right,
3,2,1.0,0,180,180,0.8491292999999587,['y'],0.9061108999999306,1.996,,,,,,,,537,19,Woman,Right,,,,,,,,,,,,,,,,,537,19,Woman,Right,
3,2,1.0,180,0,0,0.5658750000000055,['y'],0.4163745000000745,1.996,,,,,,,,537,19,Woman,Right,,,,,,,,,,,,,,,,,537,19,Woman,Right,
3,2,1.0,180,0,0,0.38396609999995235,['y'],0.4993116000000555,1.996,,,,,,,,537,19,Woman,Right,,,,,,,,,,,,,,,,,537,19,Woman,Right,
3,2,1.0,180,0,0,0.40599340000017037,['y'],0.3203602000000956,1.996,10,10,10,10,1.0,1.0,,537,19,Woman,Right,,,,,,,,,,,,,,,,,537,19,Woman,Right,
4,2,0.4,180,0,0,1.1248169000000416,['y'],0.9776162999999087,1.996,,,,,,,,537,19,Woman,Right,,,,,,,,,,,,,,,,,537,19,Woman,Right,
4,2,0.4,0,180,180,0.8633634000000256,['y'],0.33510240000009617,1.996,,,,,,,,537,19,Woman,Right,,,,,,,,,,,,,,,,,537,19,Woman,Right,
4,2,0.4,180,0,0,0.8395136999999977,['y'],0.3832663999999113,1.996,,,,,,,,537,19,Woman,Right,,,,,,,,,,,,,,,,,537,19,Woman,Right,
4,2,0.15,0,180,0,2.433982300000025,['y'],3.202811699999984,1.624,,,,,,,,537,19,Woman,Right,,,,,,,,,,,,,,,,,537,19,Woman,Right,
4,2,0.4,180,0,0,0.924181100000169,['y'],1.0569434999999885,1.94,,,,,,,,537,19,Woman,Right,,,,,,,,,,,,,,,,,537,19,Woman,Right,
4,2,0.15,0,180,180,2.178519900000083,['y'],7.637274800000114,1.278,,,,,,,,537,19,Woman,Right,,,,,,,,,,,,,,,,,537,19,Woman,Right,
4,2,0.15,0,180,180,1.4088171999999304,['y'],1.459505799999988,1.44,,,,,,,,537,19,Woman,Right,,,,,,,,,,,,,,,,,537,19,Woman,Right,
4,2,0.15,180,0,0,1.834296699999868,['y'],0.9150852000000214,1.6099999999999999,,,,,,,,537,19,Woman,Right,,,,,,,,,,,,,,,,,537,19,Woman,Right,
4,2,0.4,0,180,180,0.9751639999999497,['y'],0.5623839999998381,1.596,,,,,,,,537,19,Woman,Right,,,,,,,,,,,,,,,,,537,19,Woman,Right,
4,2,0.4,0,180,180,0.4912993999998889,['y'],0.7867970999998306,1.822,9,6,10,6,0.9,1.0,,537,19,Woman,Right,,,,,,,,,,,,,,,,,537,19,Woman,Right,
5,3,0.15,0,180,180,0.7327692999999726,['y'],1.5015562999999474,1.718,,,,,,,,537,19,Woman,Right,,,,,,,,,,,,,,,,,537,19,Woman,Right,
5,3,1.0,0,180,180,0.958347399999866,['y'],0.4506350999999995,1.986,,,,,,,,537,19,Woman,Right,,,,,,,,,,,,,,,,,537,19,Woman,Right,
5,3,1.0,180,0,0,0.7775656999999683,['y'],0.34955170000012004,1.988,,,,,,,,537,19,Woman,Right,,,,,,,,,,,,,,,,,537,19,Woman,Right,
5,3,0.15,0,-,180,0.8596803000000364,['y'],2.579824300000155,1.092,,,,,,,,537,19,Woman,Right,,,,,,,,,,,,,,,,,537,19,Woman,Right,
5,3,0.4,0,180,180,0.5336651000000074,['y'],0.08211800000003677,1.876,,,,,,,,537,19,Woman,Right,,,,,,,,,,,,,,,,,537,19,Woman,Right,
5,3,1.0,0,180,180,0.6740786000000298,['y'],0.7049996999999166,1.944,,,,,,,,537,19,Woman,Right,,,,,,,,,,,,,,,,,537,19,Woman,Right,
5,3,1.0,0,180,180,0.2901494999998704,['y'],0.3284621000000243,1.896,,,,,,,,537,19,Woman,Right,,,,,,,,,,,,,,,,,537,19,Woman,Right,
5,3,0.15,0,180,180,3.9990979000001516,['n'],1.1179177999999865,1.186,,,,,,,,537,19,Woman,Right,,,,,,,,,,,,,,,,,537,19,Woman,Right,
5,3,1.0,180,0,0,0.4043047000000115,['y'],0.3252016999999796,1.98,,,,,,,,537,19,Woman,Right,,,,,,,,,,,,,,,,,537,19,Woman,Right,
5,3,0.4,180,0,0,0.34036980000018957,['y'],0.36915190000013354,1.984,9,7,10,7,0.9,1.0,,537,19,Woman,Right,,,,,,,,,,,,,,,,,537,19,Woman,Right,
,,,,,,,,,,,,,,,,5.4000001910026185e-06,537,19,Woman,Right,,,,,,,,,,,,,,,,,537,19,Woman,Right,
,,,,,,,,,,,,,,,,,537,19,Woman,Right,0,41,0.4,2,0,180,180,0.8142109999998866,['y'],1.7661951000000045,1.824,307.56598009999993,,,,,537,19,Woman,Right,
,,,,,,,,,,,,,,,,,537,19,Woman,Right,0,61,0.15,2,0,180,0,2.673226300000124,['y'],4.7987642999999025,1.242,319.0995396999999,,,,,537,19,Woman,Right,
,,,,,,,,,,,,,,,,,537,19,Woman,Right,0,25,0.4,2,0,180,180,0.8745765999999549,['y'],1.4305528999998387,1.776,324.68206629999986,,,,,537,19,Woman,Right,
,,,,,,,,,,,,,,,,,537,19,Woman,Right,0,9,0.4,2,0,180,180,0.5997419999998783,['y'],0.9752083000000766,1.964,329.6651678999999,,,,,537,19,Woman,Right,
,,,,,,,,,,,,,,,,,537,19,Woman,Right,0,34,0.4,1,180,-,0,1.7719284999998308,['y'],1.5985198999999284,1.4020000000000001,336.3150785999999,,,,,537,19,Woman,Right,
,,,,,,,,,,,,,,,,,537,19,Woman,Right,0,38,0.4,1,180,-,0,1.7850766999999905,['n'],4.550121199999921,1.258,346.36481230000004,,,,,537,19,Woman,Right,
,,,,,,,,,,,,,,,,,537,19,Woman,Right,0,20,0.4,1,0,-,180,1.0762439000000086,['y'],1.6063387000001512,1.75,353.44839439999987,,,,,537,19,Woman,Right,
,,,,,,,,,,,,,,,,,537,19,Woman,Right,0,53,0.15,2,0,180,0,4.00750579999999,['y'],2.549812799999927,1.138,365.9980232999999,,,,,537,19,Woman,Right,
,,,,,,,,,,,,,,,,,537,19,Woman,Right,0,77,0.15,2,0,180,0,1.6751616999999897,['y'],2.334816099999898,1.276,373.4314173,,,,,537,19,Woman,Right,
,,,,,,,,,,,,,,,,,537,19,Woman,Right,0,63,0.15,2,180,0,0,0.7331541999999445,['y'],1.3026784999999563,1.6099999999999999,378.8980789,,,,,537,19,Woman,Right,
,,,,,,,,,,,,,,,,,537,19,Woman,Right,0,39,0.4,2,180,0,0,0.4131316999998944,['y'],0.9506375999999364,1.924,383.5328526999999,,,,,537,19,Woman,Right,
,,,,,,,,,,,,,,,,,537,19,Woman,Right,0,47,0.15,2,180,0,0,0.4823957999999493,['y'],0.7505123000000822,1.862,387.73220850000007,,,,,537,19,Woman,Right,
,,,,,,,,,,,,,,,,,537,19,Woman,Right,0,51,0.15,2,180,0,0,0.6714431999998851,['y'],0.8551386000001457,1.8559999999999999,392.0314002,,,,,537,19,Woman,Right,
,,,,,,,,,,,,,,,,,537,19,Woman,Right,0,59,0.15,2,180,0,0,0.4394202999999379,['y'],0.7591675000001032,1.756,396.3992111,,,,,537,19,Woman,Right,
,,,,,,,,,,,,,,,,,537,19,Woman,Right,0,23,0.4,2,180,0,0,0.3435223000001315,['y'],0.6472739000000729,1.904,400.18132420000006,,,,,537,19,Woman,Right,
,,,,,,,,,,,,,,,,,537,19,Woman,Right,0,30,0.4,1,180,-,0,1.241292200000089,['y'],0.6144272999999885,1.838,406.06463110000004,,,,,537,19,Woman,Right,
,,,,,,,,,,,,,,,,,537,19,Woman,Right,0,0,1,1,0,-,0,2.167101999999886,['n'],1.0786933999997927,1.954,416.29795239999976,,,,,537,19,Woman,Right,
,,,,,,,,,,,,,,,,,537,19,Woman,Right,0,68,0.15,1,0,-,0,0.7946157000001222,['n'],1.7988233000000946,1.654,422.79847759999984,,,,,537,19,Woman,Right,
,,,,,,,,,,,,,,,,,537,19,Woman,Right,0,16,0.4,1,0,-,0,1.1773361000000477,['n'],1.1987273999998251,1.838,428.6811923999999,,,,,537,19,Woman,Right,
,,,,,,,,,,,,,,,,,537,19,Woman,Right,0,11,0.4,2,180,0,0,0.5977474000001166,['y'],1.5110586000000694,1.912,434.29770800000006,,,,,537,19,Woman,Right,
,,,,,,,,,,,,,,,,,537,19,Woman,Right,0,2,1,1,180,-,180,0.9527808000002551,['n'],2.3670490999998037,1.8980000000000001,441.5479384999999,,,,,537,19,Woman,Right,
,,,,,,,,,,,,,,,,,537,19,Woman,Right,0,70,0.15,1,180,-,0,0.8567025000002104,['y'],1.0150254000000132,1.722,446.6820904000001,,,,,537,19,Woman,Right,
,,,,,,,,,,,,,,,,,537,19,Woman,Right,0,14,0.4,1,180,-,180,0.7534950999997818,['n'],1.6463917999999467,1.734,452.3478286999998,,,,,537,19,Woman,Right,
,,,,,,,,,,,,,,,,,537,19,Woman,Right,0,24,0.4,1,0,-,0,1.431248500000038,['n'],1.0149318999997377,1.836,457.6161062000001,,,,,537,19,Woman,Right,
,,,,,,,,,,,,,,,,,537,19,Woman,Right,0,48,0.15,1,0,-,0,0.8974184999997306,['y'],0.6791376999999557,1.716,462.7481837,,,,,537,19,Woman,Right,
,,,,,,,,,,,,,,,,,537,19,Woman,Right,0,64,0.15,1,0,-,0,0.9823197999999138,['y'],0.7625599000002694,1.654,467.1642376,,,,,537,19,Woman,Right,
,,,,,,,,,,,,,,,,,537,19,Woman,Right,0,42,0.4,1,180,-,180,1.483826399999998,['n'],0.9649146000001565,1.778,472.7314913,,,,,537,19,Woman,Right,
,,,,,,,,,,,,,,,,,537,19,Woman,Right,0,74,0.15,1,180,-,180,2.002582000000075,['n'],1.4073174999998628,1.324,480.86407959999997,,,,,537,19,Woman,Right,
,,,,,,,,,,,,,,,,,537,19,Woman,Right,0,31,0.4,2,180,0,0,0.5036440000003495,['y'],0.7988135999999031,1.9060000000000001,484.94828659999985,,,,,537,19,Woman,Right,
,,,,,,,,,,,,,,,,,537,19,Woman,Right,0,19,0.4,2,180,0,0,0.8998523000000205,['y'],0.6147404999996979,1.932,489.1147074999999,,,,,537,19,Woman,Right,
,,,,,,,,,,,,,,,,,537,19,Woman,Right,0,35,0.4,2,180,0,0,0.8666035999999622,['y'],0.6468635000001086,1.944,493.6647747000002,,,,,537,19,Woman,Right,
,,,,,,,,,,,,,,,,,537,19,Woman,Right,0,73,0.15,2,0,180,180,0.9917900000000373,['y'],1.5910189999999602,1.142,499.68129799999997,,,,,537,19,Woman,Right,
,,,,,,,,,,,,,,,,,537,19,Woman,Right,0,58,0.15,1,180,-,180,2.6131591000003027,['y'],1.5026834000000235,1.096,506.98176280000007,,,,,537,19,Woman,Right,
,,,,,,,,,,,,,,,,,537,19,Woman,Right,0,76,0.15,1,0,-,0,1.064840600000025,['y'],0.8864963999999418,1.6320000000000001,512.2146195999999,,,,,537,19,Woman,Right,
,,,,,,,,,,,,,,,,,537,19,Woman,Right,0,71,0.15,2,180,0,0,2.8661443000000872,['y'],1.918464600000334,1.164,520.3321497000002,,,,,537,19,Woman,Right,
,,,,,,,,,,,,,,,,,537,19,Woman,Right,0,67,0.15,2,180,0,180,0.895215300000018,['y'],1.5349576000003253,1.346,525.7817937999998,,,,,537,19,Woman,Right,
,,,,,,,,,,,,,,,,,537,19,Woman,Right,0,15,0.4,2,180,0,0,0.7554883999996491,['y'],0.8392510000003313,1.94,530.2972559999998,,,,,537,19,Woman,Right,
,,,,,,,,,,,,,,,,,537,19,Woman,Right,0,3,1,2,180,0,0,0.77536820000023,['y'],0.4389649999998255,1.914,534.1636720000001,,,,,537,19,Woman,Right,
,,,,,,,,,,,,,,,,,537,19,Woman,Right,0,4,1,1,0,-,0,0.9640219000002617,['n'],0.8708120999999664,1.802,538.7642713,,,,,537,19,Woman,Right,
,,,,,,,,,,,,,,,,,537,19,Woman,Right,0,60,0.15,1,0,-,0,1.97837729999992,['y'],0.8071836999997686,1.306,544.4140034000002,,,,,537,19,Woman,Right,
,,,,,,,,,,,,,,,,,537,19,Woman,Right,0,18,0.4,1,180,-,180,0.7877754999999524,['n'],1.3990914000000885,1.9,549.5140961000002,,,,,537,19,Woman,Right,
,,,,,,,,,,,,,,,,,537,19,Woman,Right,0,44,0.15,1,0,-,180,2.1615122999996856,['y'],1.1989183999999113,1.4060000000000001,556.0968969999999,,,,,537,19,Woman,Right,
,,,,,,,,,,,,,,,,,537,19,Woman,Right,0,32,0.4,1,0,-,180,0.8255619000001388,['y'],0.7670518999998421,1.702,560.7634619999999,,,,,537,19,Woman,Right,
,,,,,,,,,,,,,,,,,537,19,Woman,Right,0,43,0.4,2,180,0,0,0.4482321000000411,['y'],0.7507935999997244,1.85,565.5974624999999,,,,,537,19,Woman,Right,
,,,,,,,,,,,,,,,,,537,19,Woman,Right,0,69,0.15,2,0,180,0,2.0354926999998497,['y'],0.9031034999998155,1.24,571.5809853999999,,,,,537,19,Woman,Right,
,,,,,,,,,,,,,,,,,537,19,Woman,Right,0,54,0.15,1,180,-,180,1.2460062999998627,['n'],1.6149337999995623,1.302,577.4642769000002,,,,,537,19,Woman,Right,
,,,,,,,,,,,,,,,,,537,19,Woman,Right,0,10,0.4,1,180,-,180,0.699565999999777,['n'],0.7583429000001161,1.804,582.28125,,,,,537,19,Woman,Right,
,,,,,,,,,,,,,,,,,537,19,Woman,Right,0,13,0.4,2,0,180,180,0.6975035000000389,['y'],0.8872224000001552,1.78,586.3978182999999,,,,,537,19,Woman,Right,
,,,,,,,,,,,,,,,,,537,19,Woman,Right,0,21,0.4,2,0,180,180,0.5925923999998304,['y'],0.7433423000002222,1.8719999999999999,590.7300983999999,,,,,537,19,Woman,Right,
,,,,,,,,,,,,,,,,,537,19,Woman,Right,0,57,0.15,2,0,180,180,1.01292710000007,['y'],0.9111259999999675,1.712,596.0635609999999,,,,,537,19,Woman,Right,
,,,,,,,,,,,,,,,,,537,19,Woman,Right,0,37,0.4,2,0,180,180,0.5771758000000773,['y'],0.743049599999722,1.892,599.8968810000001,,,,,537,19,Woman,Right,
,,,,,,,,,,,,,,,,,537,19,Woman,Right,0,72,0.15,1,0,-,180,1.311150600000019,['n'],1.0150532000002386,1.2,605.6478785999998,,,,,537,19,Woman,Right,
,,,,,,,,,,,,,,,,,537,19,Woman,Right,0,5,1,2,0,180,180,0.5437802999999803,['y'],0.7748987999998462,1.88,609.5300754,,,,,537,19,Woman,Right,
,,,,,,,,,,,,,,,,,537,19,Woman,Right,0,17,0.4,2,0,180,180,1.1730471999999281,['y'],0.990321700000095,1.8719999999999999,614.2146017,,,,,537,19,Woman,Right,
,,,,,,,,,,,,,,,,,537,19,Woman,Right,0,22,0.4,1,180,-,180,0.6513365999999223,['n'],1.254250299999967,1.8860000000000001,618.9297857000001,,,,,537,19,Woman,Right,
,,,,,,,,,,,,,,,,,537,19,Woman,Right,0,78,0.15,1,180,-,0,0.9335226999996848,['y'],0.8486113999997542,1.392,623.7463223,,,,,537,19,Woman,Right,
,,,,,,,,,,,,,,,,,537,19,Woman,Right,0,56,0.15,1,0,-,180,0.7899312000004102,['y'],2.1431900000002315,1.2,630.5146027000001,,,,,537,19,Woman,Right,
,,,,,,,,,,,,,,,,,537,19,Woman,Right,0,33,0.4,2,0,180,180,0.5891000000001441,['y'],1.4873208999997587,1.884,635.3462534999999,,,,,537,19,Woman,Right,
,,,,,,,,,,,,,,,,,537,19,Woman,Right,0,50,0.15,1,180,-,180,0.8392801999998483,['n'],0.8710261000001083,1.722,640.1462161,,,,,537,19,Woman,Right,
,,,,,,,,,,,,,,,,,537,19,Woman,Right,0,66,0.15,1,180,-,0,0.8521359999999731,['y'],1.0069777999997314,1.428,645.2967902999999,,,,,537,19,Woman,Right,
,,,,,,,,,,,,,,,,,537,19,Woman,Right,0,6,1,1,180,-,180,0.6379747000000862,['n'],3.5349184000001515,1.926,652.2130262999999,,,,,537,19,Woman,Right,
,,,,,,,,,,,,,,,,,537,19,Woman,Right,0,65,0.15,2,0,180,180,0.8976304000002528,['y'],0.9592884999997295,1.604,657.2794650000001,,,,,537,19,Woman,Right,
,,,,,,,,,,,,,,,,,537,19,Woman,Right,0,52,0.15,1,0,-,180,0.9036864999998215,['y'],3.5430225999998584,1.624,664.4804883000002,,,,,537,19,Woman,Right,
,,,,,,,,,,,,,,,,,537,19,Woman,Right,0,49,0.15,2,0,180,180,1.9659068999999363,['y'],3.879541899999822,1.5979999999999999,673.0800036,,,,,537,19,Woman,Right,
,,,,,,,,,,,,,,,,,537,19,Woman,Right,0,45,0.15,2,0,180,180,1.1220077000002675,['n'],2.287442800000008,1.678,680.646608,,,,,537,19,Woman,Right,
,,,,,,,,,,,,,,,,,537,19,Woman,Right,0,29,0.4,2,0,180,180,0.37229900000011185,['y'],1.1191381999997247,1.816,685.6305637,,,,,537,19,Woman,Right,
,,,,,,,,,,,,,,,,,537,19,Woman,Right,0,27,0.4,2,180,0,0,0.384009800000058,['y'],1.1995233000002372,1.816,689.7801279,,,,,537,19,Woman,Right,
,,,,,,,,,,,,,,,,,537,19,Woman,Right,0,7,1,2,180,0,0,1.571585899999718,['y'],0.8072576999998091,1.816,695.8132323999998,,,,,537,19,Woman,Right,
,,,,,,,,,,,,,,,,,537,19,Woman,Right,0,62,0.15,1,180,-,0,0.42845690000012837,['y'],1.055645999999797,1.816,699.9292872999999,,,,,537,19,Woman,Right,
,,,,,,,,,,,,,,,,,537,19,Woman,Right,0,12,0.4,1,0,-,0,1.606041500000174,['y'],1.6077334000001429,1.104,706.3962275999997,,,,,537,19,Woman,Right,
,,,,,,,,,,,,,,,,,537,19,Woman,Right,0,75,0.15,2,180,0,180,1.4401935999999296,['y'],1.7753342999999404,1.314,713.0298815000001,,,,,537,19,Woman,Right,
,,,,,,,,,,,,,,,,,537,19,Woman,Right,0,40,0.4,1,0,-,0,2.745738600000095,['n'],2.071001299999807,1.1099999999999999,721.5793585000001,,,,,537,19,Woman,Right,
,,,,,,,,,,,,,,,,,537,19,Woman,Right,0,8,0.4,1,0,-,180,0.6470039999999244,['y'],1.5993484999999055,1.3719999999999999,727.8969289000001,,,,,537,19,Woman,Right,
,,,,,,,,,,,,,,,,,537,19,Woman,Right,0,28,0.4,1,0,-,0,0.8406027999999424,['n'],1.4069039999999404,1.6320000000000001,733.3956085999998,,,,,537,19,Woman,Right,
,,,,,,,,,,,,,,,,,537,19,Woman,Right,0,55,0.15,2,180,0,180,0.6991689000001315,['y'],1.5115200000000186,1.5939999999999999,738.8802648000001,,,,,537,19,Woman,Right,
,,,,,,,,,,,,,,,,,537,19,Woman,Right,0,26,0.4,1,180,-,180,0.766345900000033,['n'],0.9714597000001959,1.794,744.1962171,,,,,537,19,Woman,Right,
,,,,,,,,,,,,,,,,,537,19,Woman,Right,0,1,1,2,0,180,180,0.6909292000000278,['y'],1.5035457999997561,1.798,749.0135378,,,,,537,19,Woman,Right,
,,,,,,,,,,,,,,,,,537,19,Woman,Right,0,46,0.15,1,180,-,180,0.8570271999997203,['n'],0.9515399000001707,1.82,753.8629747999998,,,,,537,19,Woman,Right,
,,,,,,,,,,,,,,,,,537,19,Woman,Right,0,36,0.4,1,0,-,180,0.5703917999999248,['y'],1.2955790999999408,1.6640000000000001,759.5299427,,,,,537,19,Woman,Right,
,,,,,,,,,,,,,,,,,537,19,Woman,Right,0,79,0.15,2,180,0,180,0.4070120000001225,['y'],1.1515807999999197,1.6219999999999999,764.2128383999998,,,,,537,19,Woman,Right,
,,,,,,,,,,,,,,,,,537,19,Woman,Right,1,10,0.4,1,180,-,180,2.444650299999921,['y'],2.7276395999997476,1.3719999999999999,796.8461499,71.25,52.5,97.5,,537,19,Woman,Right,
,,,,,,,,,,,,,,,,,537,19,Woman,Right,1,64,0.15,1,0,-,0,3.500975500000095,['y'],2.343354999999974,1.1019999999999999,807.1458073999997,,,,,537,19,Woman,Right,
,,,,,,,,,,,,,,,,,537,19,Woman,Right,1,6,1,1,180,-,180,0.8856740000001082,['n'],1.6393944000001284,1.936,813.4120435999998,,,,,537,19,Woman,Right,
,,,,,,,,,,,,,,,,,537,19,Woman,Right,1,35,0.4,2,180,0,0,0.6670122000000447,['y'],1.1354562000001351,1.876,818.0119467,,,,,537,19,Woman,Right,
,,,,,,,,,,,,,,,,,537,19,Woman,Right,1,77,0.15,2,0,180,180,0.7146586000003481,['y'],1.8156911000000946,1.298,824.3128348999999,,,,,537,19,Woman,Right,
,,,,,,,,,,,,,,,,,537,19,Woman,Right,1,60,0.15,1,0,-,0,1.2789692000001196,['n'],3.0636129999998047,1.418,833.0457818,,,,,537,19,Woman,Right,
,,,,,,,,,,,,,,,,,537,19,Woman,Right,1,20,0.4,1,0,-,0,0.7462551000003259,['n'],1.1436375999996926,1.834,837.9132432000001,,,,,537,19,Woman,Right,
,,,,,,,,,,,,,,,,,537,19,Woman,Right,1,3,1,2,180,0,0,0.5789921000000504,['y'],0.7674666000002617,1.838,841.8796815000001,,,,,537,19,Woman,Right,
,,,,,,,,,,,,,,,,,537,19,Woman,Right,1,67,0.15,2,180,0,0,0.7369965000002594,['y'],0.83166779999965,1.756,846.4791601000002,,,,,537,19,Woman,Right,
,,,,,,,,,,,,,,,,,537,19,Woman,Right,1,53,0.15,2,0,180,180,0.5618569000002935,['y'],0.695558500000061,1.8439999999999999,850.9964335999998,,,,,537,19,Woman,Right,
,,,,,,,,,,,,,,,,,537,19,Woman,Right,1,11,0.4,2,180,0,0,0.3596591999998964,['y'],0.6637852000003477,1.812,854.2787990000002,,,,,537,19,Woman,Right,
,,,,,,,,,,,,,,,,,537,19,Woman,Right,1,27,0.4,2,180,0,0,1.3290965000001052,['y'],0.7119238999998743,1.812,859.0288575999998,,,,,537,19,Woman,Right,
,,,,,,,,,,,,,,,,,537,19,Woman,Right,1,46,0.15,1,180,-,0,0.6324036000000888,['y'],3.5697449999997843,1.184,866.9112652999997,,,,,537,19,Woman,Right,
,,,,,,,,,,,,,,,,,537,19,Woman,Right,1,37,0.4,2,0,180,180,0.8259107999997468,['y'],1.255560399999922,1.942,872.228611,,,,,537,19,Woman,Right,
,,,,,,,,,,,,,,,,,537,19,Woman,Right,1,31,0.4,2,180,0,0,0.5244329000001926,['y'],0.6635664000000361,1.8519999999999999,876.0960203,,,,,537,19,Woman,Right,
,,,,,,,,,,,,,,,,,537,19,Woman,Right,1,68,0.15,1,0,-,0,0.7381100000002334,['n'],0.9194124999999076,1.8940000000000001,880.6288060000002,,,,,537,19,Woman,Right,
,,,,,,,,,,,,,,,,,537,19,Woman,Right,1,66,0.15,1,180,-,180,0.6926057999999102,['n'],1.263597000000118,1.8940000000000001,884.8958895999999,,,,,537,19,Woman,Right,
,,,,,,,,,,,,,,,,,537,19,Woman,Right,1,2,1,1,180,-,180,1.1898427999999512,['n'],0.551683299999695,1.8940000000000001,889.1453004,,,,,537,19,Woman,Right,
,,,,,,,,,,,,,,,,,537,19,Woman,Right,1,4,1,1,0,-,0,0.493840800000271,['n'],0.7436629999997422,1.93,892.9614071999999,,,,,537,19,Woman,Right,
,,,,,,,,,,,,,,,,,537,19,Woman,Right,1,47,0.15,2,180,0,0,0.7119407000000137,['y'],1.5517490000001999,1.93,897.4958256999998,,,,,537,19,Woman,Right,
,,,,,,,,,,,,,,,,,537,19,Woman,Right,1,0,1,1,0,-,0,0.6566588000000593,['n'],1.5678987000001143,1.932,902.2452938000001,,,,,537,19,Woman,Right,
,,,,,,,,,,,,,,,,,537,19,Woman,Right,1,7,1,2,180,0,0,0.44351819999974396,['y'],1.031763399999818,1.932,906.3790976,,,,,537,19,Woman,Right,
,,,,,,,,,,,,,,,,,537,19,Woman,Right,1,59,0.15,2,180,0,0,0.7893791999999848,['y'],1.1596525999998448,1.6360000000000001,911.6453253999998,,,,,537,19,Woman,Right,
,,,,,,,,,,,,,,,,,537,19,Woman,Right,1,32,0.4,1,0,-,0,0.5407250000002932,['n'],0.8156113999998524,1.8,915.7121299999999,,,,,537,19,Woman,Right,
,,,,,,,,,,,,,,,,,537,19,Woman,Right,1,62,0.15,1,180,-,180,1.258839099999932,['y'],1.104098299999805,1.726,920.8449982000002,,,,,537,19,Woman,Right,
,,,,,,,,,,,,,,,,,537,19,Woman,Right,1,36,0.4,1,0,-,0,1.1807722000003196,['n'],1.1999706999999944,1.5979999999999999,926.5283691999998,,,,,537,19,Woman,Right,
,,,,,,,,,,,,,,,,,537,19,Woman,Right,1,40,0.4,1,0,-,0,0.5431847999998354,['n'],0.7835771000000022,1.936,931.4941620999998,,,,,537,19,Woman,Right,
,,,,,,,,,,,,,,,,,537,19,Woman,Right,1,54,0.15,1,180,-,180,0.3304487999998855,['n'],0.7756333000002087,1.81,935.6111044999998,,,,,537,19,Woman,Right,
,,,,,,,,,,,,,,,,,537,19,Woman,Right,1,76,0.15,1,0,-,0,0.5969756999998026,['n'],0.7036201000000801,1.796,939.4444825,,,,,537,19,Woman,Right,
,,,,,,,,,,,,,,,,,537,19,Woman,Right,1,34,0.4,1,180,-,180,0.5478115000000798,['n'],0.8076450999997178,1.87,943.4460846000002,,,,,537,19,Woman,Right,
,,,,,,,,,,,,,,,,,537,19,Woman,Right,1,63,0.15,2,180,0,0,1.491533299999901,['y'],1.0957695000001877,1.712,948.9614289000001,,,,,537,19,Woman,Right,
,,,,,,,,,,,,,,,,,537,19,Woman,Right,1,71,0.15,2,180,0,0,0.8464995999997882,['y'],1.0077550999999403,1.742,953.3950491,,,,,537,19,Woman,Right,
,,,,,,,,,,,,,,,,,537,19,Woman,Right,1,17,0.4,2,0,180,180,0.5003148000000692,['y'],0.9600619000002553,1.8439999999999999,957.5116051999998,,,,,537,19,Woman,Right,
,,,,,,,,,,,,,,,,,537,19,Woman,Right,1,75,0.15,2,180,0,0,0.4003251999997701,['y'],0.8639645000002929,1.8439999999999999,961.1445143000001,,,,,537,19,Woman,Right,
,,,,,,,,,,,,,,,,,537,19,Woman,Right,1,48,0.15,1,0,-,0,1.0640245999998115,['y'],0.9035599000003458,1.842,965.4111893999998,,,,,537,19,Woman,Right,
,,,,,,,,,,,,,,,,,537,19,Woman,Right,1,24,0.4,1,0,-,0,1.2443637999999737,['n'],0.9277726999998777,1.608,970.7122943999998,,,,,537,19,Woman,Right,
,,,,,,,,,,,,,,,,,537,19,Woman,Right,1,41,0.4,2,0,180,180,0.6107437999999092,['y'],0.8394832999997561,1.892,975.0616436,,,,,537,19,Woman,Right,
,,,,,,,,,,,,,,,,,537,19,Woman,Right,1,8,0.4,1,0,-,180,0.41369810000014695,['y'],0.8791917000003195,1.742,978.6105828,,,,,537,19,Woman,Right,
,,,,,,,,,,,,,,,,,537,19,Woman,Right,1,38,0.4,1,180,-,180,0.6332011999998031,['n'],0.7011377999997421,1.842,982.7284083,,,,,537,19,Woman,Right,
,,,,,,,,,,,,,,,,,537,19,Woman,Right,1,42,0.4,1,180,-,180,1.8946572999998352,['n'],0.9511606999999458,1.5979999999999999,988.6117398000001,,,,,537,19,Woman,Right,
,,,,,,,,,,,,,,,,,537,19,Woman,Right,1,51,0.15,2,180,0,180,0.6393226000000141,['y'],1.0317215999998552,1.6139999999999999,992.9616080999999,,,,,537,19,Woman,Right,
,,,,,,,,,,,,,,,,,537,19,Woman,Right,1,19,0.4,2,180,0,0,0.4611754000002293,['y'],0.7600403000001279,1.79,997.0785589000002,,,,,537,19,Woman,Right,
,,,,,,,,,,,,,,,,,537,19,Woman,Right,1,1,1,2,0,180,180,0.4196734000001925,['y'],1.2313168000000587,1.874,1001.727429,,,,,537,19,Woman,Right,
,,,,,,,,,,,,,,,,,537,19,Woman,Right,1,21,0.4,2,0,180,180,0.31307760000026974,['y'],0.7591129000002184,1.884,1005.6283367000001,,,,,537,19,Woman,Right,
,,,,,,,,,,,,,,,,,537,19,Woman,Right,1,72,0.15,1,0,-,180,0.3789621000000807,['n'],1.2235270999999557,1.79,1010.677936,,,,,537,19,Woman,Right,
,,,,,,,,,,,,,,,,,537,19,Woman,Right,1,44,0.15,1,0,-,180,0.43242049999980736,['n'],0.7621111000003111,1.858,1014.4939512000001,,,,,537,19,Woman,Right,
,,,,,,,,,,,,,,,,,537,19,Woman,Right,1,25,0.4,2,0,180,180,0.28129330000001573,['y'],0.7678549000002022,1.8820000000000001,1018.0781631,,,,,537,19,Woman,Right,
,,,,,,,,,,,,,,,,,537,19,Woman,Right,1,23,0.4,2,180,0,0,0.33965429999989283,['y'],0.6957017000004271,1.8719999999999999,1021.5613078000001,,,,,537,19,Woman,Right,
,,,,,,,,,,,,,,,,,537,19,Woman,Right,1,28,0.4,1,0,-,0,0.6650254999999561,['n'],0.8636501000000862,1.818,1025.54421,,,,,537,19,Woman,Right,
,,,,,,,,,,,,,,,,,537,19,Woman,Right,1,30,0.4,1,180,-,180,0.4779256000001624,['n'],0.7193560000000616,1.944,1029.3442369,,,,,537,19,Woman,Right,
,,,,,,,,,,,,,,,,,537,19,Woman,Right,1,14,0.4,1,180,-,180,0.6799682000000757,['n'],0.6636694000003445,1.8599999999999999,1033.4111349999998,,,,,537,19,Woman,Right,
,,,,,,,,,,,,,,,,,537,19,Woman,Right,1,69,0.15,2,0,180,0,0.7171902999998565,['n'],0.9675959999999577,1.79,1037.5442577,,,,,537,19,Woman,Right,
,,,,,,,,,,,,,,,,,537,19,Woman,Right,1,22,0.4,1,180,-,180,0.12241969999968205,['n'],1.359411800000089,1.792,1041.6111695999998,,,,,537,19,Woman,Right,
,,,,,,,,,,,,,,,,,537,19,Woman,Right,1,9,0.4,2,0,180,180,0.4922096000000238,['y'],0.9278656999999839,1.8519999999999999,1045.4942566,,,,,537,19,Woman,Right,
,,,,,,,,,,,,,,,,,537,19,Woman,Right,1,56,0.15,1,0,-,180,1.9710526000003483,['n'],0.9677348000000165,1.84,1050.8781488,,,,,537,19,Woman,Right,
,,,,,,,,,,,,,,,,,537,19,Woman,Right,1,79,0.15,2,180,0,0,0.36371809999991456,['n'],0.9597337999998672,1.798,1054.7277706,,,,,537,19,Woman,Right,
,,,,,,,,,,,,,,,,,537,19,Woman,Right,1,33,0.4,2,0,180,180,0.593438999999762,['n'],0.9599551000001156,1.726,1059.3438609999998,,,,,537,19,Woman,Right,
,,,,,,,,,,,,,,,,,537,19,Woman,Right,1,57,0.15,2,0,180,180,0.9118231999996169,['n'],0.9360406999999213,1.6139999999999999,1064.0102004,,,,,537,19,Woman,Right,
,,,,,,,,,,,,,,,,,537,19,Woman,Right,1,29,0.4,2,0,180,180,0.3190396999998484,['y'],0.7436705000000075,1.8980000000000001,1067.7444529999998,,,,,537,19,Woman,Right,
,,,,,,,,,,,,,,,,,537,19,Woman,Right,1,5,1,2,0,180,180,1.4024617999998554,['y'],1.231957599999987,1.808,1072.7611275,,,,,537,19,Woman,Right,
,,,,,,,,,,,,,,,,,537,19,Woman,Right,1,52,0.15,1,0,-,180,1.0092085000001134,['n'],0.8875782999998592,1.6320000000000001,1077.4611298,,,,,537,19,Woman,Right,
,,,,,,,,,,,,,,,,,537,19,Woman,Right,1,74,0.15,1,180,-,180,0.48295539999980974,['n'],0.7279387999997198,1.6400000000000001,1081.1106212999998,,,,,537,19,Woman,Right,
,,,,,,,,,,,,,,,,,537,19,Woman,Right,1,50,0.15,1,180,-,0,0.7057429000001321,['n'],1.0798787000003358,1.6400000000000001,1085.4608831,,,,,537,19,Woman,Right,
,,,,,,,,,,,,,,,,,537,19,Woman,Right,1,39,0.4,2,180,0,0,0.5377558999998655,['y'],0.9200483999998141,1.884,1089.6608611000001,,,,,537,19,Woman,Right,
,,,,,,,,,,,,,,,,,537,19,Woman,Right,1,73,0.15,2,0,180,0,0.7862819000001764,['y'],1.2639275999999882,1.742,1094.1273691000001,,,,,537,19,Woman,Right,
,,,,,,,,,,,,,,,,,537,19,Woman,Right,1,15,0.4,2,180,0,0,0.3780265000000327,['y'],1.4320136000001185,1.8479999999999999,1098.7433735999998,,,,,537,19,Woman,Right,
,,,,,,,,,,,,,,,,,537,19,Woman,Right,1,61,0.15,2,0,180,0,0.6659635999999409,['y'],0.8878663000000415,1.758,1102.9109469,,,,,537,19,Woman,Right,
,,,,,,,,,,,,,,,,,537,19,Woman,Right,1,49,0.15,2,0,180,180,0.32126919999973325,['y'],1.103943099999924,1.826,1107.0443993999997,,,,,537,19,Woman,Right,
,,,,,,,,,,,,,,,,,537,19,Woman,Right,1,55,0.15,2,180,0,0,0.23785750000024564,['y'],2.5043791999996756,1.746,1112.7776386,,,,,537,19,Woman,Right,
,,,,,,,,,,,,,,,,,537,19,Woman,Right,1,78,0.15,1,180,-,180,2.693012700000054,['y'],2.0800625000001673,1.164,1121.4769668,,,,,537,19,Woman,Right,
,,,,,,,,,,,,,,,,,537,19,Woman,Right,1,16,0.4,1,0,-,180,1.0894336999999723,['n'],1.3683789000001525,1.178,1126.7270620999998,,,,,537,19,Woman,Right,
,,,,,,,,,,,,,,,,,537,19,Woman,Right,1,13,0.4,2,0,180,180,0.8586058000000776,['y'],1.1362382000002071,1.754,1132.5602835999998,,,,,537,19,Woman,Right,
,,,,,,,,,,,,,,,,,537,19,Woman,Right,1,65,0.15,2,0,180,0,1.7508468000000903,['y'],1.2959419999997408,1.318,1138.9103254000001,,,,,537,19,Woman,Right,
,,,,,,,,,,,,,,,,,537,19,Woman,Right,1,12,0.4,1,0,-,180,1.0254699999995864,['n'],2.3921909000000596,1.212,1145.7431612999999,,,,,537,19,Woman,Right,
,,,,,,,,,,,,,,,,,537,19,Woman,Right,1,43,0.4,2,180,0,0,0.34479929999997694,['y'],0.759530199999972,1.716,1150.0434354999998,,,,,537,19,Woman,Right,
,,,,,,,,,,,,,,,,,537,19,Woman,Right,1,26,0.4,1,180,-,180,0.3432109999998829,['n'],0.8312704999998459,1.722,1154.0274761,,,,,537,19,Woman,Right,
,,,,,,,,,,,,,,,,,537,19,Woman,Right,1,18,0.4,1,180,-,180,0.3582673999999315,['n'],0.7040910999999141,1.722,1157.5111114000001,,,,,537,19,Woman,Right,
,,,,,,,,,,,,,,,,,537,19,Woman,Right,1,58,0.15,1,180,-,180,0.44070430000010674,['n'],0.8880671000001712,1.722,1161.1605091000001,,,,,537,19,Woman,Right,
,,,,,,,,,,,,,,,,,537,19,Woman,Right,1,70,0.15,1,180,-,0,0.5825162000001001,['n'],0.7040948999997454,1.722,1164.8773127,,,,,537,19,Woman,Right,
,,,,,,,,,,,,,,,,,537,19,Woman,Right,1,45,0.15,2,0,180,180,0.4352782000000843,['n'],1.4482711000000563,1.722,1169.1601691,,,,,537,19,Woman,Right,
,,,,,,,,,,,,,,,,,537,19,Woman,Right,2,37,0.4,2,0,180,180,0.43438719999994646,['y'],1.1517014999999446,1.888,1178.4773652999997,81.25,82.5,87.5,,537,19,Woman,Right,
,,,,,,,,,,,,,,,,,537,19,Woman,Right,2,79,0.15,2,180,0,180,1.5479543999999805,['n'],1.0957674000001134,1.334,1184.8266076,,,,,537,19,Woman,Right,
,,,,,,,,,,,,,,,,,537,19,Woman,Right,2,48,0.15,1,0,-,0,0.5015810999998394,['n'],2.303834100000131,1.6480000000000001,1190.5427839999998,,,,,537,19,Woman,Right,
,,,,,,,,,,,,,,,,,537,19,Woman,Right,2,36,0.4,1,0,-,0,0.22229430000015782,['n'],1.4404562999998234,1.926,1195.1105398999998,,,,,537,19,Woman,Right,
,,,,,,,,,,,,,,,,,537,19,Woman,Right,2,20,0.4,1,0,-,180,0.21349559999998746,['n'],1.2401087000002917,1.69,1198.9601687,,,,,537,19,Woman,Right,
,,,,,,,,,,,,,,,,,537,19,Woman,Right,2,30,0.4,1,180,-,180,0.3850457000003189,['n'],2.712111199999981,1.832,1204.8101136999999,,,,,537,19,Woman,Right,
,,,,,,,,,,,,,,,,,537,19,Woman,Right,2,8,0.4,1,0,-,0,0.7267234999999346,['n'],1.1437897000000703,1.816,1209.3267262999998,,,,,537,19,Woman,Right,
,,,,,,,,,,,,,,,,,537,19,Woman,Right,2,61,0.15,2,0,180,180,0.2678811999999198,['n'],0.8322137999998631,1.782,1212.8599488,,,,,537,19,Woman,Right,
,,,,,,,,,,,,,,,,,537,19,Woman,Right,2,77,0.15,2,0,180,180,0.3390945000001011,['n'],1.208254499999839,1.706,1217.8097352,,,,,537,19,Woman,Right,
,,,,,,,,,,,,,,,,,537,19,Woman,Right,2,2,1,1,180,-,180,0.6925061000001733,['n'],2.5765212999999676,1.96,1223.8929899999998,,,,,537,19,Woman,Right,
,,,,,,,,,,,,,,,,,537,19,Woman,Right,2,56,0.15,1,0,-,180,0.36372039999969275,['n'],1.0399621999999908,1.826,1228.0103663999998,,,,,537,19,Woman,Right,
,,,,,,,,,,,,,,,,,537,19,Woman,Right,2,74,0.15,1,180,-,180,0.4069982999999411,['n'],1.1679595999999037,1.8719999999999999,1232.3934826999998,,,,,537,19,Woman,Right,
,,,,,,,,,,,,,,,,,537,19,Woman,Right,2,52,0.15,1,0,-,180,1.7027758999997786,['n'],2.088233500000115,1.834,1241.2591475999998,,,,,537,19,Woman,Right,
,,,,,,,,,,,,,,,,,537,19,Woman,Right,2,49,0.15,2,0,180,0,0.32306640000024345,['n'],2.4959098999997877,1.638,1246.7767463999999,,,,,537,19,Woman,Right,
,,,,,,,,,,,,,,,,,537,19,Woman,Right,2,75,0.15,2,180,0,0,0.9691863000002741,['n'],1.112246000000141,1.33,1251.5768914999999,,,,,537,19,Woman,Right,
,,,,,,,,,,,,,,,,,537,19,Woman,Right,2,10,0.4,1,180,-,180,0.31657640000003084,['n'],1.3058336000003692,1.732,1257.5597913000001,,,,,537,19,Woman,Right,
,,,,,,,,,,,,,,,,,537,19,Woman,Right,2,53,0.15,2,0,180,180,1.5829297999998744,['y'],1.1996122999998988,1.218,1263.6761827999999,,,,,537,19,Woman,Right,
,,,,,,,,,,,,,,,,,537,19,Woman,Right,2,44,0.15,1,0,-,0,0.28507300000001123,['n'],1.0078103999999257,1.784,1267.7928655,,,,,537,19,Woman,Right,
,,,,,,,,,,,,,,,,,537,19,Woman,Right,2,6,1,1,180,-,180,0.35313799999994444,['n'],1.551875800000289,1.986,1272.3923183000002,,,,,537,19,Woman,Right,
,,,,,,,,,,,,,,,,,537,19,Woman,Right,2,76,0.15,1,0,-,180,0.9910457000000861,['y'],1.0803861999997935,1.58,1276.9596723999998,,,,,537,19,Woman,Right,
,,,,,,,,,,,,,,,,,537,19,Woman,Right,2,35,0.4,2,180,0,0,0.3229258999999729,['y'],1.2004102999999304,1.8820000000000001,1281.0426739999998,,,,,537,19,Woman,Right,
,,,,,,,,,,,,,,,,,537,19,Woman,Right,2,72,0.15,1,0,-,180,0.453952400000162,['y'],1.0640143000000535,1.874,1285.0423213999998,,,,,537,19,Woman,Right,
,,,,,,,,,,,,,,,,,537,19,Woman,Right,2,55,0.15,2,180,0,0,0.6475118999996994,['y'],0.7919004000000314,1.6600000000000001,1288.9421679000002,,,,,537,19,Woman,Right,
,,,,,,,,,,,,,,,,,537,19,Woman,Right,2,23,0.4,2,180,0,0,0.4598702999996931,['y'],0.7441150999998172,1.91,1292.5265395000001,,,,,537,19,Woman,Right,
,,,,,,,,,,,,,,,,,537,19,Woman,Right,2,78,0.15,1,180,-,0,0.4767914999997629,['y'],0.9359676000003674,1.6320000000000001,1296.3927769000002,,,,,537,19,Woman,Right,
,,,,,,,,,,,,,,,,,537,19,Woman,Right,2,60,0.15,1,0,-,180,0.7045477000001483,['y'],0.8320004000001973,1.754,1300.2098464,,,,,537,19,Woman,Right,
,,,,,,,,,,,,,,,,,537,19,Woman,Right,2,29,0.4,2,0,180,180,0.3902908000000025,['y'],0.7202520000000732,1.846,1303.7425133000002,,,,,537,19,Woman,Right,
,,,,,,,,,,,,,,,,,537,19,Woman,Right,2,64,0.15,1,0,-,180,0.5476909000003616,['y'],0.8636449000000539,1.742,1307.4753781,,,,,537,19,Woman,Right,
,,,,,,,,,,,,,,,,,537,19,Woman,Right,2,31,0.4,2,180,0,0,0.9157248000001346,['y'],0.7282923000002484,1.742,1311.5093637,,,,,537,19,Woman,Right,
,,,,,,,,,,,,,,,,,537,19,Woman,Right,2,47,0.15,2,180,0,0,0.524318900000253,['y'],0.7123937999999725,1.8,1315.1757542,,,,,537,19,Woman,Right,
,,,,,,,,,,,,,,,,,537,19,Woman,Right,2,18,0.4,1,180,-,180,0.4521782999995594,['n'],0.7519701999999597,1.846,1318.6918927000002,,,,,537,19,Woman,Right,
,,,,,,,,,,,,,,,,,537,19,Woman,Right,2,65,0.15,2,0,180,180,0.5512566999996125,['y'],1.2235695999997915,1.6440000000000001,1322.9596837999998,,,,,537,19,Woman,Right,
,,,,,,,,,,,,,,,,,537,19,Woman,Right,2,34,0.4,1,180,-,180,0.43418709999968996,['n'],1.015972900000179,1.836,1326.8581874000001,,,,,537,19,Woman,Right,
,,,,,,,,,,,,,,,,,537,19,Woman,Right,2,19,0.4,2,180,0,0,0.5654061000000183,['y'],0.6477617000000464,1.932,1330.5762328,,,,,537,19,Woman,Right,
,,,,,,,,,,,,,,,,,537,19,Woman,Right,2,39,0.4,2,180,0,0,0.5636849000002258,['y'],0.6798954999999296,1.884,1334.2261184,,,,,537,19,Woman,Right,
,,,,,,,,,,,,,,,,,537,19,Woman,Right,2,46,0.15,1,180,-,180,1.991169599999921,['n'],0.8956882000002224,1.392,1340.0590587000002,,,,,537,19,Woman,Right,
,,,,,,,,,,,,,,,,,537,19,Woman,Right,2,7,1,2,180,0,0,0.5510355999999774,['y'],0.6561679999999797,1.8900000000000001,1343.7918863,,,,,537,19,Woman,Right,
,,,,,,,,,,,,,,,,,537,19,Woman,Right,2,25,0.4,2,0,180,180,0.32217999999966196,['y'],0.6637845000000198,1.964,1347.3919218,,,,,537,19,Woman,Right,
,,,,,,,,,,,,,,,,,537,19,Woman,Right,2,67,0.15,2,180,0,0,0.4395770999999513,['y'],0.5923127999999451,1.924,1351.4760643,,,,,537,19,Woman,Right,
,,,,,,,,,,,,,,,,,537,19,Woman,Right,2,42,0.4,1,180,-,180,0.36642600000004677,['n'],0.7758114999996906,1.9,1354.9092707,,,,,537,19,Woman,Right,
,,,,,,,,,,,,,,,,,537,19,Woman,Right,2,58,0.15,1,180,-,180,1.163502299999891,['n'],1.5201615000000857,1.204,1361.3593701999998,,,,,537,19,Woman,Right,
,,,,,,,,,,,,,,,,,537,19,Woman,Right,2,62,0.15,1,180,-,0,0.949848799999927,['y'],0.9567298000001756,1.362,1366.7418631,,,,,537,19,Woman,Right,
,,,,,,,,,,,,,,,,,537,19,Woman,Right,2,13,0.4,2,0,180,180,0.5245605000000069,['y'],1.7599936999999954,1.8860000000000001,1371.4915981,,,,,537,19,Woman,Right,
,,,,,,,,,,,,,,,,,537,19,Woman,Right,2,3,1,2,180,0,0,0.29421910000019125,['y'],0.8082400000002963,1.912,1374.9582606999998,,,,,537,19,Woman,Right,
,,,,,,,,,,,,,,,,,537,19,Woman,Right,2,12,0.4,1,0,-,180,0.8585245999997824,['y'],0.792083399999683,1.65,1379.9756834,,,,,537,19,Woman,Right,
,,,,,,,,,,,,,,,,,537,19,Woman,Right,2,71,0.15,2,180,0,180,1.4252215000001343,['n'],1.9998356999999487,1.1,1387.0422631000001,,,,,537,19,Woman,Right,
,,,,,,,,,,,,,,,,,537,19,Woman,Right,2,45,0.15,2,0,180,180,0.8839554999999564,['y'],2.2719184999996287,1.696,1393.2412499000002,,,,,537,19,Woman,Right,
,,,,,,,,,,,,,,,,,537,19,Woman,Right,2,28,0.4,1,0,-,180,2.0802428000001782,['y'],1.0316419000000678,1.374,1399.7915973999998,,,,,537,19,Woman,Right,
,,,,,,,,,,,,,,,,,537,19,Woman,Right,2,26,0.4,1,180,-,180,0.5039127999998527,['n'],0.8883159000001797,1.95,1404.6255072999998,,,,,537,19,Woman,Right,
,,,,,,,,,,,,,,,,,537,19,Woman,Right,2,43,0.4,2,180,0,0,0.27272409999977754,['y'],0.6320616000002701,1.91,1407.8916153999999,,,,,537,19,Woman,Right,
,,,,,,,,,,,,,,,,,537,19,Woman,Right,2,17,0.4,2,0,180,180,0.27003560000002835,['y'],0.7121293000000151,1.922,1411.6092912999998,,,,,537,19,Woman,Right,
,,,,,,,,,,,,,,,,,537,19,Woman,Right,2,15,0.4,2,180,0,0,0.24994530000003579,['y'],0.6161137999997663,1.922,1414.7087993,,,,,537,19,Woman,Right,
,,,,,,,,,,,,,,,,,537,19,Woman,Right,2,40,0.4,1,0,-,0,0.7250058999998146,['n'],1.0005513999999494,1.922,1419.375615,,,,,537,19,Woman,Right,
,,,,,,,,,,,,,,,,,537,19,Woman,Right,2,50,0.15,1,180,-,180,0.6437893999996049,['n'],0.9045765999999276,1.922,1423.4587182,,,,,537,19,Woman,Right,
,,,,,,,,,,,,,,,,,537,19,Woman,Right,2,5,1,2,0,180,180,1.2123802000000978,['y'],0.8327426999999261,1.922,1427.8424552000001,,,,,537,19,Woman,Right,
,,,,,,,,,,,,,,,,,537,19,Woman,Right,2,11,0.4,2,180,0,0,0.34383530000013707,['y'],0.6965165000001434,1.948,1431.6749731999998,,,,,537,19,Woman,Right,
,,,,,,,,,,,,,,,,,537,19,Woman,Right,2,27,0.4,2,180,0,0,0.2531878999998298,['y'],0.5206143000000338,1.964,1434.9743052,,,,,537,19,Woman,Right,
,,,,,,,,,,,,,,,,,537,19,Woman,Right,2,16,0.4,1,0,-,180,1.086503300000004,['y'],1.5845837000001666,1.6600000000000001,1440.6078312999998,,,,,537,19,Woman,Right,
,,,,,,,,,,,,,,,,,537,19,Woman,Right,2,41,0.4,2,0,180,180,0.3441087000001062,['y'],1.2082820999999058,1.948,1444.7088847,,,,,537,19,Woman,Right,
,,,,,,,,,,,,,,,,,537,19,Woman,Right,2,33,0.4,2,0,180,180,0.47521770000003016,['y'],0.5447558999999274,1.948,1447.9921786999998,,,,,537,19,Woman,Right,
,,,,,,,,,,,,,,,,,537,19,Woman,Right,2,32,0.4,1,0,-,0,1.4003593000002184,['n'],0.9444426000000021,1.5979999999999999,1453.1913157999998,,,,,537,19,Woman,Right,
,,,,,,,,,,,,,,,,,537,19,Woman,Right,2,66,0.15,1,180,-,0,1.0669674999999188,['y'],1.1920445000000655,1.19,1458.525385,,,,,537,19,Woman,Right,
,,,,,,,,,,,,,,,,,537,19,Woman,Right,2,63,0.15,2,180,0,180,0.41643199999998615,['y'],1.1226981999998316,1.6219999999999999,1463.1244671,,,,,537,19,Woman,Right,
,,,,,,,,,,,,,,,,,537,19,Woman,Right,2,24,0.4,1,0,-,0,0.489754400000038,['n'],0.8644131999999445,1.712,1467.2915078,,,,,537,19,Woman,Right,
,,,,,,,,,,,,,,,,,537,19,Woman,Right,2,73,0.15,2,0,180,180,0.8867977999998402,['n'],1.2806165000001783,1.216,1473.0087425000002,,,,,537,19,Woman,Right,
,,,,,,,,,,,,,,,,,537,19,Woman,Right,2,21,0.4,2,0,180,180,0.30600440000034723,['y'],0.8241002999998273,1.804,1476.8591434999998,,,,,537,19,Woman,Right,
,,,,,,,,,,,,,,,,,537,19,Woman,Right,2,4,1,1,0,-,0,0.38940120000006573,['n'],0.8879831999997805,1.862,1480.7085925000001,,,,,537,19,Woman,Right,
,,,,,,,,,,,,,,,,,537,19,Woman,Right,2,38,0.4,1,180,-,180,0.5024561000000176,['n'],0.7604666000001998,1.8900000000000001,1484.3590727,,,,,537,19,Woman,Right,
,,,,,,,,,,,,,,,,,537,19,Woman,Right,2,54,0.15,1,180,-,180,0.4896627999996781,['n'],0.6804276000002574,1.732,1489.0411255999998,,,,,537,19,Woman,Right,
,,,,,,,,,,,,,,,,,537,19,Woman,Right,2,59,0.15,2,180,0,0,0.3426598999999442,['y'],0.7607874000000265,1.8599999999999999,1492.7910258000002,,,,,537,19,Woman,Right,
,,,,,,,,,,,,,,,,,537,19,Woman,Right,2,51,0.15,2,180,0,180,0.8995027000000846,['n'],0.9993153000000348,1.212,1497.9744209,,,,,537,19,Woman,Right,
,,,,,,,,,,,,,,,,,537,19,Woman,Right,2,57,0.15,2,0,180,180,1.0199827999999798,['n'],1.4963201999999,1.3439999999999999,1503.3917514,,,,,537,19,Woman,Right,
,,,,,,,,,,,,,,,,,537,19,Woman,Right,2,22,0.4,1,180,-,180,0.2828091999999742,['n'],0.7439669000000322,1.87,1507.1415759000001,,,,,537,19,Woman,Right,
,,,,,,,,,,,,,,,,,537,19,Woman,Right,2,9,0.4,2,0,180,180,0.5150327000001198,['y'],1.191935399999693,1.978,1511.2744202,,,,,537,19,Woman,Right,
,,,,,,,,,,,,,,,,,537,19,Woman,Right,2,68,0.15,1,0,-,180,0.4546104999999443,['n'],1.6643487999999707,1.38,1516.6744429,,,,,537,19,Woman,Right,
,,,,,,,,,,,,,,,,,537,19,Woman,Right,2,14,0.4,1,180,-,180,0.3666648000003079,['n'],0.7762793000001693,1.908,1520.2082556999999,,,,,537,19,Woman,Right,
,,,,,,,,,,,,,,,,,537,19,Woman,Right,2,69,0.15,2,0,180,180,0.5682722000001377,['y'],1.1767246999997951,1.1,1525.1070697999999,,,,,537,19,Woman,Right,
,,,,,,,,,,,,,,,,,537,19,Woman,Right,2,0,1,1,0,-,0,0.6657336999996915,['n'],0.7286038000002009,1.968,1529.6736449999999,,,,,537,19,Woman,Right,
,,,,,,,,,,,,,,,,,537,19,Woman,Right,2,70,0.15,1,180,-,180,1.429484499999944,['n'],0.43218930000011824,1.74,1534.5245519,,,,,537,19,Woman,Right,
,,,,,,,,,,,,,,,,,537,19,Woman,Right,2,1,1,2,0,180,180,0.4197551000002022,['y'],0.8321849999997539,1.926,1538.2742749,,,,,537,19,Woman,Right,
,,,,,,,,,,,,,,,,,537,19,Woman,Right,3,13,0.4,2,0,180,180,0.4574472999997852,['y'],0.6167596000000231,1.978,1544.0739604999999,76.25,75.0,77.5,,537,19,Woman,Right,
,,,,,,,,,,,,,,,,,537,19,Woman,Right,3,2,1,1,180,-,180,0.4223925999999665,['n'],0.6081755000000157,1.966,1547.5411193,,,,,537,19,Woman,Right,
,,,,,,,,,,,,,,,,,537,19,Woman,Right,3,69,0.15,2,0,180,180,0.6191617000004044,['y'],0.736121799999637,1.576,1551.8071221,,,,,537,19,Woman,Right,
,,,,,,,,,,,,,,,,,537,19,Woman,Right,3,64,0.15,1,0,-,180,0.41768880000017816,['y'],0.7123326999999335,1.694,1555.8234862,,,,,537,19,Woman,Right,
,,,,,,,,,,,,,,,,,537,19,Woman,Right,3,27,0.4,2,180,0,0,0.4076391999997213,['y'],0.6562745999999606,1.974,1559.5082125,,,,,537,19,Woman,Right,
,,,,,,,,,,,,,,,,,537,19,Woman,Right,3,60,0.15,1,0,-,180,0.6929109000002427,['y'],0.8723898999996891,1.1139999999999999,1564.6243257,,,,,537,19,Woman,Right,
,,,,,,,,,,,,,,,,,537,19,Woman,Right,3,11,0.4,2,180,0,0,0.3344366999999693,['y'],0.6241319999999178,1.8639999999999999,1567.9407750999999,,,,,537,19,Woman,Right,
,,,,,,,,,,,,,,,,,537,19,Woman,Right,3,12,0.4,1,0,-,0,0.4513065999999526,['n'],0.8326360999999451,1.93,1571.6909412,,,,,537,19,Woman,Right,
,,,,,,,,,,,,,,,,,537,19,Woman,Right,3,21,0.4,2,0,180,180,0.3420227999999952,['y'],0.6567447000002176,1.922,1574.991226,,,,,537,19,Woman,Right,
,,,,,,,,,,,,,,,,,537,19,Woman,Right,3,17,0.4,2,0,180,180,0.33676969999987705,['y'],0.7125637000003735,1.922,1578.3236121999998,,,,,537,19,Woman,Right,
,,,,,,,,,,,,,,,,,537,19,Woman,Right,3,7,1,2,180,0,0,0.4325866999997743,['y'],0.6516320999999152,1.956,1581.9739659000002,,,,,537,19,Woman,Right,
,,,,,,,,,,,,,,,,,537,19,Woman,Right,3,61,0.15,2,0,180,180,0.2335576000000401,['n'],0.768730400000095,1.94,1585.3579925,,,,,537,19,Woman,Right,
,,,,,,,,,,,,,,,,,537,19,Woman,Right,3,26,0.4,1,180,-,180,0.3309540999998717,['n'],0.8007015000002866,1.94,1588.7580576999999,,,,,537,19,Woman,Right,
,,,,,,,,,,,,,,,,,537,19,Woman,Right,3,59,0.15,2,180,0,0,0.31481829999984257,['y'],0.6967254999999568,1.772,1592.3072837999998,,,,,537,19,Woman,Right,
,,,,,,,,,,,,,,,,,537,19,Woman,Right,3,15,0.4,2,180,0,0,0.22092579999980444,['y'],0.6406628999998247,1.8860000000000001,1595.6742755999999,,,,,537,19,Woman,Right,
,,,,,,,,,,,,,,,,,537,19,Woman,Right,3,37,0.4,2,0,180,180,0.31838020000031975,['y'],1.056521900000007,1.88,1599.4079311,,,,,537,19,Woman,Right,
,,,,,,,,,,,,,,,,,537,19,Woman,Right,3,5,1,2,0,180,180,0.824855800000023,['y'],0.5689596000001984,1.92,1603.1905318,,,,,537,19,Woman,Right,
,,,,,,,,,,,,,,,,,537,19,Woman,Right,3,46,0.15,1,180,-,180,0.514122000000043,['n'],0.5920399999999972,1.92,1606.6077810000002,,,,,537,19,Woman,Right,
,,,,,,,,,,,,,,,,,537,19,Woman,Right,3,3,1,2,180,0,0,0.22735950000014782,['y'],0.5604453000000831,1.928,1609.8410794000001,,,,,537,19,Woman,Right,
,,,,,,,,,,,,,,,,,537,19,Woman,Right,3,31,0.4,2,180,0,0,0.23172530000010738,['y'],0.632524900000135,1.926,1612.9238738,,,,,537,19,Woman,Right,
,,,,,,,,,,,,,,,,,537,19,Woman,Right,3,70,0.15,1,180,-,180,0.2771714999998949,['n'],0.5685668000000987,1.922,1615.9731311,,,,,537,19,Woman,Right,
,,,,,,,,,,,,,,,,,537,19,Woman,Right,3,41,0.4,2,0,180,180,0.2915203000002293,['y'],0.5522085000002335,1.764,1619.2574728999998,,,,,537,19,Woman,Right,
,,,,,,,,,,,,,,,,,537,19,Woman,Right,3,43,0.4,2,180,0,0,0.3360225999999784,['y'],0.62424239999973,1.796,1622.4245657000001,,,,,537,19,Woman,Right,
,,,,,,,,,,,,,,,,,537,19,Woman,Right,3,30,0.4,1,180,-,180,0.36709590000009484,['n'],0.5688615999997637,1.8599999999999999,1625.8409765000001,,,,,537,19,Woman,Right,
,,,,,,,,,,,,,,,,,537,19,Woman,Right,3,35,0.4,2,180,0,0,0.17056739999998172,['y'],0.5687542999999096,1.888,1628.9903977999998,,,,,537,19,Woman,Right,
,,,,,,,,,,,,,,,,,537,19,Woman,Right,3,67,0.15,2,180,0,0,0.5626997999997911,['y'],0.576398700000027,1.838,1632.3399457,,,,,537,19,Woman,Right,
,,,,,,,,,,,,,,,,,537,19,Woman,Right,3,62,0.15,1,180,-,0,1.595433200000116,['y'],0.904522199999974,1.362,1638.3070578000002,,,,,537,19,Woman,Right,
,,,,,,,,,,,,,,,,,537,19,Woman,Right,3,56,0.15,1,0,-,0,0.26671570000007705,['n'],4.205211700000291,1.202,1645.6736179,,,,,537,19,Woman,Right,
,,,,,,,,,,,,,,,,,537,19,Woman,Right,3,58,0.15,1,180,-,0,0.4615515000000414,['y'],1.2330133999998907,1.212,1649.9237208999998,,,,,537,19,Woman,Right,
,,,,,,,,,,,,,,,,,537,19,Woman,Right,3,71,0.15,2,180,0,0,0.31760680000024877,['y'],0.6877203999997619,1.548,1654.3575037,,,,,537,19,Woman,Right,
,,,,,,,,,,,,,,,,,537,19,Woman,Right,3,33,0.4,2,0,180,180,1.3822478000001865,['y'],0.6727558000002318,1.778,1658.7402256999999,,,,,537,19,Woman,Right,
,,,,,,,,,,,,,,,,,537,19,Woman,Right,3,16,0.4,1,0,-,180,1.188740499999767,['n'],1.95262189999994,1.196,1665.0731049,,,,,537,19,Woman,Right,
,,,,,,,,,,,,,,,,,537,19,Woman,Right,3,50,0.15,1,180,-,180,0.5109161000000313,['y'],0.8247350999999981,1.634,1668.9741473,,,,,537,19,Woman,Right,
,,,,,,,,,,,,,,,,,537,19,Woman,Right,3,49,0.15,2,0,180,180,0.780565900000056,['y'],0.7370101000001341,1.634,1672.9407403999999,,,,,537,19,Woman,Right,
,,,,,,,,,,,,,,,,,537,19,Woman,Right,3,42,0.4,1,180,-,180,0.6225147999998626,['n'],0.5530846000001475,1.914,1677.0240905,,,,,537,19,Woman,Right,
,,,,,,,,,,,,,,,,,537,19,Woman,Right,3,32,0.4,1,0,-,180,0.7611713000001146,['n'],0.9283623999999691,1.612,1681.6397123000002,,,,,537,19,Woman,Right,
,,,,,,,,,,,,,,,,,537,19,Woman,Right,3,14,0.4,1,180,-,180,0.28201279999984763,['n'],0.592467299999953,1.962,1685.0406134999998,,,,,537,19,Woman,Right,
,,,,,,,,,,,,,,,,,537,19,Woman,Right,3,22,0.4,1,180,-,180,0.689083500000379,['n'],0.6164334999998573,1.976,1689.1067007000001,,,,,537,19,Woman,Right,
,,,,,,,,,,,,,,,,,537,19,Woman,Right,3,63,0.15,2,180,0,180,0.34369050000032075,['n'],0.7287108999998964,1.716,1692.7402146999998,,,,,537,19,Woman,Right,
,,,,,,,,,,,,,,,,,537,19,Woman,Right,3,75,0.15,2,180,0,0,0.7420857000001888,['n'],1.7763992000000144,1.93,1699.1239337000002,,,,,537,19,Woman,Right,
,,,,,,,,,,,,,,,,,537,19,Woman,Right,3,79,0.15,2,180,0,0,0.6491605999999592,['y'],0.6437884000001759,1.63,1703.0737453000002,,,,,537,19,Woman,Right,
,,,,,,,,,,,,,,,,,537,19,Woman,Right,3,28,0.4,1,0,-,180,0.42539920000035636,['y'],0.616787800000111,1.69,1706.9398652,,,,,537,19,Woman,Right,
,,,,,,,,,,,,,,,,,537,19,Woman,Right,3,29,0.4,2,0,180,180,0.524736600000324,['y'],0.9122160000001713,1.956,1711.3065333999998,,,,,537,19,Woman,Right,
,,,,,,,,,,,,,,,,,537,19,Woman,Right,3,8,0.4,1,0,-,0,0.303427400000146,['n'],0.6966497999997046,1.95,1714.7395548,,,,,537,19,Woman,Right,
,,,,,,,,,,,,,,,,,537,19,Woman,Right,3,73,0.15,2,0,180,0,0.8614844000003359,['n'],0.952974599999834,1.138,1719.2569279,,,,,537,19,Woman,Right,
,,,,,,,,,,,,,,,,,537,19,Woman,Right,3,19,0.4,2,180,0,180,0.42851870000004055,['n'],3.152814000000035,1.3519999999999999,1726.5390243000002,,,,,537,19,Woman,Right,
,,,,,,,,,,,,,,,,,537,19,Woman,Right,3,20,0.4,1,0,-,0,0.2688188000001901,['n'],0.6485360000001492,1.924,1730.2904296000002,,,,,537,19,Woman,Right,
,,,,,,,,,,,,,,,,,537,19,Woman,Right,3,55,0.15,2,180,0,0,0.37659960000019055,['y'],0.6568373999998585,1.804,1733.8063852,,,,,537,19,Woman,Right,
,,,,,,,,,,,,,,,,,537,19,Woman,Right,3,44,0.15,1,0,-,180,0.27498440000044866,['n'],0.6888619999999719,1.85,1737.0729803999998,,,,,537,19,Woman,Right,
,,,,,,,,,,,,,,,,,537,19,Woman,Right,3,34,0.4,1,180,-,180,0.8569608000002518,['n'],0.9370103999999628,1.85,1741.1728044000001,,,,,537,19,Woman,Right,
,,,,,,,,,,,,,,,,,537,19,Woman,Right,3,6,1,1,180,-,180,0.5183849000000009,['n'],0.840940000000046,1.916,1745.056948,,,,,537,19,Woman,Right,
,,,,,,,,,,,,,,,,,537,19,Woman,Right,3,24,0.4,1,0,-,180,0.4497401999997237,['y'],0.5448296999998092,1.808,1748.5231439,,,,,537,19,Woman,Right,
,,,,,,,,,,,,,,,,,537,19,Woman,Right,3,54,0.15,1,180,-,0,0.5676866999997401,['y'],0.7612063000001399,1.304,1752.5897426000001,,,,,537,19,Woman,Right,
,,,,,,,,,,,,,,,,,537,19,Woman,Right,3,4,1,1,0,-,0,0.4213654000000133,['n'],1.9528313000000708,1.8820000000000001,1757.773521,,,,,537,19,Woman,Right,
,,,,,,,,,,,,,,,,,537,19,Woman,Right,3,45,0.15,2,0,180,180,1.832396300000255,['y'],0.9180678999996417,1.13,1763.1726694,,,,,537,19,Woman,Right,
,,,,,,,,,,,,,,,,,537,19,Woman,Right,3,48,0.15,1,0,-,180,1.9978676000000632,['n'],0.90460929999972,1.696,1768.5228647,,,,,537,19,Woman,Right,
,,,,,,,,,,,,,,,,,537,19,Woman,Right,3,76,0.15,1,0,-,0,1.303788799999893,['y'],2.5931046000000606,1.716,1775.1566469999998,,,,,537,19,Woman,Right,
,,,,,,,,,,,,,,,,,537,19,Woman,Right,3,1,1,2,0,180,180,0.438555699999597,['y'],0.7290619999998853,1.964,1778.6896668999998,,,,,537,19,Woman,Right,
,,,,,,,,,,,,,,,,,537,19,Woman,Right,3,10,0.4,1,180,-,180,0.3288596000002144,['n'],0.6247941000001447,1.818,1781.8561866,,,,,537,19,Woman,Right,
,,,,,,,,,,,,,,,,,537,19,Woman,Right,3,66,0.15,1,180,-,180,0.4746399000000565,['n'],0.6492362999997567,1.95,1785.3557775,,,,,537,19,Woman,Right,
,,,,,,,,,,,,,,,,,537,19,Woman,Right,3,0,1,1,0,-,0,0.38266499999963344,['n'],0.7529426999999487,1.8860000000000001,1788.7886208999998,,,,,537,19,Woman,Right,
,,,,,,,,,,,,,,,,,537,19,Woman,Right,3,25,0.4,2,0,180,180,0.37167409999983647,['y'],0.5527339000000211,1.706,1792.4227176999998,,,,,537,19,Woman,Right,
,,,,,,,,,,,,,,,,,537,19,Woman,Right,3,18,0.4,1,180,-,180,0.3316595999999663,['n'],0.6809553000002779,1.764,1795.7241632999999,,,,,537,19,Woman,Right,
,,,,,,,,,,,,,,,,,537,19,Woman,Right,3,74,0.15,1,180,-,0,1.2491313999998965,['n'],1.4887118999999984,1.704,1801.8226559999998,,,,,537,19,Woman,Right,
,,,,,,,,,,,,,,,,,537,19,Woman,Right,3,51,0.15,2,180,0,180,0.8685805000000073,['n'],1.7691217999999935,1.0,1807.0392984999999,,,,,537,19,Woman,Right,
,,,,,,,,,,,,,,,,,537,19,Woman,Right,3,52,0.15,1,0,-,0,0.25724959999979546,['n'],0.7764665999998215,1.646,1810.9227319000001,,,,,537,19,Woman,Right,
,,,,,,,,,,,,,,,,,537,19,Woman,Right,3,68,0.15,1,0,-,180,0.4933611999999812,['y'],1.7851809999997386,1.646,1815.7061462000001,,,,,537,19,Woman,Right,
,,,,,,,,,,,,,,,,,537,19,Woman,Right,3,65,0.15,2,0,180,180,0.3861520999998902,['y'],1.1532105999999658,1.37,1819.8725746999999,,,,,537,19,Woman,Right,
,,,,,,,,,,,,,,,,,537,19,Woman,Right,3,57,0.15,2,0,180,180,0.7938980999997511,['n'],1.128928900000119,1.392,1824.6065531,,,,,537,19,Woman,Right,
,,,,,,,,,,,,,,,,,537,19,Woman,Right,3,9,0.4,2,0,180,180,0.42198469999993904,['y'],0.7447497999996813,1.92,1828.1891844000002,,,,,537,19,Woman,Right,
,,,,,,,,,,,,,,,,,537,19,Woman,Right,3,53,0.15,2,0,180,180,0.46757239999988087,['n'],0.7444611999999324,1.802,1831.7886223,,,,,537,19,Woman,Right,
,,,,,,,,,,,,,,,,,537,19,Woman,Right,3,39,0.4,2,180,0,0,0.3493174000000181,['y'],0.6410427000000709,1.802,1835.0385771,,,,,537,19,Woman,Right,
,,,,,,,,,,,,,,,,,537,19,Woman,Right,3,38,0.4,1,180,-,180,0.41932459999998173,['n'],0.5930591000001186,1.946,1838.7233634999998,,,,,537,19,Woman,Right,
,,,,,,,,,,,,,,,,,537,19,Woman,Right,3,78,0.15,1,180,-,180,0.9198495000000548,['n'],1.2728377999997065,1.358,1844.3393532999999,,,,,537,19,Woman,Right,
,,,,,,,,,,,,,,,,,537,19,Woman,Right,3,72,0.15,1,0,-,0,0.22202720000041154,['n'],0.6886196999998901,1.794,1848.1551636,,,,,537,19,Woman,Right,
,,,,,,,,,,,,,,,,,537,19,Woman,Right,3,36,0.4,1,0,-,0,0.35826319999978296,['n'],0.8807225000000471,1.874,1851.8887753,,,,,537,19,Woman,Right,
,,,,,,,,,,,,,,,,,537,19,Woman,Right,3,23,0.4,2,180,0,0,0.38683009999977,['y'],0.6085892000000968,1.91,1855.2883889,,,,,537,19,Woman,Right,
,,,,,,,,,,,,,,,,,537,19,Woman,Right,3,40,0.4,1,0,-,0,0.1836951999998746,['n'],0.7068785999999818,1.888,1858.7718095999999,,,,,537,19,Woman,Right,
,,,,,,,,,,,,,,,,,537,19,Woman,Right,3,47,0.15,2,180,0,180,0.26117459999977655,['n'],0.6084353999999621,1.888,1861.9384648,,,,,537,19,Woman,Right,
,,,,,,,,,,,,,,,,,537,19,Woman,Right,3,77,0.15,2,0,180,180,0.1351065999997445,['n'],1.113039100000151,1.888,1865.8560397,,,,,537,19,Woman,Right,
,,,,,,,,,,,,,,,,,537,19,Woman,Right,4,14,0.4,1,180,-,180,0.4209595000002082,['n'],0.8975365999999667,1.888,1871.0896656999998,77.5,75.0,75.0,,537,19,Woman,Right,
,,,,,,,,,,,,,,,,,537,19,Woman,Right,4,3,1,2,180,0,0,0.4563913000001776,['y'],1.6013390999996773,1.94,1875.6717303,,,,,537,19,Woman,Right,
,,,,,,,,,,,,,,,,,537,19,Woman,Right,4,74,0.15,1,180,-,180,0.2430742999999893,['n'],0.5772574000002351,1.94,1879.4722662,,,,,537,19,Woman,Right,
,,,,,,,,,,,,,,,,,537,19,Woman,Right,4,8,0.4,1,0,-,0,0.5659966999996868,['n'],1.7879586999997628,1.84,1884.3726302999999,,,,,537,19,Woman,Right,
,,,,,,,,,,,,,,,,,537,19,Woman,Right,4,53,0.15,2,0,180,180,0.43929879999996047,['y'],0.6009377999998833,1.84,1887.6224002999998,,,,,537,19,Woman,Right,
,,,,,,,,,,,,,,,,,537,19,Woman,Right,4,55,0.15,2,180,0,180,0.2611210000000028,['y'],0.7373936999997568,1.84,1890.75506,,,,,537,19,Woman,Right,
,,,,,,,,,,,,,,,,,537,19,Woman,Right,4,16,0.4,1,0,-,180,0.7112750999999662,['y'],3.081200600000102,1.35,1897.8562398,,,,,537,19,Woman,Right,
,,,,,,,,,,,,,,,,,537,19,Woman,Right,4,23,0.4,2,180,0,0,0.33969749999960186,['y'],0.6649508999998943,1.72,1901.5713326999999,,,,,537,19,Woman,Right,
,,,,,,,,,,,,,,,,,537,19,Woman,Right,4,28,0.4,1,0,-,180,0.3349159999997937,['n'],0.8494680000003427,1.362,1905.7215032999998,,,,,537,19,Woman,Right,
,,,,,,,,,,,,,,,,,537,19,Woman,Right,4,48,0.15,1,0,-,180,0.6005947999997261,['n'],0.8806316999998671,1.6179999999999999,1909.571422,,,,,537,19,Woman,Right,
,,,,,,,,,,,,,,,,,537,19,Woman,Right,4,10,0.4,1,180,-,180,0.30197880000014266,['n'],0.809363200000007,1.828,1913.2557495,,,,,537,19,Woman,Right,
,,,,,,,,,,,,,,,,,537,19,Woman,Right,4,0,1,1,0,-,0,0.5787454000001162,['n'],0.6251444999998057,1.8860000000000001,1916.9054797,,,,,537,19,Woman,Right,
,,,,,,,,,,,,,,,,,537,19,Woman,Right,4,42,0.4,1,180,-,180,0.29935059999979785,['n'],0.5734150999996928,1.78,1920.0054893000001,,,,,537,19,Woman,Right,
,,,,,,,,,,,,,,,,,537,19,Woman,Right,4,4,1,1,0,-,0,0.7574272000001656,['n'],0.7055825000002187,1.8780000000000001,1923.7388588999997,,,,,537,19,Woman,Right,
,,,,,,,,,,,,,,,,,537,19,Woman,Right,4,24,0.4,1,0,-,180,0.36845240000002377,['y'],1.529050300000108,1.16,1929.1218685,,,,,537,19,Woman,Right,
,,,,,,,,,,,,,,,,,537,19,Woman,Right,4,18,0.4,1,180,-,180,0.2151954000000842,['n'],1.3929259999999886,1.8,1933.8051775999998,,,,,537,19,Woman,Right,
,,,,,,,,,,,,,,,,,537,19,Woman,Right,4,29,0.4,2,0,180,180,0.41343559999995705,['y'],0.73670329999959,1.928,1937.338656,,,,,537,19,Woman,Right,
,,,,,,,,,,,,,,,,,537,19,Woman,Right,4,51,0.15,2,180,0,0,0.3112975999997616,['y'],0.6969631000001755,1.842,1940.6054482999998,,,,,537,19,Woman,Right,
,,,,,,,,,,,,,,,,,537,19,Woman,Right,4,72,0.15,1,0,-,0,0.43746779999992214,['n'],0.5934197000001404,1.6680000000000001,1944.1053204999998,,,,,537,19,Woman,Right,
,,,,,,,,,,,,,,,,,537,19,Woman,Right,4,17,0.4,2,0,180,180,0.26592359999995097,['y'],0.6651209999999992,1.772,1947.2550569,,,,,537,19,Woman,Right,
,,,,,,,,,,,,,,,,,537,19,Woman,Right,4,5,1,2,0,180,180,0.4662577999997666,['y'],0.497596600000179,1.8519999999999999,1950.5550383,,,,,537,19,Woman,Right,
,,,,,,,,,,,,,,,,,537,19,Woman,Right,4,38,0.4,1,180,-,180,0.30266949999986537,['n'],0.6889040999999452,1.824,1953.7389445999997,,,,,537,19,Woman,Right,
,,,,,,,,,,,,,,,,,537,19,Woman,Right,4,73,0.15,2,0,180,180,0.2961904999997387,['n'],0.6493705000002592,1.712,1957.0888467999998,,,,,537,19,Woman,Right,
,,,,,,,,,,,,,,,,,537,19,Woman,Right,4,39,0.4,2,180,0,0,0.3053150000000642,['y'],0.6492081999999755,1.87,1960.3878215,,,,,537,19,Woman,Right,
,,,,,,,,,,,,,,,,,537,19,Woman,Right,4,27,0.4,2,180,0,0,0.3338745999999446,['y'],0.5452586000001247,1.812,1963.4897399000001,,,,,537,19,Woman,Right,
,,,,,,,,,,,,,,,,,537,19,Woman,Right,4,1,1,2,0,180,180,0.3493764999998348,['y'],0.5581033000003117,1.876,1966.7547079,,,,,537,19,Woman,Right,
,,,,,,,,,,,,,,,,,537,19,Woman,Right,4,34,0.4,1,180,-,180,0.679633300000205,['n'],0.864694800000052,1.154,1970.9217737999998,,,,,537,19,Woman,Right,
,,,,,,,,,,,,,,,,,537,19,Woman,Right,4,60,0.15,1,0,-,0,0.32753709999997227,['n'],1.0888365000000704,1.832,1975.0553992999999,,,,,537,19,Woman,Right,
,,,,,,,,,,,,,,,,,537,19,Woman,Right,4,2,1,1,180,-,180,0.2751682000002802,['n'],0.5291059999999561,1.862,1978.2719432,,,,,537,19,Woman,Right,
,,,,,,,,,,,,,,,,,537,19,Woman,Right,4,52,0.15,1,0,-,0,0.28983130000005985,['n'],0.8411400999998477,1.862,1981.9378032999998,,,,,537,19,Woman,Right,
,,,,,,,,,,,,,,,,,537,19,Woman,Right,4,59,0.15,2,180,0,0,0.3751216000000568,['y'],0.7214619999999741,1.658,1985.4383354000001,,,,,537,19,Woman,Right,
,,,,,,,,,,,,,,,,,537,19,Woman,Right,4,45,0.15,2,0,180,180,0.38964560000022175,['n'],0.9050161999998636,1.564,1989.9718545,,,,,537,19,Woman,Right,
,,,,,,,,,,,,,,,,,537,19,Woman,Right,4,79,0.15,2,180,0,0,0.22268919999987702,['y'],0.6731628000002274,1.6099999999999999,1993.3550787,,,,,537,19,Woman,Right,
,,,,,,,,,,,,,,,,,537,19,Woman,Right,4,61,0.15,2,0,180,180,0.2399276999999529,['n'],1.0891222000000198,1.698,1996.8887716999998,,,,,537,19,Woman,Right,
,,,,,,,,,,,,,,,,,537,19,Woman,Right,4,44,0.15,1,0,-,180,0.880066799999895,['y'],0.9051783999998406,1.238,2001.5051780999997,,,,,537,19,Woman,Right,
,,,,,,,,,,,,,,,,,537,19,Woman,Right,4,67,0.15,2,180,0,0,0.4420278999996299,['y'],1.5131483000000117,1.5739999999999998,2006.1553066000001,,,,,537,19,Woman,Right,
,,,,,,,,,,,,,,,,,537,19,Woman,Right,4,31,0.4,2,180,0,0,0.1894454999996924,['y'],0.5775361999999404,1.8679999999999999,2009.9217316999998,,,,,537,19,Woman,Right,
,,,,,,,,,,,,,,,,,537,19,Woman,Right,4,32,0.4,1,0,-,0,0.4071254000000408,['n'],1.553085700000338,1.5859999999999999,2014.5872960000002,,,,,537,19,Woman,Right,
,,,,,,,,,,,,,,,,,537,19,Woman,Right,4,21,0.4,2,0,180,180,0.24456809999992402,['y'],0.7129916999997477,1.8860000000000001,2018.4884643,,,,,537,19,Woman,Right,
,,,,,,,,,,,,,,,,,537,19,Woman,Right,4,22,0.4,1,180,-,180,0.2818808000001809,['n'],0.7375249000001531,1.8860000000000001,2021.8049812,,,,,537,19,Woman,Right,
,,,,,,,,,,,,,,,,,537,19,Woman,Right,4,43,0.4,2,180,0,0,0.1794686999996884,['y'],1.1455009999999675,1.8860000000000001,2025.4879087,,,,,537,19,Woman,Right,
,,,,,,,,,,,,,,,,,537,19,Woman,Right,4,25,0.4,2,0,180,180,0.2586532000000261,['y'],0.6415658000000803,1.8860000000000001,2028.4886357,,,,,537,19,Woman,Right,
,,,,,,,,,,,,,,,,,537,19,Woman,Right,4,65,0.15,2,0,180,180,1.56066090000013,['y'],0.8974966999999197,1.6219999999999999,2034.0382782000001,,,,,537,19,Woman,Right,
,,,,,,,,,,,,,,,,,537,19,Woman,Right,4,30,0.4,1,180,-,180,0.39672250000012355,['n'],0.769463000000087,1.8639999999999999,2038.004227,,,,,537,19,Woman,Right,
,,,,,,,,,,,,,,,,,537,19,Woman,Right,4,13,0.4,2,0,180,180,0.3406356999998934,['y'],0.6254979000000276,1.8639999999999999,2041.2213556000002,,,,,537,19,Woman,Right,
,,,,,,,,,,,,,,,,,537,19,Woman,Right,4,36,0.4,1,0,-,0,0.5337632000000667,['n'],0.6974742000002152,1.6019999999999999,2045.1380094,,,,,537,19,Woman,Right,
,,,,,,,,,,,,,,,,,537,19,Woman,Right,4,9,0.4,2,0,180,180,0.3692117999999027,['y'],0.5767812000003687,1.938,2048.5880322,,,,,537,19,Woman,Right,
,,,,,,,,,,,,,,,,,537,19,Woman,Right,4,64,0.15,1,0,-,180,0.32821999999987383,['n'],0.8488285999997061,1.712,2052.2210021,,,,,537,19,Woman,Right,
,,,,,,,,,,,,,,,,,537,19,Woman,Right,4,68,0.15,1,0,-,180,0.18235820000018066,['n'],0.6975601999997707,1.712,2055.4050597,,,,,537,19,Woman,Right,
,,,,,,,,,,,,,,,,,537,19,Woman,Right,4,40,0.4,1,0,-,180,0.21354599999995116,['n'],0.8175836999998864,1.712,2059.2379927,,,,,537,19,Woman,Right,
,,,,,,,,,,,,,,,,,537,19,Woman,Right,4,6,1,1,180,-,180,0.7658275999997386,['n'],0.8085989999999583,1.95,2064.1039839,,,,,537,19,Woman,Right,
,,,,,,,,,,,,,,,,,537,19,Woman,Right,4,54,0.15,1,180,-,180,0.08780550000028597,['n'],1.4012754000000314,1.896,2068.137893,,,,,537,19,Woman,Right,
,,,,,,,,,,,,,,,,,537,19,Woman,Right,4,15,0.4,2,180,0,0,2.136225600000216,['y'],0.8974954000000253,1.944,2073.5378771,,,,,537,19,Woman,Right,
,,,,,,,,,,,,,,,,,537,19,Woman,Right,4,37,0.4,2,0,180,180,0.5535353000000214,['y'],1.1293123000000378,1.796,2078.0714319,,,,,537,19,Woman,Right,
,,,,,,,,,,,,,,,,,537,19,Woman,Right,4,11,0.4,2,180,0,0,0.21735140000009778,['y'],0.7050274000002901,1.95,2081.8549203,,,,,537,19,Woman,Right,
,,,,,,,,,,,,,,,,,537,19,Woman,Right,4,50,0.15,1,180,-,180,0.17124409999996715,['n'],0.6254086999997526,1.796,2084.9539158,,,,,537,19,Woman,Right,
,,,,,,,,,,,,,,,,,537,19,Woman,Right,4,69,0.15,2,0,180,180,0.9830402000002323,['y'],0.9455735999999888,1.354,2089.3711193999998,,,,,537,19,Woman,Right,
,,,,,,,,,,,,,,,,,537,19,Woman,Right,4,58,0.15,1,180,-,180,0.37626689999979135,['n'],0.7610463999999411,1.584,2092.8210932,,,,,537,19,Woman,Right,
,,,,,,,,,,,,,,,,,537,19,Woman,Right,4,76,0.15,1,0,-,0,0.7970466000001579,['n'],0.8735094000003301,1.612,2097.6880445,,,,,537,19,Woman,Right,
,,,,,,,,,,,,,,,,,537,19,Woman,Right,4,7,1,2,180,0,0,0.3157069999997475,['y'],0.7173459000000548,2.0,2101.3369420999998,,,,,537,19,Woman,Right,
,,,,,,,,,,,,,,,,,537,19,Woman,Right,4,57,0.15,2,0,180,180,0.352405600000111,['y'],0.7051022999999077,1.566,2105.3037544,,,,,537,19,Woman,Right,
,,,,,,,,,,,,,,,,,537,19,Woman,Right,4,12,0.4,1,0,-,180,0.6738153999999668,['n'],0.7617340000001604,1.85,2109.3713344,,,,,537,19,Woman,Right,
,,,,,,,,,,,,,,,,,537,19,Woman,Right,4,46,0.15,1,180,-,180,0.4086112999998477,['n'],0.6810669000001326,1.726,2112.6873462,,,,,537,19,Woman,Right,
,,,,,,,,,,,,,,,,,537,19,Woman,Right,4,66,0.15,1,180,-,180,0.3617597999996178,['n'],0.7056265999999596,1.726,2115.9704981,,,,,537,19,Woman,Right,
,,,,,,,,,,,,,,,,,537,19,Woman,Right,4,70,0.15,1,180,-,180,0.25444359999983135,['n'],0.8099050000000716,1.726,2119.519763,,,,,537,19,Woman,Right,
,,,,,,,,,,,,,,,,,537,19,Woman,Right,4,19,0.4,2,180,0,0,0.3824392000001353,['y'],1.1904843999996046,1.92,2123.6537769,,,,,537,19,Woman,Right,
,,,,,,,,,,,,,,,,,537,19,Woman,Right,4,49,0.15,2,0,180,180,0.2930166000001009,['n'],2.137329000000136,1.8900000000000001,2128.4372637,,,,,537,19,Woman,Right,
,,,,,,,,,,,,,,,,,537,19,Woman,Right,4,75,0.15,2,180,0,180,0.6199545999998008,['n'],1.0176212000001215,1.27,2132.6200814,,,,,537,19,Woman,Right,
,,,,,,,,,,,,,,,,,537,19,Woman,Right,4,26,0.4,1,180,-,180,0.29354909999983647,['n'],0.7294910000000527,1.904,2136.154561,,,,,537,19,Woman,Right,
,,,,,,,,,,,,,,,,,537,19,Woman,Right,4,78,0.15,1,180,-,180,0.2567159999998694,['n'],0.688950499999919,1.82,2139.3541883,,,,,537,19,Woman,Right,
,,,,,,,,,,,,,,,,,537,19,Woman,Right,4,63,0.15,2,180,0,0,0.4479518999996799,['y'],0.6817212999999356,1.592,2143.0551889,,,,,537,19,Woman,Right,
,,,,,,,,,,,,,,,,,537,19,Woman,Right,4,41,0.4,2,0,180,180,0.37272559999973964,['y'],0.6413640000000669,1.84,2146.4204527,,,,,537,19,Woman,Right,
,,,,,,,,,,,,,,,,,537,19,Woman,Right,4,77,0.15,2,0,180,180,0.18257360000006884,['n'],0.6493110000001252,1.76,2150.5540107,,,,,537,19,Woman,Right,
,,,,,,,,,,,,,,,,,537,19,Woman,Right,4,47,0.15,2,180,0,180,0.9260444999999891,['n'],0.881800199999816,1.3519999999999999,2155.0209191,,,,,537,19,Woman,Right,
,,,,,,,,,,,,,,,,,537,19,Woman,Right,4,56,0.15,1,0,-,180,0.24730689999978495,['n'],1.3610216000001856,1.396,2159.0536690999998,,,,,537,19,Woman,Right,
,,,,,,,,,,,,,,,,,537,19,Woman,Right,4,35,0.4,2,180,0,0,0.7962913999999728,['y'],0.665268400000059,1.326,2163.5374795,,,,,537,19,Woman,Right,
,,,,,,,,,,,,,,,,,537,19,Woman,Right,4,33,0.4,2,0,180,180,0.36099220000005516,['y'],0.8254394000000502,1.8980000000000001,2167.3539738,,,,,537,19,Woman,Right,
,,,,,,,,,,,,,,,,,537,19,Woman,Right,4,20,0.4,1,0,-,0,0.4789283999998588,['n'],0.6975268999999571,1.816,2171.2372514,,,,,537,19,Woman,Right,
,,,,,,,,,,,,,,,,,537,19,Woman,Right,4,71,0.15,2,180,0,180,0.3570079999999507,['n'],0.9614864999998645,1.33,2175.2539183999997,,,,,537,19,Woman,Right,
,,,,,,,,,,,,,,,,,537,19,Woman,Right,4,62,0.15,1,180,-,180,0.3812275000000227,['n'],0.7687137000002622,1.718,2178.7698596,,,,,537,19,Woman,Right,
,,,,,,,,,,,,,,,,,537,19,Woman,Right,5,17,0.4,2,0,180,180,0.33268050000015137,['y'],1.0733592999999928,1.954,2185.8036362,82.5,92.5,80.0,,537,19,Woman,Right,
,,,,,,,,,,,,,,,,,537,19,Woman,Right,5,59,0.15,2,180,0,180,0.5417882000001555,['n'],1.0415576999998848,1.68,2190.3863962,,,,,537,19,Woman,Right,
,,,,,,,,,,,,,,,,,537,19,Woman,Right,5,36,0.4,1,0,-,0,0.6111275000002934,['n'],0.681086100000357,1.946,2194.3872523,,,,,537,19,Woman,Right,
,,,,,,,,,,,,,,,,,537,19,Woman,Right,5,15,0.4,2,180,0,0,0.2957550999999512,['y'],0.8014587999996365,1.8679999999999999,2198.3034345,,,,,537,19,Woman,Right,
,,,,,,,,,,,,,,,,,537,19,Woman,Right,5,42,0.4,1,180,-,180,1.1536605000001146,['n'],0.6418383999998696,1.776,2203.0376717999998,,,,,537,19,Woman,Right,
,,,,,,,,,,,,,,,,,537,19,Woman,Right,5,47,0.15,2,180,0,0,0.9237574000003406,['y'],0.8975265999997646,1.194,2207.6368633,,,,,537,19,Woman,Right,
,,,,,,,,,,,,,,,,,537,19,Woman,Right,5,27,0.4,2,180,0,0,0.2192697999998927,['y'],0.6097182000003158,1.948,2211.0040427999998,,,,,537,19,Woman,Right,
,,,,,,,,,,,,,,,,,537,19,Woman,Right,5,1,1,2,0,180,180,0.4706519000001208,['y'],0.6494095999996716,1.97,2214.5871835,,,,,537,19,Woman,Right,
,,,,,,,,,,,,,,,,,537,19,Woman,Right,5,63,0.15,2,180,0,0,0.2860387000000628,['y'],0.6173222999996142,1.654,2218.2038312,,,,,537,19,Woman,Right,
,,,,,,,,,,,,,,,,,537,19,Woman,Right,5,54,0.15,1,180,-,180,0.6331601000001683,['n'],1.222471300000052,1.194,2222.7872397,,,,,537,19,Woman,Right,
,,,,,,,,,,,,,,,,,537,19,Woman,Right,5,39,0.4,2,180,0,0,0.16704829999980575,['y'],0.5452629999999772,1.908,2226.0202482,,,,,537,19,Woman,Right,
,,,,,,,,,,,,,,,,,537,19,Woman,Right,5,22,0.4,1,180,-,180,0.5010352999997849,['n'],1.5931515000002037,1.88,2230.8534329999998,,,,,537,19,Woman,Right,
,,,,,,,,,,,,,,,,,537,19,Woman,Right,5,7,1,2,180,0,0,0.2509824999997363,['y'],0.489188699999886,1.928,2234.0034312,,,,,537,19,Woman,Right,
,,,,,,,,,,,,,,,,,537,19,Woman,Right,5,14,0.4,1,180,-,180,1.0144156999999723,['n'],0.3932724999999664,1.962,2237.9704427,,,,,537,19,Woman,Right,
,,,,,,,,,,,,,,,,,537,19,Woman,Right,5,24,0.4,1,0,-,0,0.5663227999998526,['n'],0.7062667000000147,1.6059999999999999,2241.9867036,,,,,537,19,Woman,Right,
,,,,,,,,,,,,,,,,,537,19,Woman,Right,5,37,0.4,2,0,180,180,0.4564249000000018,['y'],0.8172096000002966,1.964,2246.6191644,,,,,537,19,Woman,Right,
,,,,,,,,,,,,,,,,,537,19,Woman,Right,5,75,0.15,2,180,0,0,0.2869031999998697,['y'],0.5695581999998467,1.626,2249.7859313999998,,,,,537,19,Woman,Right,
,,,,,,,,,,,,,,,,,537,19,Woman,Right,5,10,0.4,1,180,-,180,0.8081617000002552,['n'],0.6656544000002214,1.942,2254.2198206,,,,,537,19,Woman,Right,
,,,,,,,,,,,,,,,,,537,19,Woman,Right,5,18,0.4,1,180,-,180,0.35933509999995294,['n'],0.5536207999998624,1.8980000000000001,2257.4026457,,,,,537,19,Woman,Right,
,,,,,,,,,,,,,,,,,537,19,Woman,Right,5,50,0.15,1,180,-,180,0.46373480000011114,['n'],0.8975427999998828,1.908,2261.5363057,,,,,537,19,Woman,Right,
,,,,,,,,,,,,,,,,,537,19,Woman,Right,5,62,0.15,1,180,-,180,0.2486773999999059,['n'],0.7698132999998961,1.908,2264.8361079,,,,,537,19,Woman,Right,
,,,,,,,,,,,,,,,,,537,19,Woman,Right,5,76,0.15,1,0,-,0,0.28532670000004146,['n'],0.6179188999999496,1.908,2268.0026970999998,,,,,537,19,Woman,Right,
,,,,,,,,,,,,,,,,,537,19,Woman,Right,5,71,0.15,2,180,0,180,1.047377399999732,['n'],0.8818725999999515,1.18,2272.6373465,,,,,537,19,Woman,Right,
,,,,,,,,,,,,,,,,,537,19,Woman,Right,5,32,0.4,1,0,-,0,0.6458841999997276,['n'],0.7614320000002408,1.412,2277.3525765,,,,,537,19,Woman,Right,
,,,,,,,,,,,,,,,,,537,19,Woman,Right,5,23,0.4,2,180,0,0,0.2829022000000805,['y'],0.6091670999999224,1.8860000000000001,2280.8025861,,,,,537,19,Woman,Right,
,,,,,,,,,,,,,,,,,537,19,Woman,Right,5,67,0.15,2,180,0,0,0.6488084000002345,['y'],0.7775738000000274,1.276,2285.0699419,,,,,537,19,Woman,Right,
,,,,,,,,,,,,,,,,,537,19,Woman,Right,5,41,0.4,2,0,180,180,0.36505750000014814,['y'],0.6816561999999067,1.922,2288.5365988,,,,,537,19,Woman,Right,
,,,,,,,,,,,,,,,,,537,19,Woman,Right,5,25,0.4,2,0,180,180,0.2723562999999558,['y'],0.5536199000002853,1.914,2291.7856516,,,,,537,19,Woman,Right,
,,,,,,,,,,,,,,,,,537,19,Woman,Right,5,31,0.4,2,180,0,0,0.19316359999993438,['y'],0.5134969999999157,1.952,2294.9365585,,,,,537,19,Woman,Right,
,,,,,,,,,,,,,,,,,537,19,Woman,Right,5,40,0.4,1,0,-,0,0.38608419999991384,['y'],1.225933200000327,1.306,2299.0871771,,,,,537,19,Woman,Right,
,,,,,,,,,,,,,,,,,537,19,Woman,Right,5,5,1,2,0,180,180,0.2658037000001059,['y'],0.46079809999991994,1.99,2302.5861097,,,,,537,19,Woman,Right,
,,,,,,,,,,,,,,,,,537,19,Woman,Right,5,6,1,1,180,-,180,0.5099325000001045,['n'],0.5060936999998376,1.96,2306.1698578,,,,,537,19,Woman,Right,
,,,,,,,,,,,,,,,,,537,19,Woman,Right,5,64,0.15,1,0,-,180,1.3772720000001755,['n'],1.921429999999873,1.0979999999999999,2312.0693987,,,,,537,19,Woman,Right,
,,,,,,,,,,,,,,,,,537,19,Woman,Right,5,44,0.15,1,0,-,180,0.8222958999999719,['y'],1.44957820000036,1.3519999999999999,2317.0026736,,,,,537,19,Woman,Right,
,,,,,,,,,,,,,,,,,537,19,Woman,Right,5,65,0.15,2,0,180,180,2.2143105000000105,['y'],1.0581277999999656,1.054,2322.9528705,,,,,537,19,Woman,Right,
,,,,,,,,,,,,,,,,,537,19,Woman,Right,5,46,0.15,1,180,-,180,2.097493199999917,['y'],1.6736191999998482,1.112,2329.4697769,,,,,537,19,Woman,Right,
,,,,,,,,,,,,,,,,,537,19,Woman,Right,5,8,0.4,1,0,-,0,2.2809547000001658,['n'],0.9060704999997142,1.3479999999999999,2335.8859125,,,,,537,19,Woman,Right,
,,,,,,,,,,,,,,,,,537,19,Woman,Right,5,34,0.4,1,180,-,180,0.3047874999997475,['n'],0.6655288000001747,1.96,2339.2693004,,,,,537,19,Woman,Right,
,,,,,,,,,,,,,,,,,537,19,Woman,Right,5,26,0.4,1,180,-,180,0.7030143000001772,['n'],0.633679900000061,1.802,2342.8524809,,,,,537,19,Woman,Right,
,,,,,,,,,,,,,,,,,537,19,Woman,Right,5,69,0.15,2,0,180,180,1.2456707000001188,['y'],0.6573155000000952,1.646,2347.1862565,,,,,537,19,Woman,Right,
,,,,,,,,,,,,,,,,,537,19,Woman,Right,5,45,0.15,2,0,180,180,0.3523827000003621,['n'],0.5622386000000006,1.69,2350.385393,,,,,537,19,Woman,Right,
,,,,,,,,,,,,,,,,,537,19,Woman,Right,5,78,0.15,1,180,-,180,0.5537142000002859,['n'],0.6420574000003398,1.82,2353.9196825,,,,,537,19,Woman,Right,
,,,,,,,,,,,,,,,,,537,19,Woman,Right,5,49,0.15,2,0,180,180,1.589815400000134,['y'],0.7539894000001368,1.612,2358.6697126999998,,,,,537,19,Woman,Right,
,,,,,,,,,,,,,,,,,537,19,Woman,Right,5,0,1,1,0,-,0,0.29916210000010324,['n'],0.5722412999998596,1.932,2362.1856019,,,,,537,19,Woman,Right,
,,,,,,,,,,,,,,,,,537,19,Woman,Right,5,52,0.15,1,0,-,180,0.9282560999999987,['n'],0.9776842999999644,1.256,2366.7687329,,,,,537,19,Woman,Right,
,,,,,,,,,,,,,,,,,537,19,Woman,Right,5,70,0.15,1,180,-,180,0.3710972000003494,['n'],2.449085400000058,1.3900000000000001,2372.486516,,,,,537,19,Woman,Right,
,,,,,,,,,,,,,,,,,537,19,Woman,Right,5,33,0.4,2,0,180,180,0.3142483000001448,['y'],0.913694100000157,1.9,2376.2519268,,,,,537,19,Woman,Right,
,,,,,,,,,,,,,,,,,537,19,Woman,Right,5,30,0.4,1,180,-,180,0.3331505000001016,['n'],0.6095919999997932,1.98,2379.5361528,,,,,537,19,Woman,Right,
,,,,,,,,,,,,,,,,,537,19,Woman,Right,5,12,0.4,1,0,-,0,0.884308300000157,['n'],1.1220299999999952,1.318,2384.2694266,,,,,537,19,Woman,Right,
,,,,,,,,,,,,,,,,,537,19,Woman,Right,5,43,0.4,2,180,0,0,0.4153972999997677,['y'],0.6015089999996235,1.926,2387.7022391,,,,,537,19,Woman,Right,
,,,,,,,,,,,,,,,,,537,19,Woman,Right,5,4,1,1,0,-,0,0.324335599999813,['n'],0.5375157000003128,1.97,2391.1525242,,,,,537,19,Woman,Right,
,,,,,,,,,,,,,,,,,537,19,Woman,Right,5,48,0.15,1,0,-,180,1.0341533999999228,['n'],0.7054038000001128,1.678,2395.8029306,,,,,537,19,Woman,Right,
,,,,,,,,,,,,,,,,,537,19,Woman,Right,5,55,0.15,2,180,0,180,2.296022500000163,['n'],1.050130000000081,1.678,2401.3699960999998,,,,,537,19,Woman,Right,
,,,,,,,,,,,,,,,,,537,19,Woman,Right,5,16,0.4,1,0,-,180,0.34618090000003576,['n'],1.7061220000000503,1.678,2405.9527755999998,,,,,537,19,Woman,Right,
,,,,,,,,,,,,,,,,,537,19,Woman,Right,5,28,0.4,1,0,-,0,0.42412240000021484,['n'],1.0662661999999727,1.766,2409.9521519,,,,,537,19,Woman,Right,
,,,,,,,,,,,,,,,,,537,19,Woman,Right,5,11,0.4,2,180,0,0,0.3288479000002553,['y'],0.714108699999997,1.91,2413.5019143,,,,,537,19,Woman,Right,
,,,,,,,,,,,,,,,,,537,19,Woman,Right,5,58,0.15,1,180,-,180,0.5021937999999864,['n'],0.6173699000000852,1.9020000000000001,2417.0016259,,,,,537,19,Woman,Right,
,,,,,,,,,,,,,,,,,537,19,Woman,Right,5,9,0.4,2,0,180,180,0.27508780000016486,['y'],0.5539260999998987,1.966,2420.1027529,,,,,537,19,Woman,Right,
,,,,,,,,,,,,,,,,,537,19,Woman,Right,5,19,0.4,2,180,0,0,0.25261909999971977,['y'],0.5537567999999737,1.942,2423.2024043,,,,,537,19,Woman,Right,
,,,,,,,,,,,,,,,,,537,19,Woman,Right,5,21,0.4,2,0,180,180,0.3201586000000134,['y'],0.6256949999997232,1.946,2426.5196436,,,,,537,19,Woman,Right,
,,,,,,,,,,,,,,,,,537,19,Woman,Right,5,35,0.4,2,180,0,0,0.2199200000000019,['y'],0.4975646000002598,1.986,2429.5524318,,,,,537,19,Woman,Right,
,,,,,,,,,,,,,,,,,537,19,Woman,Right,5,13,0.4,2,0,180,180,0.19307619999972303,['y'],0.49799080000002505,1.944,2432.6187699,,,,,537,19,Woman,Right,
,,,,,,,,,,,,,,,,,537,19,Woman,Right,5,77,0.15,2,0,180,180,0.28699249999999665,['y'],0.43355769999971017,1.744,2435.9524109999998,,,,,537,19,Woman,Right,
,,,,,,,,,,,,,,,,,537,19,Woman,Right,5,38,0.4,1,180,-,180,0.5375417000000198,['n'],0.7058354000000691,1.834,2439.6686141,,,,,537,19,Woman,Right,
,,,,,,,,,,,,,,,,,537,19,Woman,Right,5,73,0.15,2,0,180,180,0.8058462999997573,['n'],1.1058036999997967,1.3479999999999999,2444.6684769,,,,,537,19,Woman,Right,
,,,,,,,,,,,,,,,,,537,19,Woman,Right,5,79,0.15,2,180,0,0,0.3814394999999422,['y'],0.7059672999998838,1.258,2448.2691806,,,,,537,19,Woman,Right,
,,,,,,,,,,,,,,,,,537,19,Woman,Right,5,61,0.15,2,0,180,180,0.47081260000004477,['n'],0.7296116000002257,1.684,2451.8858025,,,,,537,19,Woman,Right,
,,,,,,,,,,,,,,,,,537,19,Woman,Right,5,3,1,2,180,0,0,0.3019858999996359,['y'],0.4420498000004045,1.97,2455.0016521,,,,,537,19,Woman,Right,
,,,,,,,,,,,,,,,,,537,19,Woman,Right,5,60,0.15,1,0,-,180,0.6650260000005801,['n'],1.6574718000001667,1.17,2460.0024713000003,,,,,537,19,Woman,Right,
,,,,,,,,,,,,,,,,,537,19,Woman,Right,5,72,0.15,1,0,-,180,0.5210931999999957,['n'],0.9537962000003972,1.3559999999999999,2464.1855745000003,,,,,537,19,Woman,Right,
,,,,,,,,,,,,,,,,,537,19,Woman,Right,5,57,0.15,2,0,180,0,1.424479600000268,['n'],0.8021650000000591,1.172,2469.6350159000003,,,,,537,19,Woman,Right,
,,,,,,,,,,,,,,,,,537,19,Woman,Right,5,20,0.4,1,0,-,0,0.5032236000006378,['n'],0.698423200000434,1.678,2473.5190544999996,,,,,537,19,Woman,Right,
,,,,,,,,,,,,,,,,,537,19,Woman,Right,5,56,0.15,1,0,-,180,0.6087268000001131,['n'],0.5856927000004362,1.714,2477.1356220999996,,,,,537,19,Woman,Right,
,,,,,,,,,,,,,,,,,537,19,Woman,Right,5,74,0.15,1,180,-,0,0.8520102000002225,['y'],1.186012699999992,1.0939999999999999,2482.1015203999996,,,,,537,19,Woman,Right,
,,,,,,,,,,,,,,,,,537,19,Woman,Right,5,66,0.15,1,180,-,180,0.3262526999997135,['n'],0.6818667999996251,1.708,2486.0512240999997,,,,,537,19,Woman,Right,
,,,,,,,,,,,,,,,,,537,19,Woman,Right,5,53,0.15,2,0,180,180,0.5166468999996141,['y'],0.618063500000062,1.912,2489.5687682999996,,,,,537,19,Woman,Right,
,,,,,,,,,,,,,,,,,537,19,Woman,Right,5,2,1,1,180,-,180,0.4519649000003483,['n'],0.45796249999966676,1.986,2492.8345266999995,,,,,537,19,Woman,Right,
,,,,,,,,,,,,,,,,,537,19,Woman,Right,5,51,0.15,2,180,0,0,0.3118983999993361,['y'],0.593619199999921,1.762,2495.9687427999997,,,,,537,19,Woman,Right,
,,,,,,,,,,,,,,,,,537,19,Woman,Right,5,68,0.15,1,0,-,180,1.2347207999991952,['n'],0.9141417000000729,1.888,2502.7021059,,,,,537,19,Woman,Right,
,,,,,,,,,,,,,,,,,537,19,Woman,Right,5,29,0.4,2,0,180,180,0.25682270000015706,['y'],0.6016017000001739,1.954,2505.9350599,,,,,537,19,Woman,Right,
,,,,,,,,,,,,,,,,,,,,,,,,,,,,,,,,,82.5,90.0,82.5,2207.45832,,,,,
