p_block,p_section,p_coherence,p_direction1,p_direction2,p_direction_response,p_direction_RT,p_change_response,p_change_RT,p_confidence,p_full_correct,p_without5_correct,p_full_total,p_without5_total,p_full_avg,p_witout5_avg,p_total_time,sub,age,sex,handedness,loop,trial randomization,coherence,condition,direction1,direction2,direction_response,direction_RT,change_response,change_RT,change_confidence,change_confidence_RT,block_direction_avg,block_stable_avg,block_change_avg,total_time,sub,age,sex,handedness,
1,1,1.0,0,-,0,2.4163590999996813,-,-,-,,,,,,,,509,18,Woman,Right,,,,,,,,,,,,,,,,,509,18,Woman,Right,
1,1,1.0,0,-,0,0.11011300000245683,-,-,-,,,,,,,,509,18,Woman,Right,,,,,,,,,,,,,,,,,509,18,Woman,Right,
1,1,1.0,180,-,180,0.01720510000086506,-,-,-,,,,,,,,509,18,Woman,Right,,,,,,,,,,,,,,,,,509,18,Woman,Right,
1,1,1.0,0,-,0,0.29435449999800767,-,-,-,,,,,,,,509,18,Woman,Right,,,,,,,,,,,,,,,,,509,18,Woman,Right,
1,1,1.0,180,-,180,0.9967188999980863,-,-,-,,,,,,,,509,18,Woman,Right,,,,,,,,,,,,,,,,,509,18,Woman,Right,
1,1,1.0,180,-,180,0.13561830000253394,-,-,-,,,,,,,,509,18,Woman,Right,,,,,,,,,,,,,,,,,509,18,Woman,Right,
1,1,1.0,0,-,0,0.3802643999988504,-,-,-,,,,,,,,509,18,Woman,Right,,,,,,,,,,,,,,,,,509,18,Woman,Right,
1,1,1.0,0,-,0,0.38345429999753833,-,-,-,,,,,,,,509,18,Woman,Right,,,,,,,,,,,,,,,,,509,18,Woman,Right,
1,1,1.0,0,-,0,0.3458411999999953,-,-,-,,,,,,,,509,18,Woman,Right,,,,,,,,,,,,,,,,,509,18,Woman,Right,
1,1,1.0,0,-,0,0.3165028000003076,-,-,-,10,10,10,10,1.0,1.0,,509,18,Woman,Right,,,,,,,,,,,,,,,,,509,18,Woman,Right,
2,1,0.4,0,-,0,0.4518547999978182,-,-,-,,,,,,,,509,18,Woman,Right,,,,,,,,,,,,,,,,,509,18,Woman,Right,
2,1,0.15,0,-,180,0.8835935999995854,-,-,-,,,,,,,,509,18,Woman,Right,,,,,,,,,,,,,,,,,509,18,Woman,Right,
2,1,0.15,180,-,180,0.6750673999995342,-,-,-,,,,,,,,509,18,Woman,Right,,,,,,,,,,,,,,,,,509,18,Woman,Right,
2,1,0.15,180,-,0,0.5146941999992123,-,-,-,,,,,,,,509,18,Woman,Right,,,,,,,,,,,,,,,,,509,18,Woman,Right,
2,1,0.15,0,-,0,0.8479788999975426,-,-,-,,,,,,,,509,18,Woman,Right,,,,,,,,,,,,,,,,,509,18,Woman,Right,
2,1,0.4,0,-,0,0.4093176000023959,-,-,-,,,,,,,,509,18,Woman,Right,,,,,,,,,,,,,,,,,509,18,Woman,Right,
2,1,0.4,180,-,180,0.33007870000074035,-,-,-,,,,,,,,509,18,Woman,Right,,,,,,,,,,,,,,,,,509,18,Woman,Right,
2,1,0.15,0,-,0,0.7838921000002301,-,-,-,,,,,,,,509,18,Woman,Right,,,,,,,,,,,,,,,,,509,18,Woman,Right,
2,1,0.4,0,-,0,0.6030663999990793,-,-,-,,,,,,,,509,18,Woman,Right,,,,,,,,,,,,,,,,,509,18,Woman,Right,
2,1,0.4,0,-,0,0.3407900999991398,-,-,-,8,5,10,5,0.8,1.0,,509,18,Woman,Right,,,,,,,,,,,,,,,,,509,18,Woman,Right,
3,2,1.0,0,180,180,1.7049469999983557,['y'],3.3595247999983258,2.0,,,,,,,,509,18,Woman,Right,,,,,,,,,,,,,,,,,509,18,Woman,Right,
3,2,1.0,0,180,180,1.0677288000006229,['y'],2.4118944000001648,2.0,,,,,,,,509,18,Woman,Right,,,,,,,,,,,,,,,,,509,18,Woman,Right,
3,2,1.0,180,0,0,0.8800230999986525,['y'],0.8725419000002148,2.0,,,,,,,,509,18,Woman,Right,,,,,,,,,,,,,,,,,509,18,Woman,Right,
3,2,1.0,0,180,180,0.6509731000005559,['y'],1.7002229999998235,2.0,,,,,,,,509,18,Woman,Right,,,,,,,,,,,,,,,,,509,18,Woman,Right,
3,2,1.0,0,180,180,0.6894265999981144,['y'],0.5773283000016818,2.0,,,,,,,,509,18,Woman,Right,,,,,,,,,,,,,,,,,509,18,Woman,Right,
3,2,1.0,0,180,180,0.6933734000012919,['y'],0.4594906999991508,2.0,,,,,,,,509,18,Woman,Right,,,,,,,,,,,,,,,,,509,18,Woman,Right,
3,2,1.0,0,180,180,0.6889434000004258,['y'],0.8723596000018006,1.944,,,,,,,,509,18,Woman,Right,,,,,,,,,,,,,,,,,509,18,Woman,Right,
3,2,1.0,0,180,180,0.46892060000027413,['y'],0.7641986000016914,1.932,,,,,,,,509,18,Woman,Right,,,,,,,,,,,,,,,,,509,18,Woman,Right,
3,2,1.0,0,180,180,0.3972678999998607,['y'],0.6006925000001502,2.0,,,,,,,,509,18,Woman,Right,,,,,,,,,,,,,,,,,509,18,Woman,Right,
3,2,1.0,180,0,0,0.7333241000014823,['y'],1.8406083999980183,1.952,10,10,10,10,1.0,1.0,,509,18,Woman,Right,,,,,,,,,,,,,,,,,509,18,Woman,Right,
4,2,0.4,0,180,180,0.930286700000579,['y'],0.6400878000022203,1.738,,,,,,,,509,18,Woman,Right,,,,,,,,,,,,,,,,,509,18,Woman,Right,
4,2,0.4,180,0,0,0.4549927999978536,['y'],1.4159349000001384,1.8980000000000001,,,,,,,,509,18,Woman,Right,,,,,,,,,,,,,,,,,509,18,Woman,Right,
4,2,0.15,180,0,0,1.126447200000257,['n'],2.2602855999975873,1.318,,,,,,,,509,18,Woman,Right,,,,,,,,,,,,,,,,,509,18,Woman,Right,
4,2,0.4,0,180,180,0.601368799998454,['y'],0.33233970000219415,1.57,,,,,,,,509,18,Woman,Right,,,,,,,,,,,,,,,,,509,18,Woman,Right,
4,2,0.15,180,0,0,1.0664374000007228,['y'],0.8410515999967174,1.322,,,,,,,,509,18,Woman,Right,,,,,,,,,,,,,,,,,509,18,Woman,Right,
4,2,0.4,180,0,0,0.39884800000072573,['y'],0.6099425000029441,1.418,,,,,,,,509,18,Woman,Right,,,,,,,,,,,,,,,,,509,18,Woman,Right,
4,2,0.4,180,0,0,0.2047113000007812,['y'],0.6715575999987777,1.6139999999999999,,,,,,,,509,18,Woman,Right,,,,,,,,,,,,,,,,,509,18,Woman,Right,
4,2,0.4,180,0,0,0.2404184000006353,['y'],0.7619771999998193,1.56,,,,,,,,509,18,Woman,Right,,,,,,,,,,,,,,,,,509,18,Woman,Right,
4,2,0.15,180,0,0,0.34885510000094655,['y'],0.8980485000029148,1.322,,,,,,,,509,18,Woman,Right,,,,,,,,,,,,,,,,,509,18,Woman,Right,
4,2,0.4,0,180,180,0.2636692000014591,['y'],1.04804409999997,1.604,10,7,10,7,1.0,1.0,,509,18,Woman,Right,,,,,,,,,,,,,,,,,509,18,Woman,Right,
5,3,0.15,180,-,180,1.1165371999995841,['n'],2.8293008000000555,1.4060000000000001,,,,,,,,509,18,Woman,Right,,,,,,,,,,,,,,,,,509,18,Woman,Right,
5,3,0.4,0,-,0,0.4908140000006824,['n'],0.8973656999987725,1.666,,,,,,,,509,18,Woman,Right,,,,,,,,,,,,,,,,,509,18,Woman,Right,
5,3,0.15,180,-,180,0.674994400000287,['n'],0.6747969000025478,1.33,,,,,,,,509,18,Woman,Right,,,,,,,,,,,,,,,,,509,18,Woman,Right,
5,3,0.15,0,-,0,0.5424738000001526,['n'],0.515020499999082,1.592,,,,,,,,509,18,Woman,Right,,,,,,,,,,,,,,,,,509,18,Woman,Right,
5,3,1.0,180,0,0,0.46719190000294475,['y'],0.34813320000102976,1.708,,,,,,,,509,18,Woman,Right,,,,,,,,,,,,,,,,,509,18,Woman,Right,
5,3,0.15,180,0,180,0.615407100001903,['n'],0.9297237999999197,1.422,,,,,,,,509,18,Woman,Right,,,,,,,,,,,,,,,,,509,18,Woman,Right,
5,3,0.15,0,180,180,0.4350702000010642,['y'],0.6362222999996447,1.562,,,,,,,,509,18,Woman,Right,,,,,,,,,,,,,,,,,509,18,Woman,Right,
5,3,0.4,180,-,0,0.4347438999975566,['n'],0.5320142999989912,1.484,,,,,,,,509,18,Woman,Right,,,,,,,,,,,,,,,,,509,18,Woman,Right,
5,3,1.0,0,-,0,0.6222611999983201,['n'],0.5030461999995168,1.792,,,,,,,,509,18,Woman,Right,,,,,,,,,,,,,,,,,509,18,Woman,Right,
5,3,0.4,0,180,180,0.30630680000103894,['y'],0.2728352000012819,1.702,8,4,10,5,0.8,0.8,,509,18,Woman,Right,,,,,,,,,,,,,,,,,509,18,Woman,Right,
,,,,,,,,,,,,,,,,5.699999746866524e-06,509,18,Woman,Right,,,,,,,,,,,,,,,,,509,18,Woman,Right,
,,,,,,,,,,,,,,,,,509,18,Woman,Right,0,31,0.4,2,180,0,0,0.46598549999907846,['y'],2.550482300001022,1.642,324.06664049999745,,,,,509,18,Woman,Right,
,,,,,,,,,,,,,,,,,509,18,Woman,Right,0,5,1,2,0,180,180,0.3430233000035514,['y'],1.1827559000012116,1.834,329.90044609999677,,,,,509,18,Woman,Right,
,,,,,,,,,,,,,,,,,509,18,Woman,Right,0,56,0.15,1,0,-,180,2.9363491000003705,['n'],1.1022909000021173,1.268,340.1999275999988,,,,,509,18,Woman,Right,
,,,,,,,,,,,,,,,,,509,18,Woman,Right,0,67,0.15,2,180,0,0,0.8070398000018031,['y'],1.6389144000022497,1.3679999999999999,346.16711479999867,,,,,509,18,Woman,Right,
,,,,,,,,,,,,,,,,,509,18,Woman,Right,0,2,1,1,180,-,180,0.4524977000000945,['n'],1.1908922000002349,1.566,351.8171502999976,,,,,509,18,Woman,Right,
,,,,,,,,,,,,,,,,,509,18,Woman,Right,0,29,0.4,2,0,180,180,0.41771220000009635,['y'],0.9829262999992352,1.56,357.13391709999996,,,,,509,18,Woman,Right,
,,,,,,,,,,,,,,,,,509,18,Woman,Right,0,8,0.4,1,0,-,180,1.998951699999452,['n'],1.5023015000006126,1.246,364.25004029999764,,,,,509,18,Woman,Right,
,,,,,,,,,,,,,,,,,509,18,Woman,Right,0,36,0.4,1,0,-,180,2.2409009000002698,['n'],0.46234139999796753,1.084,372.033706299997,,,,,509,18,Woman,Right,
,,,,,,,,,,,,,,,,,509,18,Woman,Right,0,1,1,2,0,180,180,0.4104178999987198,['y'],1.094645799999853,1.734,376.6503965999982,,,,,509,18,Woman,Right,
,,,,,,,,,,,,,,,,,509,18,Woman,Right,0,44,0.15,1,0,-,180,2.6164800000005926,['n'],1.000953800001298,1.1179999999999999,383.46635009999954,,,,,509,18,Woman,Right,
,,,,,,,,,,,,,,,,,509,18,Woman,Right,0,27,0.4,2,180,0,0,0.3344646000005014,['y'],0.77468460000091,1.666,389.59969679999995,,,,,509,18,Woman,Right,
,,,,,,,,,,,,,,,,,509,18,Woman,Right,0,14,0.4,1,180,-,180,1.1107292999986385,['n'],1.5745112000004156,1.298,395.4331543999979,,,,,509,18,Woman,Right,
,,,,,,,,,,,,,,,,,509,18,Woman,Right,0,45,0.15,2,0,180,0,3.701104799998575,['n'],0.9262378000021272,1.1440000000000001,403.91647309999826,,,,,509,18,Woman,Right,
,,,,,,,,,,,,,,,,,509,18,Woman,Right,0,58,0.15,1,180,-,180,1.1099313000013353,['n'],0.4543632000022626,1.296,408.9499799999976,,,,,509,18,Woman,Right,
,,,,,,,,,,,,,,,,,509,18,Woman,Right,0,48,0.15,1,0,-,0,0.5873180999988108,['n'],1.1748727999984112,1.23,419.33288269999684,,,,,509,18,Woman,Right,
,,,,,,,,,,,,,,,,,509,18,Woman,Right,0,71,0.15,2,180,0,180,1.2768581999989692,['n'],0.7985797000001185,1.278,424.6997577000002,,,,,509,18,Woman,Right,
,,,,,,,,,,,,,,,,,509,18,Woman,Right,0,9,0.4,2,0,180,180,1.325737900002423,['y'],0.8785896000008506,1.57,431.3657843999972,,,,,509,18,Woman,Right,
,,,,,,,,,,,,,,,,,509,18,Woman,Right,0,78,0.15,1,180,-,180,1.0476085000009334,['n'],1.0780860999984725,1.366,437.26566399999865,,,,,509,18,Woman,Right,
,,,,,,,,,,,,,,,,,509,18,Woman,Right,0,57,0.15,2,0,180,180,0.9827551000016683,['y'],0.7606697000010172,1.54,442.3331653999994,,,,,509,18,Woman,Right,
,,,,,,,,,,,,,,,,,509,18,Woman,Right,0,47,0.15,2,180,0,180,1.8190835999994306,['y'],0.3508984000000055,1.35,447.99939729999824,,,,,509,18,Woman,Right,
,,,,,,,,,,,,,,,,,509,18,Woman,Right,0,42,0.4,1,180,-,180,1.068060699999478,['n'],0.7981368000000657,1.314,454.79904989999704,,,,,509,18,Woman,Right,
,,,,,,,,,,,,,,,,,509,18,Woman,Right,0,20,0.4,1,0,-,180,2.1668853999981366,['y'],0.45470059999934165,1.4100000000000001,461.28194129999974,,,,,509,18,Woman,Right,
,,,,,,,,,,,,,,,,,509,18,Woman,Right,0,63,0.15,2,180,0,0,0.8911861999986286,['y'],0.718387699998857,1.442,466.06553829999757,,,,,509,18,Woman,Right,
,,,,,,,,,,,,,,,,,509,18,Woman,Right,0,70,0.15,1,180,-,180,4.6094799999991665,['n'],1.1422142999981588,1.158,476.4826035999977,,,,,509,18,Woman,Right,
,,,,,,,,,,,,,,,,,509,18,Woman,Right,0,22,0.4,1,180,-,180,0.5921158000019204,['n'],1.2701603999994404,1.5979999999999999,483.30072089999885,,,,,509,18,Woman,Right,
,,,,,,,,,,,,,,,,,509,18,Woman,Right,0,75,0.15,2,180,0,0,0.6617039000011573,['y'],0.7747448999980406,1.424,489.0497918000001,,,,,509,18,Woman,Right,
,,,,,,,,,,,,,,,,,509,18,Woman,Right,0,59,0.15,2,180,0,0,0.5494115999972564,['y'],1.8225789999996778,1.396,495.4164079999973,,,,,509,18,Woman,Right,
,,,,,,,,,,,,,,,,,509,18,Woman,Right,0,4,1,1,0,-,0,0.43271500000264496,['n'],0.9791220000006433,1.718,500.048747599998,,,,,509,18,Woman,Right,
,,,,,,,,,,,,,,,,,509,18,Woman,Right,0,46,0.15,1,180,-,180,1.1445865000023332,['n'],0.9581295999996655,1.426,505.76581839999926,,,,,509,18,Woman,Right,
,,,,,,,,,,,,,,,,,509,18,Woman,Right,0,73,0.15,2,0,180,180,0.53653900000063,['y'],0.5666049999999814,1.542,510.2494125999983,,,,,509,18,Woman,Right,
,,,,,,,,,,,,,,,,,509,18,Woman,Right,0,51,0.15,2,180,0,0,0.6060322000012093,['y'],0.9742574999982025,1.542,514.7486127999982,,,,,509,18,Woman,Right,
,,,,,,,,,,,,,,,,,509,18,Woman,Right,0,38,0.4,1,180,-,180,0.6265483999995922,['n'],1.27051819999906,1.568,520.1660905999997,,,,,509,18,Woman,Right,
,,,,,,,,,,,,,,,,,509,18,Woman,Right,0,61,0.15,2,0,180,180,0.9018446000009135,['n'],2.198577099999966,1.538,527.2654861999981,,,,,509,18,Woman,Right,
,,,,,,,,,,,,,,,,,509,18,Woman,Right,0,24,0.4,1,0,-,0,0.6463544999969599,['n'],0.9266064000003098,1.6320000000000001,532.1322933999982,,,,,509,18,Woman,Right,
,,,,,,,,,,,,,,,,,509,18,Woman,Right,0,60,0.15,1,0,-,0,0.9099298000000999,['n'],0.6305670000001555,1.6480000000000001,537.414958399997,,,,,509,18,Woman,Right,
,,,,,,,,,,,,,,,,,509,18,Woman,Right,0,52,0.15,1,0,-,180,1.1506120999983978,['y'],0.5340543000020261,1.536,544.0495893999978,,,,,509,18,Woman,Right,
,,,,,,,,,,,,,,,,,509,18,Woman,Right,0,79,0.15,2,180,0,180,1.102594500000123,['n'],1.038522999999259,1.538,550.4654980999985,,,,,509,18,Woman,Right,
,,,,,,,,,,,,,,,,,509,18,Woman,Right,0,18,0.4,1,180,-,180,0.9134401999981492,['n'],0.6865132000020822,1.5819999999999999,555.2324334999976,,,,,509,18,Woman,Right,
,,,,,,,,,,,,,,,,,509,18,Woman,Right,0,37,0.4,2,0,180,180,0.7323522000006051,['y'],0.8215811000009126,1.732,561.0657176999994,,,,,509,18,Woman,Right,
,,,,,,,,,,,,,,,,,509,18,Woman,Right,0,6,1,1,180,-,180,1.119216700000834,['n'],0.7738081999996211,1.816,566.6323021999997,,,,,509,18,Woman,Right,
,,,,,,,,,,,,,,,,,509,18,Woman,Right,0,50,0.15,1,180,-,180,2.2163112000016554,['n'],1.5990352000007988,1.564,574.099419299997,,,,,509,18,Woman,Right,
,,,,,,,,,,,,,,,,,509,18,Woman,Right,0,3,1,2,180,0,0,0.7347640000007232,['y'],0.6144674999995914,1.876,578.7827321999976,,,,,509,18,Woman,Right,
,,,,,,,,,,,,,,,,,509,18,Woman,Right,0,68,0.15,1,0,-,180,2.1590876999980537,['y'],1.4142628999979934,1.3439999999999999,587.6153218,,,,,509,18,Woman,Right,
,,,,,,,,,,,,,,,,,509,18,Woman,Right,0,74,0.15,1,180,-,180,0.8441511999990325,['n'],0.7026670000013837,1.544,592.5157658999997,,,,,509,18,Woman,Right,
,,,,,,,,,,,,,,,,,509,18,Woman,Right,0,16,0.4,1,0,-,0,1.476236999998946,['n'],1.750448899998446,1.556,603.9491691999974,,,,,509,18,Woman,Right,
,,,,,,,,,,,,,,,,,509,18,Woman,Right,0,30,0.4,1,180,-,180,1.520196000001306,['n'],0.4224945999994816,1.604,611.9317035999993,,,,,509,18,Woman,Right,
,,,,,,,,,,,,,,,,,509,18,Woman,Right,0,69,0.15,2,0,180,0,3.6826562999995076,['y'],3.082836400000815,1.3479999999999999,622.4163860999979,,,,,509,18,Woman,Right,
,,,,,,,,,,,,,,,,,509,18,Woman,Right,0,43,0.4,2,180,0,0,0.7513615000025311,['y'],0.8304392000027292,1.8,627.7989548999976,,,,,509,18,Woman,Right,
,,,,,,,,,,,,,,,,,509,18,Woman,Right,0,49,0.15,2,0,180,180,0.6897623000004387,['y'],0.5582463999999163,1.71,631.9488208000002,,,,,509,18,Woman,Right,
,,,,,,,,,,,,,,,,,509,18,Woman,Right,0,26,0.4,1,180,-,180,0.8624060000001919,['n'],0.5503346000004967,1.5899999999999999,636.9159427999984,,,,,509,18,Woman,Right,
,,,,,,,,,,,,,,,,,509,18,Woman,Right,0,35,0.4,2,180,0,0,0.3693373000023712,['y'],0.6542422999991686,1.818,640.9148798999995,,,,,509,18,Woman,Right,
,,,,,,,,,,,,,,,,,509,18,Woman,Right,0,34,0.4,1,180,-,180,0.48330880000139587,['n'],0.7659470999969926,1.676,645.0989843999996,,,,,509,18,Woman,Right,
,,,,,,,,,,,,,,,,,509,18,Woman,Right,0,17,0.4,2,0,180,180,0.7097638000013831,['y'],1.238326299997425,1.714,649.8651672999986,,,,,509,18,Woman,Right,
,,,,,,,,,,,,,,,,,509,18,Woman,Right,0,13,0.4,2,0,180,180,0.3580236999987392,['y'],0.7822793000013917,1.714,654.1819619999987,,,,,509,18,Woman,Right,
,,,,,,,,,,,,,,,,,509,18,Woman,Right,0,10,0.4,1,180,-,180,0.8546176000018022,['n'],0.44616339999993215,1.6360000000000001,659.2154026999997,,,,,509,18,Woman,Right,
,,,,,,,,,,,,,,,,,509,18,Woman,Right,0,65,0.15,2,0,180,180,0.5824744999990799,['y'],0.5661259000007703,1.572,664.2483740999996,,,,,509,18,Woman,Right,
,,,,,,,,,,,,,,,,,509,18,Woman,Right,0,53,0.15,2,0,180,180,1.9939118000002054,['n'],0.7422282999978052,1.572,669.7648389999995,,,,,509,18,Woman,Right,
,,,,,,,,,,,,,,,,,509,18,Woman,Right,0,55,0.15,2,180,0,0,1.1430459000002884,['y'],0.6780536999976903,1.544,676.1486355999987,,,,,509,18,Woman,Right,
,,,,,,,,,,,,,,,,,509,18,Woman,Right,0,77,0.15,2,0,180,180,3.64910349999991,['n'],0.6630614999994577,1.23,683.7323283999976,,,,,509,18,Woman,Right,
,,,,,,,,,,,,,,,,,509,18,Woman,Right,0,28,0.4,1,0,-,0,0.6399512000025425,['n'],0.7342317999973602,1.5979999999999999,688.5982807,,,,,509,18,Woman,Right,
,,,,,,,,,,,,,,,,,509,18,Woman,Right,0,76,0.15,1,0,-,0,0.9734368999997969,['y'],0.9981497999979183,1.564,693.7481959999968,,,,,509,18,Woman,Right,
,,,,,,,,,,,,,,,,,509,18,Woman,Right,0,21,0.4,2,0,180,180,0.3215405999981158,['y'],1.366116699999111,1.764,698.4644752999993,,,,,509,18,Woman,Right,
,,,,,,,,,,,,,,,,,509,18,Woman,Right,0,32,0.4,1,0,-,180,0.5623310999981186,['y'],1.221831700000621,1.57,703.4484266999971,,,,,509,18,Woman,Right,
,,,,,,,,,,,,,,,,,509,18,Woman,Right,0,12,0.4,1,0,-,180,0.7595393000010517,['y'],0.4382633999994141,1.57,707.1987296999978,,,,,509,18,Woman,Right,
,,,,,,,,,,,,,,,,,509,18,Woman,Right,0,41,0.4,2,0,180,180,0.4168960999995761,['y'],0.9100945000027423,1.63,711.7814440000002,,,,,509,18,Woman,Right,
,,,,,,,,,,,,,,,,,509,18,Woman,Right,0,33,0.4,2,0,180,180,0.34328219999952125,['y'],0.6461318999972718,1.762,715.7981061999999,,,,,509,18,Woman,Right,
,,,,,,,,,,,,,,,,,509,18,Woman,Right,0,19,0.4,2,180,0,0,0.2888645000020915,['y'],0.7099393999997119,1.762,719.5653362999983,,,,,509,18,Woman,Right,
,,,,,,,,,,,,,,,,,509,18,Woman,Right,0,7,1,2,180,0,0,0.2348980999995547,['y'],0.7659049999965646,1.87,724.0819755999983,,,,,509,18,Woman,Right,
,,,,,,,,,,,,,,,,,509,18,Woman,Right,0,25,0.4,2,0,180,180,0.8287716999984696,['y'],0.8294664999993984,1.6440000000000001,729.2484375999993,,,,,509,18,Woman,Right,
,,,,,,,,,,,,,,,,,509,18,Woman,Right,0,64,0.15,1,0,-,0,1.026943900000333,['n'],1.5020890999985568,1.276,735.2987710999987,,,,,509,18,Woman,Right,
,,,,,,,,,,,,,,,,,509,18,Woman,Right,0,62,0.15,1,180,-,0,2.415813199997501,['y'],1.274507199999789,1.342,742.6475202999973,,,,,509,18,Woman,Right,
,,,,,,,,,,,,,,,,,509,18,Woman,Right,0,72,0.15,1,0,-,0,0.3476940000000468,['y'],1.430206899996847,1.3719999999999999,747.1315797999996,,,,,509,18,Woman,Right,
,,,,,,,,,,,,,,,,,509,18,Woman,Right,0,23,0.4,2,180,0,0,0.37104439999893657,['y'],0.8221395999971719,1.74,751.5980294999972,,,,,509,18,Woman,Right,
,,,,,,,,,,,,,,,,,509,18,Woman,Right,0,39,0.4,2,180,0,0,0.1065232000000833,['y'],1.4778590000023542,1.742,756.0652420999977,,,,,509,18,Woman,Right,
,,,,,,,,,,,,,,,,,509,18,Woman,Right,0,54,0.15,1,180,-,180,0.9980134000034013,['n'],1.0138354000009713,1.3319999999999999,761.3486653999971,,,,,509,18,Woman,Right,
,,,,,,,,,,,,,,,,,509,18,Woman,Right,0,66,0.15,1,180,-,0,0.4264432999989367,['y'],1.0541895999995177,1.552,765.9148271999984,,,,,509,18,Woman,Right,
,,,,,,,,,,,,,,,,,509,18,Woman,Right,0,11,0.4,2,180,0,0,0.24182359999758773,['y'],0.6058182000015222,1.702,769.3143277999989,,,,,509,18,Woman,Right,
,,,,,,,,,,,,,,,,,509,18,Woman,Right,0,40,0.4,1,0,-,180,0.9983609999981127,['y'],1.2382606999999552,1.566,774.8814456,,,,,509,18,Woman,Right,
,,,,,,,,,,,,,,,,,509,18,Woman,Right,0,15,0.4,2,180,0,0,0.17061590000230353,['y'],0.8458019999998214,1.736,779.3309383999986,,,,,509,18,Woman,Right,
,,,,,,,,,,,,,,,,,509,18,Woman,Right,0,0,1,1,0,-,0,0.5917657000027248,['n'],1.374156199999561,1.924,784.6651523,,,,,509,18,Woman,Right,
,,,,,,,,,,,,,,,,,509,18,Woman,Right,1,77,0.15,2,0,180,180,1.183301199998823,['y'],1.2106548999981896,1.696,819.5144747999984,78.75,75.0,85.0,,509,18,Woman,Right,
,,,,,,,,,,,,,,,,,509,18,Woman,Right,1,72,0.15,1,0,-,0,1.622099200001685,['n'],0.5577897000002849,1.3780000000000001,826.3486625999976,,,,,509,18,Woman,Right,
,,,,,,,,,,,,,,,,,509,18,Woman,Right,1,62,0.15,1,180,-,0,1.6276409999991301,['y'],1.5256105000007665,1.362,833.5814310999995,,,,,509,18,Woman,Right,
,,,,,,,,,,,,,,,,,509,18,Woman,Right,1,15,0.4,2,180,0,0,0.3115245999979379,['y'],0.8537634999993315,1.6280000000000001,838.930948199999,,,,,509,18,Woman,Right,
,,,,,,,,,,,,,,,,,509,18,Woman,Right,1,34,0.4,1,180,-,180,1.0293453999984195,['n'],0.6378304999998363,1.56,843.8981937999997,,,,,509,18,Woman,Right,
,,,,,,,,,,,,,,,,,509,18,Woman,Right,1,44,0.15,1,0,-,180,0.541537299999618,['y'],0.39809429999877466,1.436,848.4809236999972,,,,,509,18,Woman,Right,
,,,,,,,,,,,,,,,,,509,18,Woman,Right,1,41,0.4,2,0,180,180,0.7895391000020027,['y'],0.7499112999976205,1.744,853.0633041000001,,,,,509,18,Woman,Right,
,,,,,,,,,,,,,,,,,509,18,Woman,Right,1,36,0.4,1,0,-,0,1.042974599997251,['n'],1.5097026000003098,1.596,858.5144462999997,,,,,509,18,Woman,Right,
,,,,,,,,,,,,,,,,,509,18,Woman,Right,1,0,1,1,0,-,0,0.7243057000014232,['n'],2.0537864999969315,1.712,864.5470026000003,,,,,509,18,Woman,Right,
,,,,,,,,,,,,,,,,,509,18,Woman,Right,1,35,0.4,2,180,0,0,0.6136146999997436,['y'],0.717812300001242,1.712,868.3468675999975,,,,,509,18,Woman,Right,
,,,,,,,,,,,,,,,,,509,18,Woman,Right,1,26,0.4,1,180,-,180,0.8240184999995108,['n'],0.4378093000013905,1.584,872.9808300999975,,,,,509,18,Woman,Right,
,,,,,,,,,,,,,,,,,509,18,Woman,Right,1,54,0.15,1,180,-,180,0.521679800000129,['n'],1.045119700000214,1.458,877.8985163999969,,,,,509,18,Woman,Right,
,,,,,,,,,,,,,,,,,509,18,Woman,Right,1,46,0.15,1,180,-,180,0.5663722999997844,['n'],0.6458622999998624,1.45,882.0327345999976,,,,,509,18,Woman,Right,
,,,,,,,,,,,,,,,,,509,18,Woman,Right,1,45,0.15,2,0,180,180,1.0857872999986284,['y'],0.597580999998172,1.472,887.2971332999987,,,,,509,18,Woman,Right,
,,,,,,,,,,,,,,,,,509,18,Woman,Right,1,73,0.15,2,0,180,180,0.7520036000023538,['y'],0.7254436999974132,1.576,891.6478035999971,,,,,509,18,Woman,Right,
,,,,,,,,,,,,,,,,,509,18,Woman,Right,1,8,0.4,1,0,-,0,0.5615497000035248,['n'],1.061653299999307,1.56,899.0972310999969,,,,,509,18,Woman,Right,
,,,,,,,,,,,,,,,,,509,18,Woman,Right,1,50,0.15,1,180,-,0,3.6512978999999177,['n'],1.5418372999993153,1.188,908.3982899999974,,,,,509,18,Woman,Right,
,,,,,,,,,,,,,,,,,509,18,Woman,Right,1,28,0.4,1,0,-,0,0.4459261999982118,['n'],0.7735448999992514,1.5819999999999999,912.6139086999974,,,,,509,18,Woman,Right,
,,,,,,,,,,,,,,,,,509,18,Woman,Right,1,27,0.4,2,180,0,0,0.42652190000080736,['y'],0.605720300001849,1.68,916.4803474999972,,,,,509,18,Woman,Right,
,,,,,,,,,,,,,,,,,509,18,Woman,Right,1,42,0.4,1,180,-,180,0.5662265999999363,['n'],0.7032824999987497,1.62,921.1135089999989,,,,,509,18,Woman,Right,
,,,,,,,,,,,,,,,,,509,18,Woman,Right,1,1,1,2,0,180,180,0.6824565999995684,['y'],3.011745999996492,1.772,928.5967249999994,,,,,509,18,Woman,Right,
,,,,,,,,,,,,,,,,,509,18,Woman,Right,1,78,0.15,1,180,-,0,0.8186642000000575,['y'],0.6135571999984677,1.6600000000000001,933.263077399999,,,,,509,18,Woman,Right,
,,,,,,,,,,,,,,,,,509,18,Woman,Right,1,22,0.4,1,180,-,180,0.5072563000030641,['n'],0.573796399999992,1.576,937.5139939000001,,,,,509,18,Woman,Right,
,,,,,,,,,,,,,,,,,509,18,Woman,Right,1,56,0.15,1,0,-,0,2.3156956999991962,['y'],0.7415132999994967,1.576,943.6800060999994,,,,,509,18,Woman,Right,
,,,,,,,,,,,,,,,,,509,18,Woman,Right,1,31,0.4,2,180,0,0,0.6424565000015718,['y'],0.7088584000011906,1.624,947.7967130999969,,,,,509,18,Woman,Right,
,,,,,,,,,,,,,,,,,509,18,Woman,Right,1,60,0.15,1,0,-,180,6.267287700000452,['y'],2.9571448000024247,1.264,960.9466031999982,,,,,509,18,Woman,Right,
,,,,,,,,,,,,,,,,,509,18,Woman,Right,1,61,0.15,2,0,180,180,1.1224392000003718,['y'],1.0287179999977525,1.262,966.480712499997,,,,,509,18,Woman,Right,
,,,,,,,,,,,,,,,,,509,18,Woman,Right,1,52,0.15,1,0,-,180,3.073258700002043,['y'],0.9334335999992618,1.262,972.9639556000002,,,,,509,18,Woman,Right,
,,,,,,,,,,,,,,,,,509,18,Woman,Right,1,55,0.15,2,180,0,0,0.566001099999994,['y'],3.221414100000402,1.164,980.5296977999969,,,,,509,18,Woman,Right,
,,,,,,,,,,,,,,,,,509,18,Woman,Right,1,39,0.4,2,180,0,0,0.5327534999996715,['y'],1.0607168999995338,1.642,986.0970183999998,,,,,509,18,Woman,Right,
,,,,,,,,,,,,,,,,,509,18,Woman,Right,1,23,0.4,2,180,0,0,0.43234170000141603,['y'],0.813326400002552,1.642,990.1809321999972,,,,,509,18,Woman,Right,
,,,,,,,,,,,,,,,,,509,18,Woman,Right,1,48,0.15,1,0,-,180,1.1644201000017347,['n'],1.165189499999542,1.4060000000000001,995.9314008000001,,,,,509,18,Woman,Right,
,,,,,,,,,,,,,,,,,509,18,Woman,Right,1,38,0.4,1,180,-,180,0.6679289000021527,['n'],1.2529375000012806,1.44,1002.3637885999997,,,,,509,18,Woman,Right,
,,,,,,,,,,,,,,,,,509,18,Woman,Right,1,19,0.4,2,180,0,0,0.4333267000001797,['y'],0.6534051999988151,1.692,1007.3640130999993,,,,,509,18,Woman,Right,
,,,,,,,,,,,,,,,,,509,18,Woman,Right,1,65,0.15,2,0,180,180,1.0157954000023892,['y'],0.4532811999997648,1.592,1012.3638465000004,,,,,509,18,Woman,Right,
,,,,,,,,,,,,,,,,,509,18,Woman,Right,1,66,0.15,1,180,-,180,1.284369200002402,['n'],1.3094864999984566,1.6019999999999999,1018.2629973999974,,,,,509,18,Woman,Right,
,,,,,,,,,,,,,,,,,509,18,Woman,Right,1,33,0.4,2,0,180,180,1.1898152000030677,['y'],2.317540600000939,1.692,1025.130398399997,,,,,509,18,Woman,Right,
,,,,,,,,,,,,,,,,,509,18,Woman,Right,1,5,1,2,0,180,180,0.5071616000022914,['y'],0.8693029999994906,1.8719999999999999,1030.3463417999992,,,,,509,18,Woman,Right,
,,,,,,,,,,,,,,,,,509,18,Woman,Right,1,76,0.15,1,0,-,0,0.6217985999974189,['n'],0.7734944000003452,1.79,1035.0967533000003,,,,,509,18,Woman,Right,
,,,,,,,,,,,,,,,,,509,18,Woman,Right,1,43,0.4,2,180,0,0,0.8824951000024157,['y'],0.9028238999999303,1.744,1040.963627899997,,,,,509,18,Woman,Right,
,,,,,,,,,,,,,,,,,509,18,Woman,Right,1,16,0.4,1,0,-,0,0.4497787000000244,['n'],0.8042361999978311,1.68,1047.3805455000002,,,,,509,18,Woman,Right,
,,,,,,,,,,,,,,,,,509,18,Woman,Right,1,9,0.4,2,0,180,180,0.33672639999713283,['y'],1.8774448000003758,1.76,1053.3461647999975,,,,,509,18,Woman,Right,
,,,,,,,,,,,,,,,,,509,18,Woman,Right,1,67,0.15,2,180,0,180,0.8567569999977422,['n'],0.6212212000027648,1.694,1058.029747499997,,,,,509,18,Woman,Right,
,,,,,,,,,,,,,,,,,509,18,Woman,Right,1,37,0.4,2,0,180,180,0.32072319999861065,['y'],0.6205200999975204,1.76,1061.8638353999995,,,,,509,18,Woman,Right,
,,,,,,,,,,,,,,,,,509,18,Woman,Right,1,30,0.4,1,180,-,180,0.3064448999975866,['n'],1.2692262000018673,1.6360000000000001,1066.7462003,,,,,509,18,Woman,Right,
,,,,,,,,,,,,,,,,,509,18,Woman,Right,1,25,0.4,2,0,180,180,0.3234496000004583,['y'],0.5970484999998007,1.768,1070.3805464999969,,,,,509,18,Woman,Right,
,,,,,,,,,,,,,,,,,509,18,Woman,Right,1,59,0.15,2,180,0,180,1.4870460999991337,['y'],1.19683349999832,1.38,1076.4634861999984,,,,,509,18,Woman,Right,
,,,,,,,,,,,,,,,,,509,18,Woman,Right,1,4,1,1,0,-,0,0.46975380000003497,['n'],0.8771926999979769,1.874,1081.0137482999999,,,,,509,18,Woman,Right,
,,,,,,,,,,,,,,,,,509,18,Woman,Right,1,64,0.15,1,0,-,0,1.6083367000028375,['n'],1.021296099999745,1.334,1087.179037599999,,,,,509,18,Woman,Right,
,,,,,,,,,,,,,,,,,509,18,Woman,Right,1,13,0.4,2,0,180,180,1.06332090000069,['y'],0.7727447999968717,1.556,1093.1468231,,,,,509,18,Woman,Right,
,,,,,,,,,,,,,,,,,509,18,Woman,Right,1,53,0.15,2,0,180,180,1.5864589999982854,['y'],0.6608679000019038,1.4,1098.6969900999975,,,,,509,18,Woman,Right,
,,,,,,,,,,,,,,,,,509,18,Woman,Right,1,11,0.4,2,180,0,0,0.32547519999934593,['y'],0.7412666000018362,1.65,1103.1796204999991,,,,,509,18,Woman,Right,
,,,,,,,,,,,,,,,,,509,18,Woman,Right,1,7,1,2,180,0,0,0.2824350000009872,['y'],0.7049910999994609,1.8820000000000001,1106.6803029000002,,,,,509,18,Woman,Right,
,,,,,,,,,,,,,,,,,509,18,Woman,Right,1,75,0.15,2,180,0,0,0.5756130999980087,['y'],0.7891649999983201,1.3820000000000001,1111.4468893999983,,,,,509,18,Woman,Right,
,,,,,,,,,,,,,,,,,509,18,Woman,Right,1,2,1,1,180,-,180,0.5402982000014163,['n'],0.7892008000017086,1.798,1116.7641011999985,,,,,509,18,Woman,Right,
,,,,,,,,,,,,,,,,,509,18,Woman,Right,1,24,0.4,1,0,-,0,0.33499680000022636,['n'],1.0448488000001817,1.676,1123.4136357999996,,,,,509,18,Woman,Right,
,,,,,,,,,,,,,,,,,509,18,Woman,Right,1,29,0.4,2,0,180,180,0.4637293999985559,['y'],0.6849985000008019,1.8,1127.2466897999984,,,,,509,18,Woman,Right,
,,,,,,,,,,,,,,,,,509,18,Woman,Right,1,3,1,2,180,0,0,0.4942910000027041,['y'],0.5653001999999105,1.802,1130.7797520999993,,,,,509,18,Woman,Right,
,,,,,,,,,,,,,,,,,509,18,Woman,Right,1,57,0.15,2,0,180,0,0.525692799998069,['n'],0.7169553000021551,1.4,1136.0800853,,,,,509,18,Woman,Right,
,,,,,,,,,,,,,,,,,509,18,Woman,Right,1,47,0.15,2,180,0,180,2.4217300999989675,['y'],1.0849914000027638,1.192,1143.2126680000001,,,,,509,18,Woman,Right,
,,,,,,,,,,,,,,,,,509,18,Woman,Right,1,58,0.15,1,180,-,0,0.4927337000008265,['y'],1.6049942999998166,1.1219999999999999,1148.4800600999988,,,,,509,18,Woman,Right,
,,,,,,,,,,,,,,,,,509,18,Woman,Right,1,40,0.4,1,0,-,0,0.3603210000001127,['n'],0.9805137000003015,1.564,1153.7128803999985,,,,,509,18,Woman,Right,
,,,,,,,,,,,,,,,,,509,18,Woman,Right,1,12,0.4,1,0,-,0,0.5438150000009045,['n'],0.7411930999987817,1.6,1158.263400099997,,,,,509,18,Woman,Right,
,,,,,,,,,,,,,,,,,509,18,Woman,Right,1,49,0.15,2,0,180,180,1.5071459000027971,['n'],1.259907600000588,1.282,1164.5622090999968,,,,,509,18,Woman,Right,
,,,,,,,,,,,,,,,,,509,18,Woman,Right,1,6,1,1,180,-,180,0.9337641000020085,['n'],0.772866499999509,1.728,1169.1957853999993,,,,,509,18,Woman,Right,
,,,,,,,,,,,,,,,,,509,18,Woman,Right,1,69,0.15,2,0,180,180,0.5467990999968606,['y'],1.7007741999987047,1.584,1174.8457996999969,,,,,509,18,Woman,Right,
,,,,,,,,,,,,,,,,,509,18,Woman,Right,1,63,0.15,2,180,0,0,1.7593134999988251,['y'],2.8369966999998724,1.366,1182.5296907999982,,,,,509,18,Woman,Right,
,,,,,,,,,,,,,,,,,509,18,Woman,Right,1,70,0.15,1,180,-,180,0.5549472000020614,['y'],0.7327423999995517,1.534,1187.5291029,,,,,509,18,Woman,Right,
,,,,,,,,,,,,,,,,,509,18,Woman,Right,1,71,0.15,2,180,0,180,2.776698400000896,['y'],1.8849110000010114,1.172,1196.0454585999978,,,,,509,18,Woman,Right,
,,,,,,,,,,,,,,,,,509,18,Woman,Right,1,20,0.4,1,0,-,0,0.9228045999989263,['n'],0.9882660999974178,1.536,1202.295495399998,,,,,509,18,Woman,Right,
,,,,,,,,,,,,,,,,,509,18,Woman,Right,1,32,0.4,1,0,-,0,1.17000619999817,['n'],1.2690559000002395,1.302,1208.7628538999998,,,,,509,18,Woman,Right,
,,,,,,,,,,,,,,,,,509,18,Woman,Right,1,14,0.4,1,180,-,180,0.3616072000004351,['n'],0.9004910000003292,1.764,1213.9302673999991,,,,,509,18,Woman,Right,
,,,,,,,,,,,,,,,,,509,18,Woman,Right,1,18,0.4,1,180,-,180,0.8575498000027437,['n'],1.036938299999747,1.5739999999999998,1219.445231499998,,,,,509,18,Woman,Right,
,,,,,,,,,,,,,,,,,509,18,Woman,Right,1,79,0.15,2,180,0,180,2.8330771999972058,['n'],0.4314142000002903,1.088,1226.196489799997,,,,,509,18,Woman,Right,
,,,,,,,,,,,,,,,,,509,18,Woman,Right,1,68,0.15,1,0,-,0,0.39260689999719034,['n'],1.7486279000004288,1.324,1232.2293985999968,,,,,509,18,Woman,Right,
,,,,,,,,,,,,,,,,,509,18,Woman,Right,1,21,0.4,2,0,180,180,1.287596999998641,['y'],0.8287368000019342,1.684,1237.362008199998,,,,,509,18,Woman,Right,
,,,,,,,,,,,,,,,,,509,18,Woman,Right,1,17,0.4,2,0,180,180,0.46032349999950384,['y'],0.6927969999997003,1.684,1241.4958066,,,,,509,18,Woman,Right,
,,,,,,,,,,,,,,,,,509,18,Woman,Right,1,51,0.15,2,180,0,180,0.4214113999987603,['n'],0.5649807000008877,1.566,1245.2625931999974,,,,,509,18,Woman,Right,
,,,,,,,,,,,,,,,,,509,18,Woman,Right,1,10,0.4,1,180,-,180,0.4975693999986106,['n'],0.581017199998314,1.688,1249.4624079999994,,,,,509,18,Woman,Right,
,,,,,,,,,,,,,,,,,509,18,Woman,Right,1,74,0.15,1,180,-,180,0.6657491999976628,['n'],0.35667319999993197,1.688,1252.7295852999996,,,,,509,18,Woman,Right,
,,,,,,,,,,,,,,,,,509,18,Woman,Right,2,49,0.15,2,0,180,180,0.7283738000005542,['n'],0.7488212999996904,1.712,1268.3297448999983,81.25,80.0,87.5,,509,18,Woman,Right,
,,,,,,,,,,,,,,,,,509,18,Woman,Right,2,40,0.4,1,0,-,0,0.5732281999989937,['n'],0.8124662999980501,1.714,1271.9958144999982,,,,,509,18,Woman,Right,
,,,,,,,,,,,,,,,,,509,18,Woman,Right,2,3,1,2,180,0,0,0.5522971999998845,['y'],0.9887005999989924,1.9060000000000001,1276.6628988999983,,,,,509,18,Woman,Right,
,,,,,,,,,,,,,,,,,509,18,Woman,Right,2,15,0.4,2,180,0,0,0.3657086999992316,['y'],0.9742460999987088,1.9060000000000001,1280.4622858000002,,,,,509,18,Woman,Right,
,,,,,,,,,,,,,,,,,509,18,Woman,Right,2,14,0.4,1,180,-,180,0.8718475999994553,['n'],1.2927364999995916,1.676,1285.779497399999,,,,,509,18,Woman,Right,
,,,,,,,,,,,,,,,,,509,18,Woman,Right,2,12,0.4,1,0,-,0,0.3725726999982726,['n'],0.8686804999997548,1.676,1289.279003399999,,,,,509,18,Woman,Right,
,,,,,,,,,,,,,,,,,509,18,Woman,Right,2,58,0.15,1,180,-,180,0.3419844000018202,['n'],2.3807147000006808,1.396,1295.0960831999982,,,,,509,18,Woman,Right,
,,,,,,,,,,,,,,,,,509,18,Woman,Right,2,47,0.15,2,180,0,0,0.4072501000009652,['y'],0.8606519000022672,1.562,1299.3450978,,,,,509,18,Woman,Right,
,,,,,,,,,,,,,,,,,509,18,Woman,Right,2,20,0.4,1,0,-,0,0.60822090000147,['n'],0.4848047999985283,1.794,1303.9287130999983,,,,,509,18,Woman,Right,
,,,,,,,,,,,,,,,,,509,18,Woman,Right,2,52,0.15,1,0,-,180,0.5605982999986736,['n'],0.5400938999991922,1.416,1308.2959755999982,,,,,509,18,Woman,Right,
,,,,,,,,,,,,,,,,,509,18,Woman,Right,2,69,0.15,2,0,180,180,1.7289584999998624,['y'],0.89255459999913,1.412,1313.928337399997,,,,,509,18,Woman,Right,
,,,,,,,,,,,,,,,,,509,18,Woman,Right,2,61,0.15,2,0,180,180,1.204429399997025,['y'],3.244684799999959,1.426,1321.1782988999985,,,,,509,18,Woman,Right,
,,,,,,,,,,,,,,,,,509,18,Woman,Right,2,19,0.4,2,180,0,0,0.3467713999998523,['y'],1.3326554999985092,1.728,1325.5134634999995,,,,,509,18,Woman,Right,
,,,,,,,,,,,,,,,,,509,18,Woman,Right,2,2,1,1,180,-,180,0.3929686000010406,['n'],0.5963121999993746,1.748,1329.9959796999974,,,,,509,18,Woman,Right,
,,,,,,,,,,,,,,,,,509,18,Woman,Right,2,35,0.4,2,180,0,0,0.376707899999019,['y'],0.6520352999978059,1.718,1333.6288884999994,,,,,509,18,Woman,Right,
,,,,,,,,,,,,,,,,,509,18,Woman,Right,2,72,0.15,1,0,-,0,0.9564263000029314,['n'],1.724456800002372,1.6,1339.4788595999999,,,,,509,18,Woman,Right,
,,,,,,,,,,,,,,,,,509,18,Woman,Right,2,79,0.15,2,180,0,180,0.5805732000007993,['n'],0.7164984000010008,1.548,1344.0791788999995,,,,,509,18,Woman,Right,
,,,,,,,,,,,,,,,,,509,18,Woman,Right,2,45,0.15,2,0,180,180,0.5475579000012658,['y'],0.7645344999982626,1.634,1348.3959727000001,,,,,509,18,Woman,Right,
,,,,,,,,,,,,,,,,,509,18,Woman,Right,2,21,0.4,2,0,180,180,0.6523806000004697,['y'],0.524532100000215,1.792,1352.1956258999999,,,,,509,18,Woman,Right,
,,,,,,,,,,,,,,,,,509,18,Woman,Right,2,31,0.4,2,180,0,0,0.4183800999999221,['y'],0.6199758000002475,1.812,1356.1456932,,,,,509,18,Woman,Right,
,,,,,,,,,,,,,,,,,509,18,Woman,Right,2,70,0.15,1,180,-,180,0.4708768999989843,['n'],0.8119384999990871,1.556,1361.7789333,,,,,509,18,Woman,Right,
,,,,,,,,,,,,,,,,,509,18,Woman,Right,2,17,0.4,2,0,180,180,0.3352243000008457,['y'],0.5321183999985806,1.798,1365.0624809,,,,,509,18,Woman,Right,
,,,,,,,,,,,,,,,,,509,18,Woman,Right,2,66,0.15,1,180,-,180,0.3734937999979593,['n'],0.4920261999977811,1.674,1368.696229899997,,,,,509,18,Woman,Right,
,,,,,,,,,,,,,,,,,509,18,Woman,Right,2,34,0.4,1,180,-,180,0.938778399999137,['n'],0.7717336000023352,1.682,1373.6786784999967,,,,,509,18,Woman,Right,
,,,,,,,,,,,,,,,,,509,18,Woman,Right,2,33,0.4,2,0,180,180,0.33886509999865666,['y'],0.5084873999985575,1.81,1376.9446609999977,,,,,509,18,Woman,Right,
,,,,,,,,,,,,,,,,,509,18,Woman,Right,2,10,0.4,1,180,-,180,0.8051540999986173,['n'],0.4765683000005083,1.684,1380.761980899999,,,,,509,18,Woman,Right,
,,,,,,,,,,,,,,,,,509,18,Woman,Right,2,48,0.15,1,0,-,0,0.9996467000019038,['n'],0.9161348000016005,1.584,1386.0787892999979,,,,,509,18,Woman,Right,
,,,,,,,,,,,,,,,,,509,18,Woman,Right,2,39,0.4,2,180,0,0,0.3470912999982829,['y'],0.6203864999988582,1.584,1386.0787892999979,,,,,509,18,Woman,Right,
,,,,,,,,,,,,,,,,,509,18,Woman,Right,2,38,0.4,1,180,-,180,0.561009600001853,['n'],0.5799219000000448,1.74,1393.629026999999,,,,,509,18,Woman,Right,
,,,,,,,,,,,,,,,,,509,18,Woman,Right,2,13,0.4,2,0,180,180,0.38104220000241185,['y'],0.7486609000006865,1.802,1397.313357199997,,,,,509,18,Woman,Right,
,,,,,,,,,,,,,,,,,509,18,Woman,Right,2,42,0.4,1,180,-,180,0.3755845000014233,['n'],0.6443770000005316,1.6680000000000001,1401.1610404999992,,,,,509,18,Woman,Right,
,,,,,,,,,,,,,,,,,509,18,Woman,Right,2,22,0.4,1,180,-,180,0.3659230999983265,['n'],1.044324399998004,1.718,1405.3122890999985,,,,,509,18,Woman,Right,
,,,,,,,,,,,,,,,,,509,18,Woman,Right,2,30,0.4,1,180,-,180,0.3686576000000059,['n'],0.39638489999924786,1.718,1408.362246599998,,,,,509,18,Woman,Right,
,,,,,,,,,,,,,,,,,509,18,Woman,Right,2,73,0.15,2,0,180,180,1.1712272000004305,['y'],0.5882616000017151,1.438,1413.1783045999982,,,,,509,18,Woman,Right,
,,,,,,,,,,,,,,,,,509,18,Woman,Right,2,24,0.4,1,0,-,0,0.530332800000906,['n'],0.7720459999982268,1.564,1417.028068599997,,,,,509,18,Woman,Right,
,,,,,,,,,,,,,,,,,509,18,Woman,Right,2,44,0.15,1,0,-,0,0.7939249000010022,['n'],1.3083379000017885,1.24,1422.0443210999983,,,,,509,18,Woman,Right,
,,,,,,,,,,,,,,,,,509,18,Woman,Right,2,75,0.15,2,180,0,180,1.3322281000000658,['n'],1.7880565999985265,1.236,1427.6947187999976,,,,,509,18,Woman,Right,
,,,,,,,,,,,,,,,,,509,18,Woman,Right,2,11,0.4,2,180,0,0,0.2732190000024275,['y'],0.7083203000001959,1.736,1431.1948556999996,,,,,509,18,Woman,Right,
,,,,,,,,,,,,,,,,,509,18,Woman,Right,2,55,0.15,2,180,0,180,0.6592143999987456,['n'],0.5801199999987148,1.55,1435.9123099999997,,,,,509,18,Woman,Right,
,,,,,,,,,,,,,,,,,509,18,Woman,Right,2,64,0.15,1,0,-,180,0.65138499999739,['n'],0.644194399999833,1.146,1441.5108395999996,,,,,509,18,Woman,Right,
,,,,,,,,,,,,,,,,,509,18,Woman,Right,2,67,0.15,2,180,0,180,1.2656929999975546,['n'],1.4599426999993739,1.178,1446.8773521000003,,,,,509,18,Woman,Right,
,,,,,,,,,,,,,,,,,509,18,Woman,Right,2,60,0.15,1,0,-,0,1.083183899998403,['y'],0.4598043999976653,1.116,1452.445602599997,,,,,509,18,Woman,Right,
,,,,,,,,,,,,,,,,,509,18,Woman,Right,2,46,0.15,1,180,-,180,0.6912059999995108,['n'],0.49986730000091484,1.21,1456.8283902999974,,,,,509,18,Woman,Right,
,,,,,,,,,,,,,,,,,509,18,Woman,Right,2,28,0.4,1,0,-,0,0.8657725000011851,['n'],3.4879275000021153,1.4100000000000001,1464.527887999997,,,,,509,18,Woman,Right,
,,,,,,,,,,,,,,,,,509,18,Woman,Right,2,51,0.15,2,180,0,0,0.5661036999990756,['y'],0.944273199998861,1.266,1469.0440498999997,,,,,509,18,Woman,Right,
,,,,,,,,,,,,,,,,,509,18,Woman,Right,2,78,0.15,1,180,-,0,0.49374580000221613,['y'],0.8838560000003781,1.362,1473.7781243999998,,,,,509,18,Woman,Right,
,,,,,,,,,,,,,,,,,509,18,Woman,Right,2,50,0.15,1,180,-,180,0.46958119999908376,['n'],0.7163235000007262,1.342,1478.0286654999982,,,,,509,18,Woman,Right,
,,,,,,,,,,,,,,,,,509,18,Woman,Right,2,7,1,2,180,0,0,0.5782050999987405,['y'],0.7321401000008336,1.704,1482.0453523999968,,,,,509,18,Woman,Right,
,,,,,,,,,,,,,,,,,509,18,Woman,Right,2,43,0.4,2,180,0,0,0.41901510000025155,['y'],0.7075177000006079,1.6360000000000001,1486.1118713999967,,,,,509,18,Woman,Right,
,,,,,,,,,,,,,,,,,509,18,Woman,Right,2,74,0.15,1,180,-,0,0.871435000000929,['y'],0.4763234999991255,1.55,1490.0952456999985,,,,,509,18,Woman,Right,
,,,,,,,,,,,,,,,,,509,18,Woman,Right,2,8,0.4,1,0,-,0,0.3732399999971676,['n'],0.7073393999999098,1.556,1493.8282072000002,,,,,509,18,Woman,Right,
,,,,,,,,,,,,,,,,,509,18,Woman,Right,2,57,0.15,2,0,180,180,0.39415159999771276,['y'],1.8036936999997124,1.57,1498.977213299997,,,,,509,18,Woman,Right,
,,,,,,,,,,,,,,,,,509,18,Woman,Right,2,23,0.4,2,180,0,0,0.36862289999771747,['y'],0.6676647999993293,1.72,1502.711766999997,,,,,509,18,Woman,Right,
,,,,,,,,,,,,,,,,,509,18,Woman,Right,2,77,0.15,2,0,180,180,0.7993463000020711,['y'],0.8034984999976587,1.568,1507.0280593999996,,,,,509,18,Woman,Right,
,,,,,,,,,,,,,,,,,509,18,Woman,Right,2,71,0.15,2,180,0,0,1.9065430000009655,['n'],0.827212000000145,1.434,1512.8285507,,,,,509,18,Woman,Right,
,,,,,,,,,,,,,,,,,509,18,Woman,Right,2,53,0.15,2,0,180,180,1.2947282999994059,['y'],0.5557090000002063,1.546,1518.061848399997,,,,,509,18,Woman,Right,
,,,,,,,,,,,,,,,,,509,18,Woman,Right,2,76,0.15,1,0,-,180,0.6435381999981473,['n'],1.2114711000031093,1.4100000000000001,1523.0278191999969,,,,,509,18,Woman,Right,
,,,,,,,,,,,,,,,,,509,18,Woman,Right,2,16,0.4,1,0,-,0,0.2961886000011873,['n'],1.2117935000023863,1.634,1527.5773474999987,,,,,509,18,Woman,Right,
,,,,,,,,,,,,,,,,,509,18,Woman,Right,2,59,0.15,2,180,0,180,1.5325157000006584,['y'],2.0354270999996515,1.366,1533.977350899997,,,,,509,18,Woman,Right,
,,,,,,,,,,,,,,,,,509,18,Woman,Right,2,32,0.4,1,0,-,180,5.029124100001354,['y'],0.7876021000010951,1.37,1542.9441272000004,,,,,509,18,Woman,Right,
,,,,,,,,,,,,,,,,,509,18,Woman,Right,2,5,1,2,0,180,180,0.8962333999988914,['y'],0.7874823000020115,1.832,1548.0112266999968,,,,,509,18,Woman,Right,
,,,,,,,,,,,,,,,,,509,18,Woman,Right,2,18,0.4,1,180,-,180,0.7358734000008553,['n'],0.4755900999989535,1.82,1552.311687399997,,,,,509,18,Woman,Right,
,,,,,,,,,,,,,,,,,509,18,Woman,Right,2,26,0.4,1,180,-,180,0.5653607000022021,['n'],1.1559911000003922,1.69,1556.9776626999992,,,,,509,18,Woman,Right,
,,,,,,,,,,,,,,,,,509,18,Woman,Right,2,62,0.15,1,180,-,180,1.7578229000027932,['n'],0.6112901999986207,1.584,1561.961115099999,,,,,509,18,Woman,Right,
,,,,,,,,,,,,,,,,,509,18,Woman,Right,2,25,0.4,2,0,180,180,0.6064206999981252,['y'],0.5241180000011809,1.764,1565.6777594999985,,,,,509,18,Woman,Right,
,,,,,,,,,,,,,,,,,509,18,Woman,Right,2,56,0.15,1,0,-,0,0.7239540000009583,['n'],0.7155259000028309,1.584,1569.8944499999998,,,,,509,18,Woman,Right,
,,,,,,,,,,,,,,,,,509,18,Woman,Right,2,41,0.4,2,0,180,180,0.37536659999750555,['y'],0.5000061999999161,1.702,1573.3109044999983,,,,,509,18,Woman,Right,
,,,,,,,,,,,,,,,,,509,18,Woman,Right,2,1,1,2,0,180,180,0.8194307000012486,['y'],0.6598267999979726,1.782,1579.128976699998,,,,,509,18,Woman,Right,
,,,,,,,,,,,,,,,,,509,18,Woman,Right,2,63,0.15,2,180,0,0,0.8013893999996071,['y'],0.5715248999986215,1.6099999999999999,1583.0281624999989,,,,,509,18,Woman,Right,
,,,,,,,,,,,,,,,,,509,18,Woman,Right,2,36,0.4,1,0,-,0,0.6448588999992353,['n'],0.36307619999934104,1.672,1586.9778363999976,,,,,509,18,Woman,Right,
,,,,,,,,,,,,,,,,,509,18,Woman,Right,2,6,1,1,180,-,180,0.5777904999995371,['n'],0.763744100000622,1.79,1591.444660199999,,,,,509,18,Woman,Right,
,,,,,,,,,,,,,,,,,509,18,Woman,Right,2,54,0.15,1,180,-,180,1.8890668999993068,['y'],1.0279537999995227,1.268,1597.5276959999974,,,,,509,18,Woman,Right,
,,,,,,,,,,,,,,,,,509,18,Woman,Right,2,37,0.4,2,0,180,180,0.6352331999987655,['y'],0.4114995000018098,1.5899999999999999,1601.4779185999978,,,,,509,18,Woman,Right,
,,,,,,,,,,,,,,,,,509,18,Woman,Right,2,29,0.4,2,0,180,180,1.1008189999993192,['y'],0.4999595999979647,1.5899999999999999,1605.3436095999969,,,,,509,18,Woman,Right,
,,,,,,,,,,,,,,,,,509,18,Woman,Right,2,9,0.4,2,0,180,180,0.3663538000000699,['y'],0.47567830000116373,1.592,1608.5603278999988,,,,,509,18,Woman,Right,
,,,,,,,,,,,,,,,,,509,18,Woman,Right,2,4,1,1,0,-,0,0.2267202000002726,['n'],0.84382689999984,1.782,1612.7439605,,,,,509,18,Woman,Right,
,,,,,,,,,,,,,,,,,509,18,Woman,Right,2,27,0.4,2,180,0,0,0.43372370000361116,['y'],0.49910470000031637,1.5819999999999999,1616.5107263999998,,,,,509,18,Woman,Right,
,,,,,,,,,,,,,,,,,509,18,Woman,Right,2,68,0.15,1,0,-,0,2.810486700000183,['y'],1.8755570000030275,1.232,1623.811480299999,,,,,509,18,Woman,Right,
,,,,,,,,,,,,,,,,,509,18,Woman,Right,2,65,0.15,2,0,180,180,3.276419199999509,['y'],1.2830271999991965,1.404,1631.3278551999974,,,,,509,18,Woman,Right,
,,,,,,,,,,,,,,,,,509,18,Woman,Right,2,0,1,1,0,-,0,0.43370490000233985,['n'],0.9798399999999674,1.786,1636.0110693999995,,,,,509,18,Woman,Right,
,,,,,,,,,,,,,,,,,509,18,Woman,Right,3,53,0.15,2,0,180,180,1.6660056999971857,['y'],1.5389224999998987,1.6059999999999999,1649.1110157999974,86.25,85.0,85.0,,509,18,Woman,Right,
,,,,,,,,,,,,,,,,,509,18,Woman,Right,3,65,0.15,2,0,180,180,1.1978120999992825,['y'],0.36306229999900097,1.3860000000000001,1653.6106734999994,,,,,509,18,Woman,Right,
,,,,,,,,,,,,,,,,,509,18,Woman,Right,3,64,0.15,1,0,-,180,3.580748099997436,['y'],0.7473036000010325,1.422,1660.6268565999999,,,,,509,18,Woman,Right,
,,,,,,,,,,,,,,,,,509,18,Woman,Right,3,60,0.15,1,0,-,180,1.8778057000017725,['y'],0.37921950000236393,1.33,1665.8611450999997,,,,,509,18,Woman,Right,
,,,,,,,,,,,,,,,,,509,18,Woman,Right,3,10,0.4,1,180,-,180,0.7143252999994729,['n'],0.34737719999975525,1.624,1670.9110007999989,,,,,509,18,Woman,Right,
,,,,,,,,,,,,,,,,,509,18,Woman,Right,3,4,1,1,0,-,0,0.3463804999992135,['y'],0.5877799000008963,1.422,1682.927212399998,,,,,509,18,Woman,Right,
,,,,,,,,,,,,,,,,,509,18,Woman,Right,3,56,0.15,1,0,-,0,3.0467238999990514,['y'],1.2187660000017786,1.4140000000000001,1690.7434197000002,,,,,509,18,Woman,Right,
,,,,,,,,,,,,,,,,,509,18,Woman,Right,3,26,0.4,1,180,-,180,0.8226540999967256,['n'],0.8037000999975135,1.68,1695.8099434999967,,,,,509,18,Woman,Right,
,,,,,,,,,,,,,,,,,509,18,Woman,Right,3,42,0.4,1,180,-,180,1.4325013999987277,['n'],0.5918058999995992,1.556,1702.3268852,,,,,509,18,Woman,Right,
,,,,,,,,,,,,,,,,,509,18,Woman,Right,3,15,0.4,2,180,0,0,0.6268827999992936,['y'],1.986748200000875,1.742,1708.0442391999968,,,,,509,18,Woman,Right,
,,,,,,,,,,,,,,,,,509,18,Woman,Right,3,3,1,2,180,0,0,0.4295278999998118,['y'],0.5715060000002268,1.732,1711.4605667999967,,,,,509,18,Woman,Right,
,,,,,,,,,,,,,,,,,509,18,Woman,Right,3,31,0.4,2,180,0,0,0.358314999997674,['y'],0.9316803000001528,1.73,1715.7106611999989,,,,,509,18,Woman,Right,
,,,,,,,,,,,,,,,,,509,18,Woman,Right,3,24,0.4,1,0,-,0,0.9039121000023442,['n'],0.4836953000012727,1.842,1719.9441297999983,,,,,509,18,Woman,Right,
,,,,,,,,,,,,,,,,,509,18,Woman,Right,3,40,0.4,1,0,-,0,0.6967642999989039,['n'],0.6829667000019981,1.672,1724.6109088999983,,,,,509,18,Woman,Right,
,,,,,,,,,,,,,,,,,509,18,Woman,Right,3,62,0.15,1,180,-,180,0.7625312000018312,['n'],0.3792484000005061,1.6600000000000001,1728.3268904999968,,,,,509,18,Woman,Right,
,,,,,,,,,,,,,,,,,509,18,Woman,Right,3,12,0.4,1,0,-,0,1.9392645000007178,['n'],0.3551076000003377,1.3860000000000001,1734.3110006999996,,,,,509,18,Woman,Right,
,,,,,,,,,,,,,,,,,509,18,Woman,Right,3,41,0.4,2,0,180,180,0.8831338999989384,['y'],1.01907299999948,1.6179999999999999,1738.7934927999995,,,,,509,18,Woman,Right,
,,,,,,,,,,,,,,,,,509,18,Woman,Right,3,59,0.15,2,180,0,0,1.0838527000014437,['y'],1.6272468999995908,1.62,1743.8934475999995,,,,,509,18,Woman,Right,
,,,,,,,,,,,,,,,,,509,18,Woman,Right,3,45,0.15,2,0,180,180,0.9703145999992557,['y'],0.9074404999992112,1.712,1749.0940540999982,,,,,509,18,Woman,Right,
,,,,,,,,,,,,,,,,,509,18,Woman,Right,3,11,0.4,2,180,0,0,0.41299269999944954,['y'],0.44353140000021085,1.712,1752.3431908999992,,,,,509,18,Woman,Right,
,,,,,,,,,,,,,,,,,509,18,Woman,Right,3,77,0.15,2,0,180,180,0.9952062999982445,['y'],1.1073576000017056,1.366,1759.094071899999,,,,,509,18,Woman,Right,
,,,,,,,,,,,,,,,,,509,18,Woman,Right,3,33,0.4,2,0,180,180,1.3299449000005552,['y'],1.1232407999996212,1.6320000000000001,1765.1935412999992,,,,,509,18,Woman,Right,
,,,,,,,,,,,,,,,,,509,18,Woman,Right,3,76,0.15,1,0,-,0,0.6658563000019058,['n'],0.6873016000026837,1.4020000000000001,1770.326192499997,,,,,509,18,Woman,Right,
,,,,,,,,,,,,,,,,,509,18,Woman,Right,3,38,0.4,1,180,-,180,1.06827599999815,['n'],0.4750332999974489,1.6139999999999999,1774.5104786999982,,,,,509,18,Woman,Right,
,,,,,,,,,,,,,,,,,509,18,Woman,Right,3,14,0.4,1,180,-,180,0.7297666999984358,['n'],0.339478699999745,1.6560000000000001,1778.527436299999,,,,,509,18,Woman,Right,
,,,,,,,,,,,,,,,,,509,18,Woman,Right,3,43,0.4,2,180,0,0,0.6018341000017244,['y'],0.57946179999999,1.572,1782.5104848999981,,,,,509,18,Woman,Right,
,,,,,,,,,,,,,,,,,509,18,Woman,Right,3,19,0.4,2,180,0,0,0.7740674999986368,['y'],0.963522500002,1.37,1787.9601184999992,,,,,509,18,Woman,Right,
,,,,,,,,,,,,,,,,,509,18,Woman,Right,3,21,0.4,2,0,180,180,1.365105400000175,['y'],0.8195754000007582,1.428,1796.243485199997,,,,,509,18,Woman,Right,
,,,,,,,,,,,,,,,,,509,18,Woman,Right,3,0,1,1,0,-,0,0.543382500000007,['n'],0.4512466000014683,1.728,1801.4761371999994,,,,,509,18,Woman,Right,
,,,,,,,,,,,,,,,,,509,18,Woman,Right,3,48,0.15,1,0,-,0,1.6714075000018056,['y'],1.8750182000003406,1.432,1813.1441325999986,,,,,509,18,Woman,Right,
,,,,,,,,,,,,,,,,,509,18,Woman,Right,3,16,0.4,1,0,-,0,0.9473649000028672,['n'],0.9553626000015356,1.31,1820.2426763000003,,,,,509,18,Woman,Right,
,,,,,,,,,,,,,,,,,509,18,Woman,Right,3,61,0.15,2,0,180,180,0.4605799000019033,['y'],1.0828247999997984,1.304,1824.0936884999974,,,,,509,18,Woman,Right,
,,,,,,,,,,,,,,,,,509,18,Woman,Right,3,34,0.4,1,180,-,180,0.7597134999996342,['n'],0.3547699000009743,1.5819999999999999,1828.5761416999994,,,,,509,18,Woman,Right,
,,,,,,,,,,,,,,,,,509,18,Woman,Right,3,25,0.4,2,0,180,180,0.545739400000457,['y'],0.6029961999993247,1.5819999999999999,1832.0935307,,,,,509,18,Woman,Right,
,,,,,,,,,,,,,,,,,509,18,Woman,Right,3,49,0.15,2,0,180,180,1.156051899997692,['y'],0.49067250000007334,1.322,1836.3604457000001,,,,,509,18,Woman,Right,
,,,,,,,,,,,,,,,,,509,18,Woman,Right,3,50,0.15,1,180,-,180,0.7408127000016975,['n'],0.22658729999966454,1.432,1840.6424298999991,,,,,509,18,Woman,Right,
,,,,,,,,,,,,,,,,,509,18,Woman,Right,3,17,0.4,2,0,180,180,0.5254684999999881,['y'],0.46691090000240365,1.6320000000000001,1845.0928312999968,,,,,509,18,Woman,Right,
,,,,,,,,,,,,,,,,,509,18,Woman,Right,3,79,0.15,2,180,0,180,0.7061486000020523,['n'],0.37905010000031325,1.6280000000000001,1848.409243299997,,,,,509,18,Woman,Right,
,,,,,,,,,,,,,,,,,509,18,Woman,Right,3,46,0.15,1,180,-,180,0.8591290999975172,['n'],0.37126920000082464,1.268,1852.9096926999991,,,,,509,18,Woman,Right,
,,,,,,,,,,,,,,,,,509,18,Woman,Right,3,8,0.4,1,0,-,0,0.38808309999876656,['n'],0.794697699999233,1.546,1856.9257125999975,,,,,509,18,Woman,Right,
,,,,,,,,,,,,,,,,,509,18,Woman,Right,3,2,1,1,180,-,180,0.5530452999992121,['n'],0.46702599999844097,1.828,1862.460260099997,,,,,509,18,Woman,Right,
,,,,,,,,,,,,,,,,,509,18,Woman,Right,3,28,0.4,1,0,-,0,0.897681399997964,['n'],0.7784510999990744,1.232,1867.659356199998,,,,,509,18,Woman,Right,
,,,,,,,,,,,,,,,,,509,18,Woman,Right,3,67,0.15,2,180,0,0,3.301175800002966,['y'],0.2589857999992091,1.35,1876.0258231999978,,,,,509,18,Woman,Right,
,,,,,,,,,,,,,,,,,509,18,Woman,Right,3,69,0.15,2,0,180,180,1.1190870999998879,['y'],1.4265334000010625,1.3439999999999999,1883.5435488999974,,,,,509,18,Woman,Right,
,,,,,,,,,,,,,,,,,509,18,Woman,Right,3,1,1,2,0,180,180,1.1057163000004948,['y'],1.2431442000015522,1.588,1890.3267549999982,,,,,509,18,Woman,Right,
,,,,,,,,,,,,,,,,,509,18,Woman,Right,3,18,0.4,1,180,-,180,0.6344035000001895,['n'],1.723153099999763,1.6440000000000001,1896.3589678999997,,,,,509,18,Woman,Right,
,,,,,,,,,,,,,,,,,509,18,Woman,Right,3,27,0.4,2,180,0,0,0.4003917000009096,['y'],2.0592355000007956,1.726,1903.1596868999986,,,,,509,18,Woman,Right,
,,,,,,,,,,,,,,,,,509,18,Woman,Right,3,23,0.4,2,180,0,0,0.42678889999660896,['y'],2.011174100000062,1.726,1908.2921265999976,,,,,509,18,Woman,Right,
,,,,,,,,,,,,,,,,,509,18,Woman,Right,3,7,1,2,180,0,0,0.31844120000096154,['y'],0.5231972000001406,1.88,1912.3757386999969,,,,,509,18,Woman,Right,
,,,,,,,,,,,,,,,,,509,18,Woman,Right,3,58,0.15,1,180,-,180,0.9957828000005975,['y'],0.4273704999977781,1.3860000000000001,1917.3935401999988,,,,,509,18,Woman,Right,
,,,,,,,,,,,,,,,,,509,18,Woman,Right,3,47,0.15,2,180,0,180,1.0057624000000942,['n'],0.43480040000213194,1.428,1921.909774599997,,,,,509,18,Woman,Right,
,,,,,,,,,,,,,,,,,509,18,Woman,Right,3,5,1,2,0,180,180,0.5384973000000173,['y'],0.3550725999994029,1.866,1925.593345899997,,,,,509,18,Woman,Right,
,,,,,,,,,,,,,,,,,509,18,Woman,Right,3,55,0.15,2,180,0,180,0.9386690000028466,['n'],0.7392132999993919,1.4,1930.4091907999973,,,,,509,18,Woman,Right,
,,,,,,,,,,,,,,,,,509,18,Woman,Right,3,29,0.4,2,0,180,180,0.4565498999982083,['y'],0.5626933999992616,1.718,1934.1255383999996,,,,,509,18,Woman,Right,
,,,,,,,,,,,,,,,,,509,18,Woman,Right,3,35,0.4,2,180,0,0,0.25010739999925136,['y'],0.8823480999999447,1.726,1937.5598242999986,,,,,509,18,Woman,Right,
,,,,,,,,,,,,,,,,,509,18,Woman,Right,3,39,0.4,2,180,0,0,0.25129569999990053,['y'],0.5071594000000914,1.8820000000000001,1940.892919799997,,,,,509,18,Woman,Right,
,,,,,,,,,,,,,,,,,509,18,Woman,Right,3,51,0.15,2,180,0,180,0.9824893000004522,['n'],0.4175506999999925,1.58,1945.0420261,,,,,509,18,Woman,Right,
,,,,,,,,,,,,,,,,,509,18,Woman,Right,3,30,0.4,1,180,-,180,0.6151198999978078,['n'],0.8272362999996403,1.612,1949.6420641999975,,,,,509,18,Woman,Right,
,,,,,,,,,,,,,,,,,509,18,Woman,Right,3,13,0.4,2,0,180,180,0.4120474999981525,['y'],0.6190999999998894,1.728,1953.4761779999972,,,,,509,18,Woman,Right,
,,,,,,,,,,,,,,,,,509,18,Woman,Right,3,66,0.15,1,180,-,0,0.7849520000017947,['n'],0.45900780000010855,1.728,1957.3432393000003,,,,,509,18,Woman,Right,
,,,,,,,,,,,,,,,,,509,18,Woman,Right,3,72,0.15,1,0,-,0,0.46543129999918165,['n'],0.9789154999998573,1.4,1962.3430995999988,,,,,509,18,Woman,Right,
,,,,,,,,,,,,,,,,,509,18,Woman,Right,3,63,0.15,2,180,0,0,1.1582474999995611,['y'],0.9790385999986029,1.274,1968.1763441999974,,,,,509,18,Woman,Right,
,,,,,,,,,,,,,,,,,509,18,Woman,Right,3,74,0.15,1,180,-,0,1.4708813000033842,['n'],0.4668820000006235,1.214,1974.3094292999995,,,,,509,18,Woman,Right,
,,,,,,,,,,,,,,,,,509,18,Woman,Right,3,52,0.15,1,0,-,0,0.476783100002649,['n'],0.6910656000000017,1.366,1978.7921019999994,,,,,509,18,Woman,Right,
,,,,,,,,,,,,,,,,,509,18,Woman,Right,3,32,0.4,1,0,-,0,0.17611389999729,['n'],0.8989949999995588,1.6360000000000001,1982.792788699997,,,,,509,18,Woman,Right,
,,,,,,,,,,,,,,,,,509,18,Woman,Right,3,36,0.4,1,0,-,0,0.2724559999987832,['n'],0.6106789000004937,1.6520000000000001,1985.9927831999994,,,,,509,18,Woman,Right,
,,,,,,,,,,,,,,,,,509,18,Woman,Right,3,6,1,1,180,-,180,0.11904289999802131,['n'],1.315297900000587,1.63,1990.7595575999985,,,,,509,18,Woman,Right,
,,,,,,,,,,,,,,,,,509,18,Woman,Right,3,22,0.4,1,180,-,180,1.696931799997401,['n'],2.010977100002492,1.432,1997.4252868999974,,,,,509,18,Woman,Right,
,,,,,,,,,,,,,,,,,509,18,Woman,Right,3,37,0.4,2,0,180,180,0.7618038000000524,['y'],0.34674590000213357,1.674,2000.9259229999989,,,,,509,18,Woman,Right,
,,,,,,,,,,,,,,,,,509,18,Woman,Right,3,9,0.4,2,0,180,180,0.6283070999998017,['y'],0.4188658999992185,1.78,2004.9929300999975,,,,,509,18,Woman,Right,
,,,,,,,,,,,,,,,,,509,18,Woman,Right,3,70,0.15,1,180,-,180,0.6517225999996299,['n'],0.7387453000010282,1.678,2009.4585281,,,,,509,18,Woman,Right,
,,,,,,,,,,,,,,,,,509,18,Woman,Right,3,57,0.15,2,0,180,0,0.9649142000016582,['n'],0.9789610000007087,1.616,2014.3253955999971,,,,,509,18,Woman,Right,
,,,,,,,,,,,,,,,,,509,18,Woman,Right,3,68,0.15,1,0,-,0,0.5938884999995935,['n'],0.8186681000006502,1.354,2018.4100719999988,,,,,509,18,Woman,Right,
,,,,,,,,,,,,,,,,,509,18,Woman,Right,3,73,0.15,2,0,180,180,4.6494595000003756,['n'],1.4268532999994932,1.1139999999999999,2027.5923187999979,,,,,509,18,Woman,Right,
,,,,,,,,,,,,,,,,,509,18,Woman,Right,3,20,0.4,1,0,-,0,0.27127499999915017,['n'],0.7708561999970698,1.608,2031.4258281000002,,,,,509,18,Woman,Right,
,,,,,,,,,,,,,,,,,509,18,Woman,Right,3,71,0.15,2,180,0,0,0.8004489999984798,['n'],0.8502197999987402,1.608,2035.526186799998,,,,,509,18,Woman,Right,
,,,,,,,,,,,,,,,,,509,18,Woman,Right,3,75,0.15,2,180,0,0,0.5858039999984612,['y'],0.8108221000002231,1.6360000000000001,2040.3248429999985,,,,,509,18,Woman,Right,
,,,,,,,,,,,,,,,,,509,18,Woman,Right,3,54,0.15,1,180,-,0,1.3206872000009753,['n'],1.002538699998695,1.662,2045.1758743999999,,,,,509,18,Woman,Right,
,,,,,,,,,,,,,,,,,509,18,Woman,Right,3,44,0.15,1,0,-,0,0.4618369999989227,['n'],1.2748704999976326,1.416,2049.692511999998,,,,,509,18,Woman,Right,
,,,,,,,,,,,,,,,,,509,18,Woman,Right,3,78,0.15,1,180,-,180,0.6445395000009739,['n'],0.33081250000032014,1.488,2053.342139499997,,,,,509,18,Woman,Right,
,,,,,,,,,,,,,,,,,509,18,Woman,Right,4,44,0.15,1,0,-,0,0.7064804000001459,['n'],1.4903100000010454,1.434,2091.2586273999987,87.5,85.0,82.5,,509,18,Woman,Right,
,,,,,,,,,,,,,,,,,509,18,Woman,Right,4,22,0.4,1,180,-,180,0.6128763999986404,['n'],1.6026462000008905,1.482,2096.874917399997,,,,,509,18,Woman,Right,
,,,,,,,,,,,,,,,,,509,18,Woman,Right,4,1,1,2,0,180,180,0.6234311000007438,['y'],0.6588858000031905,1.784,2101.1754986999986,,,,,509,18,Woman,Right,
,,,,,,,,,,,,,,,,,509,18,Woman,Right,4,49,0.15,2,0,180,0,0.6804515999974683,['n'],1.8026644000019587,1.498,2108.0917071999975,,,,,509,18,Woman,Right,
,,,,,,,,,,,,,,,,,509,18,Woman,Right,4,41,0.4,2,0,180,180,0.8468031000011251,['y'],0.5307010999968043,1.6360000000000001,2111.958638799999,,,,,509,18,Woman,Right,
,,,,,,,,,,,,,,,,,509,18,Woman,Right,4,52,0.15,1,0,-,180,1.3300635000014154,['n'],0.4179770999980974,1.412,2116.4083186999997,,,,,509,18,Woman,Right,
,,,,,,,,,,,,,,,,,509,18,Woman,Right,4,58,0.15,1,180,-,180,0.9243662000008044,['n'],0.4580421999999089,1.42,2122.4087089999994,,,,,509,18,Woman,Right,
,,,,,,,,,,,,,,,,,509,18,Woman,Right,4,43,0.4,2,180,0,0,0.4716550000011921,['y'],0.36246480000045267,1.6,2126.0580106999987,,,,,509,18,Woman,Right,
,,,,,,,,,,,,,,,,,509,18,Woman,Right,4,18,0.4,1,180,-,180,0.3465195999997377,['n'],0.5946678000000247,1.6019999999999999,2129.6083806999995,,,,,509,18,Woman,Right,
,,,,,,,,,,,,,,,,,509,18,Woman,Right,4,38,0.4,1,180,-,180,0.7345270000005257,['n'],3.0906156999990344,1.534,2138.492373099998,,,,,509,18,Woman,Right,
,,,,,,,,,,,,,,,,,509,18,Woman,Right,4,36,0.4,1,0,-,0,0.8595865999996022,['n'],0.8579575000003388,1.596,2144.108185199999,,,,,509,18,Woman,Right,
,,,,,,,,,,,,,,,,,509,18,Woman,Right,4,63,0.15,2,180,0,180,0.7331005000014557,['n'],1.0264567000012903,1.38,2148.5755019999997,,,,,509,18,Woman,Right,
,,,,,,,,,,,,,,,,,509,18,Woman,Right,4,26,0.4,1,180,-,180,2.300583000000188,['n'],0.7385729999987234,1.38,2154.108589399999,,,,,509,18,Woman,Right,
,,,,,,,,,,,,,,,,,509,18,Woman,Right,4,40,0.4,1,0,-,0,0.3630673999978171,['n'],0.6105262999990373,1.5779999999999998,2158.2912676999986,,,,,509,18,Woman,Right,
,,,,,,,,,,,,,,,,,509,18,Woman,Right,4,53,0.15,2,0,180,180,2.741794800000207,['y'],0.6266012000014598,1.31,2165.958207399999,,,,,509,18,Woman,Right,
,,,,,,,,,,,,,,,,,509,18,Woman,Right,4,66,0.15,1,180,-,0,3.897321500000544,['y'],4.265692999997555,1.266,2177.292533,,,,,509,18,Woman,Right,
,,,,,,,,,,,,,,,,,509,18,Woman,Right,4,46,0.15,1,180,-,180,1.3897622000004048,['n'],0.586053200000606,1.276,2181.6747348999997,,,,,509,18,Woman,Right,
,,,,,,,,,,,,,,,,,509,18,Woman,Right,4,68,0.15,1,0,-,180,2.3551880000013625,['y'],0.5220517999987351,1.37,2188.375384699997,,,,,509,18,Woman,Right,
,,,,,,,,,,,,,,,,,509,18,Woman,Right,4,29,0.4,2,0,180,180,0.6830326999988756,['y'],0.3559233999985736,1.6019999999999999,2191.7412315,,,,,509,18,Woman,Right,
,,,,,,,,,,,,,,,,,509,18,Woman,Right,4,31,0.4,2,180,0,0,0.25712230000135605,['y'],0.5063449000008404,1.728,2195.026241299998,,,,,509,18,Woman,Right,
,,,,,,,,,,,,,,,,,509,18,Woman,Right,4,57,0.15,2,0,180,0,0.4461922999980743,['n'],0.666365199998836,1.678,2198.775315699997,,,,,509,18,Woman,Right,
,,,,,,,,,,,,,,,,,509,18,Woman,Right,4,37,0.4,2,0,180,180,0.47522749999916414,['y'],0.19466230000034557,1.714,2201.908267699997,,,,,509,18,Woman,Right,
,,,,,,,,,,,,,,,,,509,18,Woman,Right,4,50,0.15,1,180,-,180,0.8260066000002553,['n'],0.874442000000272,1.626,2206.4249759999984,,,,,509,18,Woman,Right,
,,,,,,,,,,,,,,,,,509,18,Woman,Right,4,24,0.4,1,0,-,0,0.420285000000149,['n'],0.5784344999992754,1.626,2210.1585259999993,,,,,509,18,Woman,Right,
,,,,,,,,,,,,,,,,,509,18,Woman,Right,4,67,0.15,2,180,0,180,0.5577072000014596,['n'],0.5057329000010213,1.508,2213.9425725,,,,,509,18,Woman,Right,
,,,,,,,,,,,,,,,,,509,18,Woman,Right,4,72,0.15,1,0,-,0,0.3686299000000872,['n'],0.6344618999974045,1.516,2217.6740371999986,,,,,509,18,Woman,Right,
,,,,,,,,,,,,,,,,,509,18,Woman,Right,4,13,0.4,2,0,180,180,0.5161818000015046,['y'],0.2745422000007238,1.6059999999999999,2220.924690099997,,,,,509,18,Woman,Right,
,,,,,,,,,,,,,,,,,509,18,Woman,Right,4,30,0.4,1,180,-,180,0.7928124999998545,['n'],1.0584283999996842,1.56,2225.9085508999997,,,,,509,18,Woman,Right,
,,,,,,,,,,,,,,,,,509,18,Woman,Right,4,0,1,1,0,-,0,0.5654663999994227,['n'],0.6344341000003624,1.714,2230.0412915999987,,,,,509,18,Woman,Right,
,,,,,,,,,,,,,,,,,509,18,Woman,Right,4,78,0.15,1,180,-,180,2.812865399999282,['y'],1.0823344999989786,1.42,2237.5911603999994,,,,,509,18,Woman,Right,
,,,,,,,,,,,,,,,,,509,18,Woman,Right,4,77,0.15,2,0,180,180,0.6960481999994954,['y'],0.7702601999990293,1.55,2243.025098599999,,,,,509,18,Woman,Right,
,,,,,,,,,,,,,,,,,509,18,Woman,Right,4,16,0.4,1,0,-,0,0.3420708999983617,['n'],3.738384699998278,1.566,2256.157216599997,,,,,509,18,Woman,Right,
,,,,,,,,,,,,,,,,,509,18,Woman,Right,4,8,0.4,1,0,-,0,0.7190138999976625,['n'],1.3945007999973313,1.6360000000000001,2263.8250093999995,,,,,509,18,Woman,Right,
,,,,,,,,,,,,,,,,,509,18,Woman,Right,4,35,0.4,2,180,0,0,0.4996575999975903,['y'],0.3783036999993783,1.76,2267.123997499999,,,,,509,18,Woman,Right,
,,,,,,,,,,,,,,,,,509,18,Woman,Right,4,11,0.4,2,180,0,0,0.5372836999995343,['y'],0.7862061999985599,1.76,2270.7577046999977,,,,,509,18,Woman,Right,
,,,,,,,,,,,,,,,,,509,18,Woman,Right,4,61,0.15,2,0,180,0,0.9051222000016423,['n'],1.4343728000021656,1.562,2277.3244944,,,,,509,18,Woman,Right,
,,,,,,,,,,,,,,,,,509,18,Woman,Right,4,75,0.15,2,180,0,180,0.756530800001201,['n'],0.410142700002325,1.562,2280.9915679999976,,,,,509,18,Woman,Right,
,,,,,,,,,,,,,,,,,509,18,Woman,Right,4,64,0.15,1,0,-,0,0.47264630000063335,['n'],1.6821414000005461,1.564,2285.991651299999,,,,,509,18,Woman,Right,
,,,,,,,,,,,,,,,,,509,18,Woman,Right,4,9,0.4,2,0,180,180,0.6804830000000948,['y'],0.30628470000010566,1.702,2289.374481199997,,,,,509,18,Woman,Right,
,,,,,,,,,,,,,,,,,509,18,Woman,Right,4,74,0.15,1,180,-,180,0.9423845000019355,['n'],1.1143186000008427,1.702,2293.7578552999985,,,,,509,18,Woman,Right,
,,,,,,,,,,,,,,,,,509,18,Woman,Right,4,76,0.15,1,0,-,0,0.7864961999985098,['n'],1.0422507999974187,1.424,2298.2244465999975,,,,,509,18,Woman,Right,
,,,,,,,,,,,,,,,,,509,18,Woman,Right,4,47,0.15,2,180,0,0,0.6024251000017102,['y'],0.5937130999991496,1.388,2302.3755536999997,,,,,509,18,Woman,Right,
,,,,,,,,,,,,,,,,,509,18,Woman,Right,4,2,1,1,180,-,180,0.6834870000020601,['n'],0.6820877999998629,1.708,2306.724868899997,,,,,509,18,Woman,Right,
,,,,,,,,,,,,,,,,,509,18,Woman,Right,4,6,1,1,180,-,180,0.2766556999995373,['n'],0.6980426999980409,1.768,2310.441550299998,,,,,509,18,Woman,Right,
,,,,,,,,,,,,,,,,,509,18,Woman,Right,4,54,0.15,1,180,-,0,0.8977363000012701,['y'],0.4102908999993815,1.5939999999999999,2314.524822399999,,,,,509,18,Woman,Right,
,,,,,,,,,,,,,,,,,509,18,Woman,Right,4,15,0.4,2,180,0,0,0.4513106999984302,['y'],0.2820971000001009,1.76,2317.7415803999975,,,,,509,18,Woman,Right,
,,,,,,,,,,,,,,,,,509,18,Woman,Right,4,55,0.15,2,180,0,180,0.5771335999997973,['n'],0.46627319999970496,1.448,2321.791051799999,,,,,509,18,Woman,Right,
,,,,,,,,,,,,,,,,,509,18,Woman,Right,4,42,0.4,1,180,-,180,0.49208070000167936,['n'],0.4582076999977289,1.528,2326.4412903999983,,,,,509,18,Woman,Right,
,,,,,,,,,,,,,,,,,509,18,Woman,Right,4,7,1,2,180,0,0,0.5342801000006148,['y'],0.9140946999978041,1.776,2330.541052499997,,,,,509,18,Woman,Right,
,,,,,,,,,,,,,,,,,509,18,Woman,Right,4,25,0.4,2,0,180,180,0.4446127000010165,['y'],0.40232579999792506,1.698,2334.290835099997,,,,,509,18,Woman,Right,
,,,,,,,,,,,,,,,,,509,18,Woman,Right,4,56,0.15,1,0,-,0,0.6413127999985591,['n'],0.8822223999995913,1.546,2338.7577079999974,,,,,509,18,Woman,Right,
,,,,,,,,,,,,,,,,,509,18,Woman,Right,4,33,0.4,2,0,180,0,0.7533825999998953,['y'],1.8582539000017277,1.6280000000000001,2344.1573473999997,,,,,509,18,Woman,Right,
,,,,,,,,,,,,,,,,,509,18,Woman,Right,4,48,0.15,1,0,-,0,0.680551600002218,['n'],0.5383187000006728,1.53,2348.4247354,,,,,509,18,Woman,Right,
,,,,,,,,,,,,,,,,,509,18,Woman,Right,4,27,0.4,2,180,0,0,0.4087278000006336,['y'],0.4101695999997901,1.696,2351.874732,,,,,509,18,Woman,Right,
,,,,,,,,,,,,,,,,,509,18,Woman,Right,4,65,0.15,2,0,180,180,0.48295560000042315,['y'],0.3299793999976828,1.696,2355.4737074999975,,,,,509,18,Woman,Right,
,,,,,,,,,,,,,,,,,509,18,Woman,Right,4,34,0.4,1,180,-,180,0.7157773999970232,['n'],0.19974340000044322,1.5859999999999999,2359.6245942999994,,,,,509,18,Woman,Right,
,,,,,,,,,,,,,,,,,509,18,Woman,Right,4,70,0.15,1,180,-,180,0.8626044000011461,['n'],0.3216608000002452,1.3639999999999999,2363.740195999999,,,,,509,18,Woman,Right,
,,,,,,,,,,,,,,,,,509,18,Woman,Right,4,5,1,2,0,180,180,0.8695101000012073,['y'],0.7054052999992564,1.736,2368.4073740999993,,,,,509,18,Woman,Right,
,,,,,,,,,,,,,,,,,509,18,Woman,Right,4,12,0.4,1,0,-,0,0.5825738000021374,['n'],0.37699829999837675,1.736,2371.6573585999977,,,,,509,18,Woman,Right,
,,,,,,,,,,,,,,,,,509,18,Woman,Right,4,19,0.4,2,180,0,0,0.43826789999729954,['y'],0.7223406999983126,1.804,2375.574404699997,,,,,509,18,Woman,Right,
,,,,,,,,,,,,,,,,,509,18,Woman,Right,4,79,0.15,2,180,0,180,0.48018840000077034,['n'],0.35424500000226544,1.502,2379.590858599997,,,,,509,18,Woman,Right,
,,,,,,,,,,,,,,,,,509,18,Woman,Right,4,20,0.4,1,0,-,0,0.2574873000012303,['n'],0.9222108000030858,1.568,2383.392030799998,,,,,509,18,Woman,Right,
,,,,,,,,,,,,,,,,,509,18,Woman,Right,4,71,0.15,2,180,0,180,3.1062929999970947,['n'],2.0102770999983477,1.57,2391.2071780999977,,,,,509,18,Woman,Right,
,,,,,,,,,,,,,,,,,509,18,Woman,Right,4,28,0.4,1,0,-,0,0.42801870000039344,['n'],0.2417381999985082,1.63,2394.224452899998,,,,,509,18,Woman,Right,
,,,,,,,,,,,,,,,,,509,18,Woman,Right,4,23,0.4,2,180,0,0,0.2808398000015586,['y'],0.8660314999979164,1.63,2398.207934299997,,,,,509,18,Woman,Right,
,,,,,,,,,,,,,,,,,509,18,Woman,Right,4,69,0.15,2,0,180,0,0.46530649999840534,['n'],0.7773500000002969,1.43,2402.7072950999973,,,,,509,18,Woman,Right,
,,,,,,,,,,,,,,,,,509,18,Woman,Right,4,10,0.4,1,180,-,180,0.9441784999980882,['n'],0.345654700002342,1.376,2407.0401697999987,,,,,509,18,Woman,Right,
,,,,,,,,,,,,,,,,,509,18,Woman,Right,4,60,0.15,1,0,-,0,0.3716967000000295,['n'],1.3619542999986152,1.554,2411.7065449999973,,,,,509,18,Woman,Right,
,,,,,,,,,,,,,,,,,509,18,Woman,Right,4,32,0.4,1,0,-,0,0.26291760000094655,['n'],1.2419941000007384,1.612,2416.624407199997,,,,,509,18,Woman,Right,
,,,,,,,,,,,,,,,,,509,18,Woman,Right,4,21,0.4,2,0,180,180,0.5994584000000032,['y'],0.5096269999994547,1.726,2420.556626999998,,,,,509,18,Woman,Right,
,,,,,,,,,,,,,,,,,509,18,Woman,Right,4,59,0.15,2,180,0,180,3.308432099998754,['y'],0.7778403000011167,1.276,2428.7075436999985,,,,,509,18,Woman,Right,
,,,,,,,,,,,,,,,,,509,18,Woman,Right,4,62,0.15,1,180,-,180,0.8324611999996705,['n'],0.4146921999999904,1.276,2432.5570068999987,,,,,509,18,Woman,Right,
,,,,,,,,,,,,,,,,,509,18,Woman,Right,4,51,0.15,2,180,0,0,0.5016773999996076,['y'],0.881712400001561,1.452,2438.1229735999987,,,,,509,18,Woman,Right,
,,,,,,,,,,,,,,,,,509,18,Woman,Right,4,39,0.4,2,180,0,0,0.7740044000020134,['y'],0.2097756000002846,1.56,2441.9063371999982,,,,,509,18,Woman,Right,
,,,,,,,,,,,,,,,,,509,18,Woman,Right,4,3,1,2,180,0,0,0.5498855999976513,['y'],0.38605099999767845,1.824,2445.9574797999994,,,,,509,18,Woman,Right,
,,,,,,,,,,,,,,,,,509,18,Woman,Right,4,45,0.15,2,0,180,180,1.2547623999998905,['y'],1.0097892000012507,1.572,2451.2904444999986,,,,,509,18,Woman,Right,
,,,,,,,,,,,,,,,,,509,18,Woman,Right,4,17,0.4,2,0,180,180,0.7099264999997104,['y'],0.17798519999996643,1.698,2454.8903192,,,,,509,18,Woman,Right,
,,,,,,,,,,,,,,,,,509,18,Woman,Right,4,73,0.15,2,0,180,180,1.3810387999983504,['y'],0.4497804999991786,1.5979999999999999,2459.8904793,,,,,509,18,Woman,Right,
,,,,,,,,,,,,,,,,,509,18,Woman,Right,4,14,0.4,1,180,-,180,0.7060642000033113,['n'],0.36938480000026175,1.634,2464.1067717999977,,,,,509,18,Woman,Right,
,,,,,,,,,,,,,,,,,509,18,Woman,Right,4,4,1,1,0,-,0,0.4372450000009849,['n'],2.2179967000010947,1.732,2470.4069485,,,,,509,18,Woman,Right,
,,,,,,,,,,,,,,,,,509,18,Woman,Right,5,30,0.4,1,180,-,180,1.1501061000017216,['n'],0.8646420999975817,1.5859999999999999,2498.8075137999986,80.0,90.0,75.0,,509,18,Woman,Right,
,,,,,,,,,,,,,,,,,509,18,Woman,Right,5,39,0.4,2,180,0,0,0.3228220999990299,['y'],0.5055538000015076,1.6680000000000001,2502.3064595999967,,,,,509,18,Woman,Right,
,,,,,,,,,,,,,,,,,509,18,Woman,Right,5,53,0.15,2,0,180,180,2.2815596999971604,['y'],1.0977879999991274,1.44,2508.5906431000003,,,,,509,18,Woman,Right,
,,,,,,,,,,,,,,,,,509,18,Woman,Right,5,32,0.4,1,0,-,0,0.5784235000028275,['n'],3.633556699998735,1.444,2516.0060379999995,,,,,509,18,Woman,Right,
,,,,,,,,,,,,,,,,,509,18,Woman,Right,5,45,0.15,2,0,180,180,0.6850461999965773,['y'],0.4656489999979385,1.554,2520.390338899997,,,,,509,18,Woman,Right,
,,,,,,,,,,,,,,,,,509,18,Woman,Right,5,67,0.15,2,180,0,0,0.7222932000004221,['y'],0.39377170000079786,1.554,2523.806593199999,,,,,509,18,Woman,Right,
,,,,,,,,,,,,,,,,,509,18,Woman,Right,5,46,0.15,1,180,-,180,0.6582295999978669,['y'],0.7450387999997474,1.342,2528.0560729999997,,,,,509,18,Woman,Right,
,,,,,,,,,,,,,,,,,509,18,Woman,Right,5,61,0.15,2,0,180,180,0.8611779000020761,['y'],0.46488200000021607,1.3399999999999999,2531.856966899999,,,,,509,18,Woman,Right,
,,,,,,,,,,,,,,,,,509,18,Woman,Right,5,51,0.15,2,180,0,180,1.25779710000279,['n'],0.24166390000027604,1.3399999999999999,2536.0902222999975,,,,,509,18,Woman,Right,
,,,,,,,,,,,,,,,,,509,18,Woman,Right,5,33,0.4,2,0,180,180,0.8324327999980596,['y'],0.3270511999980954,1.536,2539.7908833,,,,,509,18,Woman,Right,
,,,,,,,,,,,,,,,,,509,18,Woman,Right,5,8,0.4,1,0,-,0,0.49637839999923017,['n'],0.38576860000102897,1.704,2543.5060086999983,,,,,509,18,Woman,Right,
,,,,,,,,,,,,,,,,,509,18,Woman,Right,5,13,0.4,2,0,180,180,0.4866861999980756,['y'],0.3293539999976929,1.552,2546.973726999997,,,,,509,18,Woman,Right,
,,,,,,,,,,,,,,,,,509,18,Woman,Right,5,3,1,2,180,0,0,0.42673830000057933,['y'],0.4256132999980764,1.76,2550.3738121999995,,,,,509,18,Woman,Right,
,,,,,,,,,,,,,,,,,509,18,Woman,Right,5,4,1,1,0,-,0,0.38233069999841973,['y'],0.7078129000001354,1.854,2554.122702499997,,,,,509,18,Woman,Right,
,,,,,,,,,,,,,,,,,509,18,Woman,Right,5,18,0.4,1,180,-,180,0.5644600000014179,['n'],4.08199230000173,1.562,2561.8073990999983,,,,,509,18,Woman,Right,
,,,,,,,,,,,,,,,,,509,18,Woman,Right,5,40,0.4,1,0,-,0,0.31373549999989336,['n'],0.4336038000001281,1.686,2564.9735354999975,,,,,509,18,Woman,Right,
,,,,,,,,,,,,,,,,,509,18,Woman,Right,5,31,0.4,2,180,0,0,0.5561024999988149,['y'],0.28952570000183186,1.794,2568.305962399998,,,,,509,18,Woman,Right,
,,,,,,,,,,,,,,,,,509,18,Woman,Right,5,15,0.4,2,180,0,0,0.3479301999977906,['y'],0.40161839999927906,1.71,2571.9403464999996,,,,,509,18,Woman,Right,
,,,,,,,,,,,,,,,,,509,18,Woman,Right,5,16,0.4,1,0,-,0,0.4396269000026223,['y'],0.4816400999989128,1.71,2574.9728854999994,,,,,509,18,Woman,Right,
,,,,,,,,,,,,,,,,,509,18,Woman,Right,5,19,0.4,2,180,0,0,0.3999891999992542,['y'],1.177515700001095,1.676,2579.205687999998,,,,,509,18,Woman,Right,
,,,,,,,,,,,,,,,,,509,18,Woman,Right,5,10,0.4,1,180,-,180,0.6331417000001238,['n'],0.38621710000006715,1.7,2583.4733357999976,,,,,509,18,Woman,Right,
,,,,,,,,,,,,,,,,,509,18,Woman,Right,5,27,0.4,2,180,0,0,0.2553379000019049,['y'],0.6097421999984363,1.7,2586.6223892999988,,,,,509,18,Woman,Right,
,,,,,,,,,,,,,,,,,509,18,Woman,Right,5,21,0.4,2,0,180,180,0.5513879999998608,['y'],0.3533932999998797,1.758,2590.190221099998,,,,,509,18,Woman,Right,
,,,,,,,,,,,,,,,,,509,18,Woman,Right,5,60,0.15,1,0,-,0,0.44049160000213305,['n'],0.8171328999997058,1.5899999999999999,2594.2561491999986,,,,,509,18,Woman,Right,
,,,,,,,,,,,,,,,,,509,18,Woman,Right,5,41,0.4,2,0,180,180,0.49744230000214884,['y'],1.289239900001121,1.724,2598.839626699999,,,,,509,18,Woman,Right,
,,,,,,,,,,,,,,,,,509,18,Woman,Right,5,35,0.4,2,180,0,0,0.5119570000024396,['y'],0.5854913999974087,1.724,2602.5058315999995,,,,,509,18,Woman,Right,
,,,,,,,,,,,,,,,,,509,18,Woman,Right,5,56,0.15,1,0,-,180,0.666939499998989,['n'],0.28139089999967837,1.596,2606.4563256999973,,,,,509,18,Woman,Right,
,,,,,,,,,,,,,,,,,509,18,Woman,Right,5,78,0.15,1,180,-,180,1.0488904000012553,['n'],0.5133406999993895,1.362,2611.422863399999,,,,,509,18,Woman,Right,
,,,,,,,,,,,,,,,,,509,18,Woman,Right,5,74,0.15,1,180,-,180,0.842104899998958,['n'],0.16910880000068573,1.46,2615.4228411999975,,,,,509,18,Woman,Right,
,,,,,,,,,,,,,,,,,509,18,Woman,Right,5,64,0.15,1,0,-,0,0.3982624999989639,['n'],0.45758829999977024,1.5779999999999998,2619.190152899999,,,,,509,18,Woman,Right,
,,,,,,,,,,,,,,,,,509,18,Woman,Right,5,57,0.15,2,0,180,180,0.6212264999994659,['y'],1.0014675999991596,1.5779999999999998,2623.2065741999977,,,,,509,18,Woman,Right,
,,,,,,,,,,,,,,,,,509,18,Woman,Right,5,55,0.15,2,180,0,180,0.6435309000007692,['n'],0.4572373000009975,1.346,2627.4559604999995,,,,,509,18,Woman,Right,
,,,,,,,,,,,,,,,,,509,18,Woman,Right,5,44,0.15,1,0,-,0,0.6251294000030612,['n'],1.1932720999975572,1.536,2632.6889415999976,,,,,509,18,Woman,Right,
,,,,,,,,,,,,,,,,,509,18,Woman,Right,5,12,0.4,1,0,-,0,0.28963179999846034,['n'],0.3292662999992899,1.6400000000000001,2635.7900821999974,,,,,509,18,Woman,Right,
,,,,,,,,,,,,,,,,,509,18,Woman,Right,5,0,1,1,0,-,0,0.24443149999933667,['n'],0.544505100002425,1.81,2639.7563241999997,,,,,509,18,Woman,Right,
,,,,,,,,,,,,,,,,,509,18,Woman,Right,5,36,0.4,1,0,-,0,0.36388529999749153,['n'],0.5535775000025751,1.69,2643.372002799999,,,,,509,18,Woman,Right,
,,,,,,,,,,,,,,,,,509,18,Woman,Right,5,22,0.4,1,180,-,180,0.5351167999979225,['n'],0.47329679999893415,1.626,2646.9227487999997,,,,,509,18,Woman,Right,
,,,,,,,,,,,,,,,,,509,18,Woman,Right,5,29,0.4,2,0,180,180,0.5752251999983855,['y'],0.8174238999999943,1.764,2651.2054629999984,,,,,509,18,Woman,Right,
,,,,,,,,,,,,,,,,,509,18,Woman,Right,5,63,0.15,2,180,0,0,0.7736489999988407,['y'],1.2494263000007777,1.588,2656.3724519999996,,,,,509,18,Woman,Right,
,,,,,,,,,,,,,,,,,509,18,Woman,Right,5,75,0.15,2,180,0,180,0.9658361000001605,['y'],1.8080995999989682,1.588,2661.539267699998,,,,,509,18,Woman,Right,
,,,,,,,,,,,,,,,,,509,18,Woman,Right,5,24,0.4,1,0,-,0,0.36871090000204276,['n'],0.2573178000020562,1.682,2664.889695099999,,,,,509,18,Woman,Right,
,,,,,,,,,,,,,,,,,509,18,Woman,Right,5,49,0.15,2,0,180,180,0.6724615999992238,['n'],1.5052363000031619,1.548,2670.1220515999994,,,,,509,18,Woman,Right,
,,,,,,,,,,,,,,,,,509,18,Woman,Right,5,43,0.4,2,180,0,0,0.46588559999872814,['y'],0.4573841999990691,1.654,2673.3387624999996,,,,,509,18,Woman,Right,
,,,,,,,,,,,,,,,,,509,18,Woman,Right,5,54,0.15,1,180,-,0,0.6367595000010624,['n'],0.3851799000003666,1.28,2677.239575399999,,,,,509,18,Woman,Right,
,,,,,,,,,,,,,,,,,509,18,Woman,Right,5,48,0.15,1,0,-,0,0.5242461999987427,['n'],0.5209658000021591,1.278,2680.6393991999976,,,,,509,18,Woman,Right,
,,,,,,,,,,,,,,,,,509,18,Woman,Right,5,66,0.15,1,180,-,180,2.203524800002924,['n'],0.19327969999721972,1.062,2686.7562953999986,,,,,509,18,Woman,Right,
,,,,,,,,,,,,,,,,,509,18,Woman,Right,5,20,0.4,1,0,-,0,0.7151481000000786,['n'],1.2012166999993497,1.6400000000000001,2691.439324199997,,,,,509,18,Woman,Right,
,,,,,,,,,,,,,,,,,509,18,Woman,Right,5,23,0.4,2,180,0,0,0.5867970999970566,['y'],0.6894580999978643,1.714,2695.3390285999994,,,,,509,18,Woman,Right,
,,,,,,,,,,,,,,,,,509,18,Woman,Right,5,38,0.4,1,180,-,180,0.5833607999993546,['n'],0.36124980000022333,1.666,2699.1221358000003,,,,,509,18,Woman,Right,
,,,,,,,,,,,,,,,,,509,18,Woman,Right,5,69,0.15,2,0,180,180,0.4986596999988251,['y'],0.9052107999996224,1.728,2703.2392833999984,,,,,509,18,Woman,Right,
,,,,,,,,,,,,,,,,,509,18,Woman,Right,5,9,0.4,2,0,180,180,1.5053306000008888,['y'],0.2971467000024859,1.6320000000000001,2708.0733432999987,,,,,509,18,Woman,Right,
,,,,,,,,,,,,,,,,,509,18,Woman,Right,5,79,0.15,2,180,0,180,0.5524614000023575,['n'],0.42547759999797563,1.518,2712.638812399997,,,,,509,18,Woman,Right,
,,,,,,,,,,,,,,,,,509,18,Woman,Right,5,11,0.4,2,180,0,0,0.48930789999940316,['y'],0.24936880000313977,1.67,2716.1385058999986,,,,,509,18,Woman,Right,
,,,,,,,,,,,,,,,,,509,18,Woman,Right,5,65,0.15,2,0,180,180,0.6158777999989979,['y'],0.42808859999786364,1.5819999999999999,2720.1055175999973,,,,,509,18,Woman,Right,
,,,,,,,,,,,,,,,,,509,18,Woman,Right,5,62,0.15,1,180,-,180,1.1514965999995184,['n'],0.8412003000012191,1.256,2724.8393407000003,,,,,509,18,Woman,Right,
,,,,,,,,,,,,,,,,,509,18,Woman,Right,5,47,0.15,2,180,0,180,1.8846827000015764,['n'],0.8884470999983023,1.256,2724.8393407000003,,,,,509,18,Woman,Right,
,,,,,,,,,,,,,,,,,509,18,Woman,Right,5,72,0.15,1,0,-,0,0.5491516999973101,['n'],0.9127509999998438,1.3519999999999999,2735.089286999999,,,,,509,18,Woman,Right,
,,,,,,,,,,,,,,,,,509,18,Woman,Right,5,17,0.4,2,0,180,180,0.746839600000385,['y'],0.18511619999844697,1.654,2738.3396293999976,,,,,509,18,Woman,Right,
,,,,,,,,,,,,,,,,,509,18,Woman,Right,5,5,1,2,0,180,180,0.5181673999977647,['y'],0.24121480000030715,1.84,2741.6393075999986,,,,,509,18,Woman,Right,
,,,,,,,,,,,,,,,,,509,18,Woman,Right,5,59,0.15,2,180,0,0,0.9068327000022691,['n'],0.6813905999988492,1.456,2746.6224121999985,,,,,509,18,Woman,Right,
,,,,,,,,,,,,,,,,,509,18,Woman,Right,5,25,0.4,2,0,180,180,0.6441204000002472,['y'],0.209103099998174,1.6360000000000001,2749.8227042,,,,,509,18,Woman,Right,
,,,,,,,,,,,,,,,,,509,18,Woman,Right,5,2,1,1,180,-,180,0.43524840000100085,['n'],1.2246752999999444,1.692,2755.7551265,,,,,509,18,Woman,Right,
,,,,,,,,,,,,,,,,,509,18,Woman,Right,5,71,0.15,2,180,0,0,0.6615564999992785,['y'],0.8012466000000131,1.692,2759.8568199999972,,,,,509,18,Woman,Right,
,,,,,,,,,,,,,,,,,509,18,Woman,Right,5,73,0.15,2,0,180,180,0.6543239000020549,['n'],0.4810790999981691,1.53,2763.822087499997,,,,,509,18,Woman,Right,
,,,,,,,,,,,,,,,,,509,18,Woman,Right,5,58,0.15,1,180,-,180,1.1500403999998525,['n'],0.26535010000225157,1.3639999999999999,2767.839459199997,,,,,509,18,Woman,Right,
,,,,,,,,,,,,,,,,,509,18,Woman,Right,5,26,0.4,1,180,-,180,0.4616076999991492,['n'],0.35312229999908595,1.692,2771.2721482999987,,,,,509,18,Woman,Right,
,,,,,,,,,,,,,,,,,509,18,Woman,Right,5,37,0.4,2,0,180,180,0.4681618000031449,['y'],0.481108599997242,1.764,2774.6725450999984,,,,,509,18,Woman,Right,
,,,,,,,,,,,,,,,,,509,18,Woman,Right,5,34,0.4,1,180,-,180,0.5970689999994647,['n'],1.0569518999982392,1.274,2779.8388885999993,,,,,509,18,Woman,Right,
,,,,,,,,,,,,,,,,,509,18,Woman,Right,5,76,0.15,1,0,-,180,1.0382143999995606,['n'],0.265026900000521,1.274,2783.5050540999982,,,,,509,18,Woman,Right,
,,,,,,,,,,,,,,,,,509,18,Woman,Right,5,50,0.15,1,180,-,180,0.4150093999996898,['n'],0.9533464999985881,1.182,2788.0227720000003,,,,,509,18,Woman,Right,
,,,,,,,,,,,,,,,,,509,18,Woman,Right,5,77,0.15,2,0,180,180,1.241687900001125,['n'],2.5530191999969247,1.12,2795.638250699998,,,,,509,18,Woman,Right,
,,,,,,,,,,,,,,,,,509,18,Woman,Right,5,1,1,2,0,180,180,1.2698980000022857,['y'],1.0891383000016504,1.802,2800.988663999997,,,,,509,18,Woman,Right,
,,,,,,,,,,,,,,,,,509,18,Woman,Right,5,28,0.4,1,0,-,0,0.46750539999993634,['n'],0.7444864000026428,1.68,2805.0234383999996,,,,,509,18,Woman,Right,
,,,,,,,,,,,,,,,,,509,18,Woman,Right,5,70,0.15,1,180,-,180,0.6739425000014307,['n'],1.3129058999984409,1.5739999999999998,2813.5885334999984,,,,,509,18,Woman,Right,
,,,,,,,,,,,,,,,,,509,18,Woman,Right,5,6,1,1,180,-,180,0.8633178999989468,['n'],0.3522819999998319,1.83,2817.4391278999974,,,,,509,18,Woman,Right,
,,,,,,,,,,,,,,,,,509,18,Woman,Right,5,52,0.15,1,0,-,180,4.75379729999986,['n'],4.44001610000123,1.044,2830.3222510999985,,,,,509,18,Woman,Right,
,,,,,,,,,,,,,,,,,509,18,Woman,Right,5,42,0.4,1,180,-,180,0.8175979000006919,['n'],1.416923599997972,1.732,2835.4724413000004,,,,,509,18,Woman,Right,
,,,,,,,,,,,,,,,,,509,18,Woman,Right,5,14,0.4,1,180,-,180,0.9660472999967169,['n'],0.9242106000019703,1.708,2841.8552152999982,,,,,509,18,Woman,Right,
,,,,,,,,,,,,,,,,,509,18,Woman,Right,5,68,0.15,1,0,-,0,0.8888709999991988,['n'],0.7450088999976288,1.298,2846.6210777999986,,,,,509,18,Woman,Right,
,,,,,,,,,,,,,,,,,509,18,Woman,Right,5,7,1,2,180,0,0,0.5331683000003977,['y'],0.4724658000013733,1.812,2850.3890887999987,,,,,509,18,Woman,Right,
,,,,,,,,,,,,,,,,,,,,,,,,,,,,,,,,,88.75,92.5,80.0,2537.099966400001,,,,,
