p_block,p_section,p_coherence,p_direction1,p_direction2,p_direction_response,p_direction_RT,p_change_response,p_change_RT,p_confidence,p_full_correct,p_without5_correct,p_full_total,p_without5_total,p_full_avg,p_witout5_avg,p_total_time,sub,age,sex,handedness,loop,trial randomization,coherence,condition,direction1,direction2,direction_response,direction_RT,change_response,change_RT,change_confidence,change_confidence_RT,block_direction_avg,block_stable_avg,block_change_avg,total_time,sub,age,sex,handedness,
1,1,1.0,180,-,180,1.648341900000105,-,-,-,,,,,,,,533,18,Woman,Right,,,,,,,,,,,,,,,,,533,18,Woman,Right,
1,1,1.0,0,-,0,0.6970953999998528,-,-,-,,,,,,,,533,18,Woman,Right,,,,,,,,,,,,,,,,,533,18,Woman,Right,
1,1,1.0,0,-,0,0.3916156999998748,-,-,-,,,,,,,,533,18,Woman,Right,,,,,,,,,,,,,,,,,533,18,Woman,Right,
1,1,1.0,0,-,0,0.6112524000000121,-,-,-,,,,,,,,533,18,Woman,Right,,,,,,,,,,,,,,,,,533,18,Woman,Right,
1,1,1.0,0,-,180,0.8286795999999867,-,-,-,,,,,,,,533,18,Woman,Right,,,,,,,,,,,,,,,,,533,18,Woman,Right,
1,1,1.0,0,-,180,0.9175974999998289,-,-,-,,,,,,,,533,18,Woman,Right,,,,,,,,,,,,,,,,,533,18,Woman,Right,
1,1,1.0,180,-,180,0.4357511999999133,-,-,-,,,,,,,,533,18,Woman,Right,,,,,,,,,,,,,,,,,533,18,Woman,Right,
1,1,1.0,180,-,0,0.7408301000000392,-,-,-,,,,,,,,533,18,Woman,Right,,,,,,,,,,,,,,,,,533,18,Woman,Right,
1,1,1.0,0,-,0,2.0262189999998554,-,-,-,,,,,,,,533,18,Woman,Right,,,,,,,,,,,,,,,,,533,18,Woman,Right,
1,1,1.0,0,-,180,0.5002552999999352,-,-,-,,,,,,,,533,18,Woman,Right,,,,,,,,,,,,,,,,,533,18,Woman,Right,
1,1,1.0,0,-,180,0.4182146000000557,-,-,-,,,,,,,,533,18,Woman,Right,,,,,,,,,,,,,,,,,533,18,Woman,Right,
1,1,1.0,0,-,180,0.4199392999998963,-,-,-,,,,,,,,533,18,Woman,Right,,,,,,,,,,,,,,,,,533,18,Woman,Right,
1,1,1.0,180,-,0,0.5574007000000165,-,-,-,,,,,,,,533,18,Woman,Right,,,,,,,,,,,,,,,,,533,18,Woman,Right,
1,1,1.0,180,-,180,0.34465829999999187,-,-,-,,,,,,,,533,18,Woman,Right,,,,,,,,,,,,,,,,,533,18,Woman,Right,
1,1,1.0,180,-,180,0.7419183000001794,-,-,-,,,,,,,,533,18,Woman,Right,,,,,,,,,,,,,,,,,533,18,Woman,Right,
1,1,1.0,180,-,0,0.602663899999925,-,-,-,,,,,,,,533,18,Woman,Right,,,,,,,,,,,,,,,,,533,18,Woman,Right,
1,1,1.0,0,-,0,0.6331719999998313,-,-,-,,,,,,,,533,18,Woman,Right,,,,,,,,,,,,,,,,,533,18,Woman,Right,
1,1,1.0,0,-,0,0.40561090000005606,-,-,-,,,,,,,,533,18,Woman,Right,,,,,,,,,,,,,,,,,533,18,Woman,Right,
1,1,1.0,180,-,180,0.36737449999986893,-,-,-,,,,,,,,533,18,Woman,Right,,,,,,,,,,,,,,,,,533,18,Woman,Right,
1,1,1.0,180,-,180,0.35570020000000113,-,-,-,,,,,,,,533,18,Woman,Right,,,,,,,,,,,,,,,,,533,18,Woman,Right,
1,1,1.0,180,-,0,0.4788722000000689,-,-,-,,,,,,,,533,18,Woman,Right,,,,,,,,,,,,,,,,,533,18,Woman,Right,
1,1,1.0,0,-,180,0.7751666999999998,-,-,-,,,,,,,,533,18,Woman,Right,,,,,,,,,,,,,,,,,533,18,Woman,Right,
1,1,1.0,180,-,180,0.5624370000000454,-,-,-,,,,,,,,533,18,Woman,Right,,,,,,,,,,,,,,,,,533,18,Woman,Right,
1,1,1.0,180,-,0,0.7187870000000203,-,-,-,,,,,,,,533,18,Woman,Right,,,,,,,,,,,,,,,,,533,18,Woman,Right,
1,1,1.0,180,-,180,0.387818199999856,-,-,-,,,,,,,,533,18,Woman,Right,,,,,,,,,,,,,,,,,533,18,Woman,Right,
1,1,1.0,180,-,180,0.7110692000001109,-,-,-,,,,,,,,533,18,Woman,Right,,,,,,,,,,,,,,,,,533,18,Woman,Right,
1,1,1.0,180,-,180,1.5335410999998658,-,-,-,,,,,,,,533,18,Woman,Right,,,,,,,,,,,,,,,,,533,18,Woman,Right,
1,1,1.0,180,-,180,0.9213153999999122,-,-,-,,,,,,,,533,18,Woman,Right,,,,,,,,,,,,,,,,,533,18,Woman,Right,
1,1,1.0,0,-,0,0.5031836999999086,-,-,-,,,,,,,,533,18,Woman,Right,,,,,,,,,,,,,,,,,533,18,Woman,Right,
1,1,1.0,180,-,180,1.0130486000000474,-,-,-,,,,,,,,533,18,Woman,Right,,,,,,,,,,,,,,,,,533,18,Woman,Right,
1,1,1.0,180,-,0,0.5600039999999353,-,-,-,,,,,,,,533,18,Woman,Right,,,,,,,,,,,,,,,,,533,18,Woman,Right,
1,1,1.0,180,-,180,0.6116653000001406,-,-,-,,,,,,,,533,18,Woman,Right,,,,,,,,,,,,,,,,,533,18,Woman,Right,
1,1,1.0,0,-,180,0.38286809999999605,-,-,-,,,,,,,,533,18,Woman,Right,,,,,,,,,,,,,,,,,533,18,Woman,Right,
1,1,1.0,180,-,0,0.5164956999999504,-,-,-,,,,,,,,533,18,Woman,Right,,,,,,,,,,,,,,,,,533,18,Woman,Right,
1,1,1.0,180,-,180,0.42272079999997914,-,-,-,,,,,,,,533,18,Woman,Right,,,,,,,,,,,,,,,,,533,18,Woman,Right,
1,1,1.0,180,-,180,0.4074863999999252,-,-,-,,,,,,,,533,18,Woman,Right,,,,,,,,,,,,,,,,,533,18,Woman,Right,
1,1,1.0,180,-,180,0.3056950999998662,-,-,-,,,,,,,,533,18,Woman,Right,,,,,,,,,,,,,,,,,533,18,Woman,Right,
1,1,1.0,180,-,180,0.33557440000004135,-,-,-,,,,,,,,533,18,Woman,Right,,,,,,,,,,,,,,,,,533,18,Woman,Right,
1,1,1.0,180,-,180,0.36434299999996256,-,-,-,,,,,,,,533,18,Woman,Right,,,,,,,,,,,,,,,,,533,18,Woman,Right,
1,1,1.0,180,-,180,0.32847140000012587,-,-,-,,,,,,,,533,18,Woman,Right,,,,,,,,,,,,,,,,,533,18,Woman,Right,
1,1,1.0,0,-,180,0.3657353000000967,-,-,-,,,,,,,,533,18,Woman,Right,,,,,,,,,,,,,,,,,533,18,Woman,Right,
1,1,1.0,0,-,180,0.3783728999999312,-,-,-,,,,,,,,533,18,Woman,Right,,,,,,,,,,,,,,,,,533,18,Woman,Right,
1,1,1.0,0,-,180,0.2937234000000899,-,-,-,,,,,,,,533,18,Woman,Right,,,,,,,,,,,,,,,,,533,18,Woman,Right,
1,1,1.0,180,-,180,0.28502979999984746,-,-,-,,,,,,,,533,18,Woman,Right,,,,,,,,,,,,,,,,,533,18,Woman,Right,
1,1,1.0,180,-,180,0.42740600000001905,-,-,-,,,,,,,,533,18,Woman,Right,,,,,,,,,,,,,,,,,533,18,Woman,Right,
1,1,1.0,180,-,0,0.42209279999997307,-,-,-,,,,,,,,533,18,Woman,Right,,,,,,,,,,,,,,,,,533,18,Woman,Right,
1,1,1.0,180,-,0,0.8314135999999053,-,-,-,,,,,,,,533,18,Woman,Right,,,,,,,,,,,,,,,,,533,18,Woman,Right,
1,1,1.0,180,-,0,0.4495918000000074,-,-,-,,,,,,,,533,18,Woman,Right,,,,,,,,,,,,,,,,,533,18,Woman,Right,
1,1,1.0,0,-,180,0.5454144000000269,-,-,-,,,,,,,,533,18,Woman,Right,,,,,,,,,,,,,,,,,533,18,Woman,Right,
1,1,1.0,180,-,180,0.18271610000010696,-,-,-,,,,,,,,533,18,Woman,Right,,,,,,,,,,,,,,,,,533,18,Woman,Right,
1,1,1.0,180,-,180,0.3825443999999152,-,-,-,,,,,,,,533,18,Woman,Right,,,,,,,,,,,,,,,,,533,18,Woman,Right,
1,1,1.0,180,-,180,0.6609340999998494,-,-,-,,,,,,,,533,18,Woman,Right,,,,,,,,,,,,,,,,,533,18,Woman,Right,
1,1,1.0,180,-,180,0.4055736000000252,-,-,-,,,,,,,,533,18,Woman,Right,,,,,,,,,,,,,,,,,533,18,Woman,Right,
1,1,1.0,0,-,0,0.38301109999997607,-,-,-,,,,,,,,533,18,Woman,Right,,,,,,,,,,,,,,,,,533,18,Woman,Right,
1,1,1.0,180,-,180,0.5311995000001843,-,-,-,,,,,,,,533,18,Woman,Right,,,,,,,,,,,,,,,,,533,18,Woman,Right,
1,1,1.0,180,-,180,0.32810940000013034,-,-,-,,,,,,,,533,18,Woman,Right,,,,,,,,,,,,,,,,,533,18,Woman,Right,
1,1,1.0,0,-,0,0.44618080000009286,-,-,-,,,,,,,,533,18,Woman,Right,,,,,,,,,,,,,,,,,533,18,Woman,Right,
1,1,1.0,0,-,0,0.35169810000002144,-,-,-,,,,,,,,533,18,Woman,Right,,,,,,,,,,,,,,,,,533,18,Woman,Right,
1,1,1.0,180,-,180,0.3559620000000905,-,-,-,,,,,,,,533,18,Woman,Right,,,,,,,,,,,,,,,,,533,18,Woman,Right,
1,1,1.0,180,-,180,0.359914500000059,-,-,-,10,10,10,10,1.0,1.0,,533,18,Woman,Right,,,,,,,,,,,,,,,,,533,18,Woman,Right,
2,1,0.15,0,-,0,0.8516749000000345,-,-,-,,,,,,,,533,18,Woman,Right,,,,,,,,,,,,,,,,,533,18,Woman,Right,
2,1,0.4,0,-,180,0.540512900000067,-,-,-,,,,,,,,533,18,Woman,Right,,,,,,,,,,,,,,,,,533,18,Woman,Right,
2,1,0.15,180,-,180,0.504651400000057,-,-,-,,,,,,,,533,18,Woman,Right,,,,,,,,,,,,,,,,,533,18,Woman,Right,
2,1,0.15,180,-,180,0.3273292999997466,-,-,-,,,,,,,,533,18,Woman,Right,,,,,,,,,,,,,,,,,533,18,Woman,Right,
2,1,0.4,0,-,0,0.3097164000000703,-,-,-,,,,,,,,533,18,Woman,Right,,,,,,,,,,,,,,,,,533,18,Woman,Right,
2,1,0.4,180,-,180,0.17142000000012558,-,-,-,,,,,,,,533,18,Woman,Right,,,,,,,,,,,,,,,,,533,18,Woman,Right,
2,1,0.15,0,-,180,0.2802277000000686,-,-,-,,,,,,,,533,18,Woman,Right,,,,,,,,,,,,,,,,,533,18,Woman,Right,
2,1,0.15,0,-,0,0.582705199999964,-,-,-,,,,,,,,533,18,Woman,Right,,,,,,,,,,,,,,,,,533,18,Woman,Right,
2,1,0.4,0,-,180,0.45745439999973314,-,-,-,,,,,,,,533,18,Woman,Right,,,,,,,,,,,,,,,,,533,18,Woman,Right,
2,1,0.4,0,-,180,0.2104205999999067,-,-,-,,,,,,,,533,18,Woman,Right,,,,,,,,,,,,,,,,,533,18,Woman,Right,
2,1,0.15,180,-,180,0.2763457000000926,-,-,-,,,,,,,,533,18,Woman,Right,,,,,,,,,,,,,,,,,533,18,Woman,Right,
2,1,0.15,0,-,0,0.6206059000001005,-,-,-,,,,,,,,533,18,Woman,Right,,,,,,,,,,,,,,,,,533,18,Woman,Right,
2,1,0.15,180,-,180,0.5185363000000507,-,-,-,,,,,,,,533,18,Woman,Right,,,,,,,,,,,,,,,,,533,18,Woman,Right,
2,1,0.15,180,-,180,0.6667038000000503,-,-,-,,,,,,,,533,18,Woman,Right,,,,,,,,,,,,,,,,,533,18,Woman,Right,
2,1,0.4,0,-,0,0.8897707000000992,-,-,-,,,,,,,,533,18,Woman,Right,,,,,,,,,,,,,,,,,533,18,Woman,Right,
2,1,0.15,0,-,180,0.45775300000013885,-,-,-,,,,,,,,533,18,Woman,Right,,,,,,,,,,,,,,,,,533,18,Woman,Right,
2,1,0.15,0,-,0,0.20131369999990056,-,-,-,,,,,,,,533,18,Woman,Right,,,,,,,,,,,,,,,,,533,18,Woman,Right,
2,1,0.4,180,-,180,0.3233064999999442,-,-,-,,,,,,,,533,18,Woman,Right,,,,,,,,,,,,,,,,,533,18,Woman,Right,
2,1,0.4,0,-,0,1.8737045000002581,-,-,-,,,,,,,,533,18,Woman,Right,,,,,,,,,,,,,,,,,533,18,Woman,Right,
2,1,0.4,180,-,180,0.316507399999864,-,-,-,9,4,10,4,0.9,1.0,,533,18,Woman,Right,,,,,,,,,,,,,,,,,533,18,Woman,Right,
3,2,1.0,0,180,0,0.734734600000138,['n'],3.5994700999999623,1.244,,,,,,,,533,18,Woman,Right,,,,,,,,,,,,,,,,,533,18,Woman,Right,
3,2,1.0,180,0,180,0.4570035000001553,['n'],2.7579964000001382,1.274,,,,,,,,533,18,Woman,Right,,,,,,,,,,,,,,,,,533,18,Woman,Right,
3,2,1.0,0,180,180,0.6164385000001857,['y'],1.1815470999999889,1.716,,,,,,,,533,18,Woman,Right,,,,,,,,,,,,,,,,,533,18,Woman,Right,
3,2,1.0,0,180,180,0.577545199999804,['y'],0.9133401999997659,1.732,,,,,,,,533,18,Woman,Right,,,,,,,,,,,,,,,,,533,18,Woman,Right,
3,2,1.0,180,0,0,0.4642668000001322,['y'],1.1005827999997564,1.756,,,,,,,,533,18,Woman,Right,,,,,,,,,,,,,,,,,533,18,Woman,Right,
3,2,1.0,180,0,0,0.7214266999999381,['y'],0.8671411000000262,1.824,,,,,,,,533,18,Woman,Right,,,,,,,,,,,,,,,,,533,18,Woman,Right,
3,2,1.0,0,180,180,0.36472009999988586,['y'],0.4521236999999019,1.752,,,,,,,,533,18,Woman,Right,,,,,,,,,,,,,,,,,533,18,Woman,Right,
3,2,1.0,180,0,0,0.47958520000020144,['y'],0.7640964000001986,1.734,,,,,,,,533,18,Woman,Right,,,,,,,,,,,,,,,,,533,18,Woman,Right,
3,2,1.0,0,180,180,0.3974207999999635,['n'],0.6265374000004158,1.688,,,,,,,,533,18,Woman,Right,,,,,,,,,,,,,,,,,533,18,Woman,Right,
3,2,1.0,180,0,0,0.4140756000001602,['y'],0.46094200000015917,1.696,8,8,10,10,0.8,0.8,,533,18,Woman,Right,,,,,,,,,,,,,,,,,533,18,Woman,Right,
4,2,0.15,180,0,0,0.48332799999980125,['y'],1.222897600000124,1.686,,,,,,,,533,18,Woman,Right,,,,,,,,,,,,,,,,,533,18,Woman,Right,
4,2,0.4,180,0,180,0.317232100000183,['y'],0.8615991000001486,1.6560000000000001,,,,,,,,533,18,Woman,Right,,,,,,,,,,,,,,,,,533,18,Woman,Right,
4,2,0.4,0,180,180,0.47717140000031577,['y'],0.47306609999986904,1.782,,,,,,,,533,18,Woman,Right,,,,,,,,,,,,,,,,,533,18,Woman,Right,
4,2,0.15,180,0,0,0.5033225000001949,['y'],0.7614788000000772,1.688,,,,,,,,533,18,Woman,Right,,,,,,,,,,,,,,,,,533,18,Woman,Right,
4,2,0.4,0,180,180,0.3342428999999356,['y'],0.9113200000001598,1.646,,,,,,,,533,18,Woman,Right,,,,,,,,,,,,,,,,,533,18,Woman,Right,
4,2,0.4,0,180,180,0.38516340000023774,['y'],0.9184497000001102,1.6520000000000001,,,,,,,,533,18,Woman,Right,,,,,,,,,,,,,,,,,533,18,Woman,Right,
4,2,0.4,180,0,0,0.4856362000000445,['y'],0.7764252000001761,1.65,,,,,,,,533,18,Woman,Right,,,,,,,,,,,,,,,,,533,18,Woman,Right,
4,2,0.15,0,180,180,0.4159236000000419,['n'],1.109979999999723,1.6600000000000001,,,,,,,,533,18,Woman,Right,,,,,,,,,,,,,,,,,533,18,Woman,Right,
4,2,0.4,0,180,180,0.3763698000002478,['y'],0.23223349999989296,1.706,,,,,,,,533,18,Woman,Right,,,,,,,,,,,,,,,,,533,18,Woman,Right,
4,2,0.4,180,0,0,0.29459589999987656,['y'],0.3057378999997127,1.742,9,6,10,7,0.9,0.8571428571428571,,533,18,Woman,Right,,,,,,,,,,,,,,,,,533,18,Woman,Right,
5,3,0.4,180,0,0,0.3358484000000317,['y'],0.2646922999997514,1.84,,,,,,,,533,18,Woman,Right,,,,,,,,,,,,,,,,,533,18,Woman,Right,
5,3,0.4,180,-,180,0.31460589999960575,['y'],0.7812024999998357,1.746,,,,,,,,533,18,Woman,Right,,,,,,,,,,,,,,,,,533,18,Woman,Right,
5,3,0.4,180,-,0,0.8493374999998196,['y'],0.4285696000001735,1.314,,,,,,,,533,18,Woman,Right,,,,,,,,,,,,,,,,,533,18,Woman,Right,
5,3,0.4,180,-,180,0.10146110000005137,['n'],0.327924300000177,1.704,,,,,,,,533,18,Woman,Right,,,,,,,,,,,,,,,,,533,18,Woman,Right,
5,3,0.15,180,-,180,0.6052918000000318,['n'],0.3004368000001705,1.752,,,,,,,,533,18,Woman,Right,,,,,,,,,,,,,,,,,533,18,Woman,Right,
5,3,1.0,180,-,180,0.29490020000002914,['n'],0.33775680000007924,1.802,,,,,,,,533,18,Woman,Right,,,,,,,,,,,,,,,,,533,18,Woman,Right,
5,3,0.15,180,-,180,0.4588880000001154,['n'],0.29516160000002856,1.784,,,,,,,,533,18,Woman,Right,,,,,,,,,,,,,,,,,533,18,Woman,Right,
5,3,1.0,180,-,0,0.2251442000001589,['n'],0.9351240000000871,1.342,,,,,,,,533,18,Woman,Right,,,,,,,,,,,,,,,,,533,18,Woman,Right,
5,3,1.0,0,-,0,0.28061780000007275,['n'],1.3487063000002308,1.77,,,,,,,,533,18,Woman,Right,,,,,,,,,,,,,,,,,533,18,Woman,Right,
5,3,0.15,180,0,180,0.460340499999802,['y'],0.7129555000001346,1.746,,,,,,,,533,18,Woman,Right,,,,,,,,,,,,,,,,,533,18,Woman,Right,
5,3,1.0,0,180,180,0.025126700000328128,['y'],0.7905224000000999,1.736,,,,,,,,533,18,Woman,Right,,,,,,,,,,,,,,,,,533,18,Woman,Right,
5,3,0.4,0,180,180,0.2833676000000196,['n'],1.1347473999999238,1.6680000000000001,,,,,,,,533,18,Woman,Right,,,,,,,,,,,,,,,,,533,18,Woman,Right,
5,3,0.4,0,-,180,0.13543909999998505,['n'],1.0325164999999288,1.6219999999999999,,,,,,,,533,18,Woman,Right,,,,,,,,,,,,,,,,,533,18,Woman,Right,
5,3,1.0,180,-,180,0.3102276999998139,['n'],0.20891630000005534,1.788,,,,,,,,533,18,Woman,Right,,,,,,,,,,,,,,,,,533,18,Woman,Right,
5,3,1.0,0,180,180,0.8527754000001551,['y'],0.28097410000009404,1.672,,,,,,,,533,18,Woman,Right,,,,,,,,,,,,,,,,,533,18,Woman,Right,
5,3,0.4,180,0,180,0.5667281999999432,['n'],0.7096088000002965,1.338,,,,,,,,533,18,Woman,Right,,,,,,,,,,,,,,,,,533,18,Woman,Right,
5,3,1.0,0,-,180,0.4069848999997703,['n'],0.30091730000003736,1.566,,,,,,,,533,18,Woman,Right,,,,,,,,,,,,,,,,,533,18,Woman,Right,
5,3,0.4,180,-,180,0.3696461999998064,['n'],0.2815356000000975,1.716,,,,,,,,533,18,Woman,Right,,,,,,,,,,,,,,,,,533,18,Woman,Right,
5,3,1.0,180,0,0,0.5164395000001605,['n'],0.32570289999966917,1.702,,,,,,,,533,18,Woman,Right,,,,,,,,,,,,,,,,,533,18,Woman,Right,
5,3,0.4,180,0,0,0.6004579999998896,['n'],0.29463350000014543,1.5859999999999999,,,,,,,,533,18,Woman,Right,,,,,,,,,,,,,,,,,533,18,Woman,Right,
5,3,1.0,180,0,0,0.6820947999999589,['n'],0.28499920000012935,1.658,,,,,,,,533,18,Woman,Right,,,,,,,,,,,,,,,,,533,18,Woman,Right,
5,3,0.4,0,-,180,0.5745961000002353,['n'],0.11080420000007507,1.6560000000000001,,,,,,,,533,18,Woman,Right,,,,,,,,,,,,,,,,,533,18,Woman,Right,
5,3,0.4,180,0,0,0.5359415000002627,['n'],0.42523510000000897,1.422,,,,,,,,533,18,Woman,Right,,,,,,,,,,,,,,,,,533,18,Woman,Right,
5,3,0.15,0,180,180,0.31069179999985863,['y'],0.28112959999998566,1.702,,,,,,,,533,18,Woman,Right,,,,,,,,,,,,,,,,,533,18,Woman,Right,
5,3,0.15,0,-,180,0.5280017999998563,['n'],0.47285120000015013,1.56,,,,,,,,533,18,Woman,Right,,,,,,,,,,,,,,,,,533,18,Woman,Right,
5,3,1.0,0,-,180,0.39985380000007353,['y'],0.24670949999972436,1.194,,,,,,,,533,18,Woman,Right,,,,,,,,,,,,,,,,,533,18,Woman,Right,
5,3,0.15,180,0,180,0.31268599999975777,['n'],0.9704556000001503,1.3399999999999999,,,,,,,,533,18,Woman,Right,,,,,,,,,,,,,,,,,533,18,Woman,Right,
5,3,0.4,0,180,180,0.47852160000002186,['y'],0.2648927999998705,1.694,,,,,,,,533,18,Woman,Right,,,,,,,,,,,,,,,,,533,18,Woman,Right,
5,3,0.15,0,180,0,0.49773099999993065,['n'],0.8684877999999117,1.572,,,,,,,,533,18,Woman,Right,,,,,,,,,,,,,,,,,533,18,Woman,Right,
5,3,0.15,0,180,180,0.4171516999999767,['n'],0.28657129999965036,1.6440000000000001,,,,,,,,533,18,Woman,Right,,,,,,,,,,,,,,,,,533,18,Woman,Right,
5,3,0.15,0,180,0,2.4689714999999524,['n'],3.96072200000026,1.404,,,,,,,,533,18,Woman,Right,,,,,,,,,,,,,,,,,533,18,Woman,Right,
5,3,0.4,0,180,180,0.2533280000002378,['n'],0.5221996000000217,1.714,,,,,,,,533,18,Woman,Right,,,,,,,,,,,,,,,,,533,18,Woman,Right,
5,3,1.0,180,0,0,0.31318959999998697,['n'],0.29303170000002865,1.69,,,,,,,,533,18,Woman,Right,,,,,,,,,,,,,,,,,533,18,Woman,Right,
5,3,1.0,180,-,180,0.30573180000010325,['n'],0.275532099999964,1.76,,,,,,,,533,18,Woman,Right,,,,,,,,,,,,,,,,,533,18,Woman,Right,
5,3,0.15,180,0,0,0.27412079999976413,['y'],0.3170975000002727,1.812,,,,,,,,533,18,Woman,Right,,,,,,,,,,,,,,,,,533,18,Woman,Right,
5,3,0.4,180,-,0,0.8680233000000044,['y'],0.7516798999999992,1.426,,,,,,,,533,18,Woman,Right,,,,,,,,,,,,,,,,,533,18,Woman,Right,
5,3,0.15,0,180,0,0.2435582000002796,['n'],0.2083503999997447,1.4140000000000001,,,,,,,,533,18,Woman,Right,,,,,,,,,,,,,,,,,533,18,Woman,Right,
5,3,1.0,0,-,0,0.2912741999998616,['n'],0.2784864000000198,1.822,,,,,,,,533,18,Woman,Right,,,,,,,,,,,,,,,,,533,18,Woman,Right,
5,3,0.15,180,0,0,0.7952717999996821,['y'],0.5380685000000085,1.692,,,,,,,,533,18,Woman,Right,,,,,,,,,,,,,,,,,533,18,Woman,Right,
5,3,1.0,180,0,180,0.5103316999998242,['y'],0.23275340000009237,1.5939999999999999,,,,,,,,533,18,Woman,Right,,,,,,,,,,,,,,,,,533,18,Woman,Right,
5,3,1.0,180,-,180,0.38931000000002314,['y'],0.26117859999976645,1.734,,,,,,,,533,18,Woman,Right,,,,,,,,,,,,,,,,,533,18,Woman,Right,
5,3,0.4,180,-,180,0.44275310000011814,['y'],0.2322481000001062,1.706,,,,,,,,533,18,Woman,Right,,,,,,,,,,,,,,,,,533,18,Woman,Right,
5,3,1.0,0,-,0,0.3294770000002245,['y'],0.2758089000003565,1.666,,,,,,,,533,18,Woman,Right,,,,,,,,,,,,,,,,,533,18,Woman,Right,
5,3,0.4,0,-,0,0.3246225000002596,['n'],0.26201759999958085,1.792,,,,,,,,533,18,Woman,Right,,,,,,,,,,,,,,,,,533,18,Woman,Right,
5,3,0.15,180,0,180,0.2523554999997941,['y'],0.7685627999999269,1.728,,,,,,,,533,18,Woman,Right,,,,,,,,,,,,,,,,,533,18,Woman,Right,
5,3,0.15,0,-,180,0.7566396000001987,['y'],1.252364800000123,1.714,,,,,,,,533,18,Woman,Right,,,,,,,,,,,,,,,,,533,18,Woman,Right,
5,3,0.15,0,180,0,1.3814863000002333,['y'],0.21190690000003087,1.726,,,,,,,,533,18,Woman,Right,,,,,,,,,,,,,,,,,533,18,Woman,Right,
5,3,1.0,180,-,180,0.47116430000005494,['n'],0.2263674999999239,1.84,,,,,,,,533,18,Woman,Right,,,,,,,,,,,,,,,,,533,18,Woman,Right,
5,3,1.0,180,-,0,0.7874378000001343,['y'],0.14633209999965402,1.292,,,,,,,,533,18,Woman,Right,,,,,,,,,,,,,,,,,533,18,Woman,Right,
5,3,0.15,180,-,0,0.6065361999999368,['y'],1.9096192999995765,1.076,,,,,,,,533,18,Woman,Right,,,,,,,,,,,,,,,,,533,18,Woman,Right,
5,3,0.15,0,180,0,0.7017446999998356,['y'],0.5046692999999323,1.294,,,,,,,,533,18,Woman,Right,,,,,,,,,,,,,,,,,533,18,Woman,Right,
5,3,0.4,180,0,0,0.453622500000165,['n'],0.6743657000001804,1.804,,,,,,,,533,18,Woman,Right,,,,,,,,,,,,,,,,,533,18,Woman,Right,
5,3,1.0,180,-,0,0.8186759999998685,['n'],1.5923581000001832,1.682,,,,,,,,533,18,Woman,Right,,,,,,,,,,,,,,,,,533,18,Woman,Right,
5,3,1.0,0,180,180,0.5663772000002609,['y'],0.2784407999997711,1.82,,,,,,,,533,18,Woman,Right,,,,,,,,,,,,,,,,,533,18,Woman,Right,
5,3,0.15,180,-,180,0.3537554000004093,['y'],0.31341669999983424,1.784,,,,,,,,533,18,Woman,Right,,,,,,,,,,,,,,,,,533,18,Woman,Right,
5,3,1.0,0,180,180,0.38277759999982663,['y'],2.146682800000235,1.858,,,,,,,,533,18,Woman,Right,,,,,,,,,,,,,,,,,533,18,Woman,Right,
5,3,1.0,0,180,180,0.277474600000005,['y'],0.5201661999999487,1.8479999999999999,,,,,,,,533,18,Woman,Right,,,,,,,,,,,,,,,,,533,18,Woman,Right,
5,3,1.0,180,0,0,0.37226430000009714,['y'],0.6199510000001283,1.816,,,,,,,,533,18,Woman,Right,,,,,,,,,,,,,,,,,533,18,Woman,Right,
5,3,1.0,180,0,0,0.15293740000015532,['y'],0.39420730000028925,1.784,,,,,,,,533,18,Woman,Right,,,,,,,,,,,,,,,,,533,18,Woman,Right,
5,3,1.0,0,-,180,0.09471919999987222,['y'],0.5382579000001897,1.3319999999999999,,,,,,,,533,18,Woman,Right,,,,,,,,,,,,,,,,,533,18,Woman,Right,
5,3,0.15,180,-,0,0.7819355999999971,['y'],0.24543270000003758,1.748,,,,,,,,533,18,Woman,Right,,,,,,,,,,,,,,,,,533,18,Woman,Right,
5,3,0.4,0,180,0,1.4497252999999546,['n'],0.5896646999999575,1.692,,,,,,,,533,18,Woman,Right,,,,,,,,,,,,,,,,,533,18,Woman,Right,
5,3,0.4,180,-,180,1.2552092999999331,['n'],0.27559960000007777,1.734,,,,,,,,533,18,Woman,Right,,,,,,,,,,,,,,,,,533,18,Woman,Right,
5,3,0.4,0,180,180,0.5829915999997866,['y'],0.28305860000000393,1.774,,,,,,,,533,18,Woman,Right,,,,,,,,,,,,,,,,,533,18,Woman,Right,
5,3,0.15,180,0,180,1.2193993999999293,['n'],0.2570378999998866,1.276,,,,,,,,533,18,Woman,Right,,,,,,,,,,,,,,,,,533,18,Woman,Right,
5,3,0.15,180,-,180,0.3661943000001884,['n'],0.2486364000001231,1.752,,,,,,,,533,18,Woman,Right,,,,,,,,,,,,,,,,,533,18,Woman,Right,
5,3,1.0,180,-,180,0.17448520000016288,['n'],0.14300719999982903,1.794,,,,,,,,533,18,Woman,Right,,,,,,,,,,,,,,,,,533,18,Woman,Right,
5,3,0.15,180,0,0,0.4527560999999878,['n'],0.5437040000001616,1.738,,,,,,,,533,18,Woman,Right,,,,,,,,,,,,,,,,,533,18,Woman,Right,
5,3,1.0,180,0,180,0.01720530000011422,['y'],0.11141910000014832,1.388,,,,,,,,533,18,Woman,Right,,,,,,,,,,,,,,,,,533,18,Woman,Right,
5,3,1.0,180,-,0,0.5179168999998183,['n'],0.41598629999998593,1.6139999999999999,,,,,,,,533,18,Woman,Right,,,,,,,,,,,,,,,,,533,18,Woman,Right,
5,3,0.4,0,180,0,0.610565399999814,['n'],0.10486300000002302,1.396,,,,,,,,533,18,Woman,Right,,,,,,,,,,,,,,,,,533,18,Woman,Right,
5,3,0.15,0,180,180,0.5466867000000093,['n'],0.2526577999997244,1.6219999999999999,,,,,,,,533,18,Woman,Right,,,,,,,,,,,,,,,,,533,18,Woman,Right,
5,3,0.15,0,180,0,0.5513793000000078,['n'],0.5193245000000388,1.638,,,,,,,,533,18,Woman,Right,,,,,,,,,,,,,,,,,533,18,Woman,Right,
5,3,1.0,0,180,180,0.422914999999648,['n'],0.26900449999993725,1.686,,,,,,,,533,18,Woman,Right,,,,,,,,,,,,,,,,,533,18,Woman,Right,
5,3,1.0,180,0,0,0.5567455000000336,['n'],0.333481699999993,1.722,,,,,,,,533,18,Woman,Right,,,,,,,,,,,,,,,,,533,18,Woman,Right,
5,3,1.0,180,-,0,0.7050794000001588,['y'],0.24297939999996743,1.3900000000000001,,,,,,,,533,18,Woman,Right,,,,,,,,,,,,,,,,,533,18,Woman,Right,
5,3,0.4,0,180,180,0.49082019999968907,['n'],0.2694078999998055,1.37,,,,,,,,533,18,Woman,Right,,,,,,,,,,,,,,,,,533,18,Woman,Right,
5,3,1.0,180,0,0,0.25880010000037146,['y'],1.024048700000094,1.69,,,,,,,,533,18,Woman,Right,,,,,,,,,,,,,,,,,533,18,Woman,Right,
5,3,0.15,180,-,0,0.3451771000000008,['n'],0.3231087999997726,1.6059999999999999,,,,,,,,533,18,Woman,Right,,,,,,,,,,,,,,,,,533,18,Woman,Right,
5,3,0.4,0,180,180,0.26786630000015066,['y'],0.3363917000001493,1.732,,,,,,,,533,18,Woman,Right,,,,,,,,,,,,,,,,,533,18,Woman,Right,
5,3,1.0,0,180,180,0.38412419999986014,['y'],0.24761979999993855,1.744,,,,,,,,533,18,Woman,Right,,,,,,,,,,,,,,,,,533,18,Woman,Right,
5,3,1.0,180,0,0,0.6363090999998349,['n'],0.2425239999997757,1.676,,,,,,,,533,18,Woman,Right,,,,,,,,,,,,,,,,,533,18,Woman,Right,
5,3,0.15,180,-,0,0.3703310999999303,['n'],1.3707677999996122,1.568,,,,,,,,533,18,Woman,Right,,,,,,,,,,,,,,,,,533,18,Woman,Right,
5,3,0.4,180,0,0,0.5542488000000958,['n'],0.2495217999999113,1.6059999999999999,,,,,,,,533,18,Woman,Right,,,,,,,,,,,,,,,,,533,18,Woman,Right,
5,3,0.4,180,-,180,0.15775360000043293,['n'],0.229678100000001,1.672,,,,,,,,533,18,Woman,Right,,,,,,,,,,,,,,,,,533,18,Woman,Right,
5,3,1.0,180,-,180,0.25827190000018163,['n'],0.28727989999970305,1.6320000000000001,,,,,,,,533,18,Woman,Right,,,,,,,,,,,,,,,,,533,18,Woman,Right,
5,3,1.0,180,-,0,0.2795623000001797,['y'],0.2841158000001087,1.242,,,,,,,,533,18,Woman,Right,,,,,,,,,,,,,,,,,533,18,Woman,Right,
5,3,0.15,180,0,180,0.5695418000000245,['y'],0.7055511000003207,1.654,,,,,,,,533,18,Woman,Right,,,,,,,,,,,,,,,,,533,18,Woman,Right,
5,3,1.0,0,180,0,1.6185745000002498,['y'],0.24046780000026047,1.498,,,,,,,,533,18,Woman,Right,,,,,,,,,,,,,,,,,533,18,Woman,Right,
5,3,1.0,0,180,180,0.2835989999998674,['y'],0.2705741999998281,1.914,,,,,,,,533,18,Woman,Right,,,,,,,,,,,,,,,,,533,18,Woman,Right,
5,3,0.15,0,-,0,0.6358153999999558,['n'],0.2813045000002603,1.634,,,,,,,,533,18,Woman,Right,,,,,,,,,,,,,,,,,533,18,Woman,Right,
5,3,0.4,180,-,180,0.8187439000002996,['n'],0.3841327000000092,1.6600000000000001,,,,,,,,533,18,Woman,Right,,,,,,,,,,,,,,,,,533,18,Woman,Right,
5,3,0.15,0,-,0,0.4954418000002079,['n'],0.21949930000027962,1.672,,,,,,,,533,18,Woman,Right,,,,,,,,,,,,,,,,,533,18,Woman,Right,
5,3,0.4,180,-,180,0.2393518000003496,['n'],0.44545819999984815,1.662,,,,,,,,533,18,Woman,Right,,,,,,,,,,,,,,,,,533,18,Woman,Right,
5,3,0.4,0,-,0,0.0676512999998522,['n'],0.27200200000015684,1.742,,,,,,,,533,18,Woman,Right,,,,,,,,,,,,,,,,,533,18,Woman,Right,
5,3,1.0,0,-,180,0.3939384999998765,['n'],0.3296270999999251,1.718,,,,,,,,533,18,Woman,Right,,,,,,,,,,,,,,,,,533,18,Woman,Right,
5,3,1.0,180,0,0,0.6942183000001023,['y'],0.2815279000001283,1.812,,,,,,,,533,18,Woman,Right,,,,,,,,,,,,,,,,,533,18,Woman,Right,
5,3,0.15,180,-,180,0.6108193999998548,['n'],1.0420311000002584,1.772,,,,,,,,533,18,Woman,Right,,,,,,,,,,,,,,,,,533,18,Woman,Right,
5,3,0.15,180,-,0,0.6316970000002584,['n'],0.25254150000000664,1.704,,,,,,,,533,18,Woman,Right,,,,,,,,,,,,,,,,,533,18,Woman,Right,
5,3,0.15,180,-,0,0.4032515999997486,['n'],0.24998989999994592,1.3780000000000001,7,4,10,5,0.7,0.8,,533,18,Woman,Right,,,,,,,,,,,,,,,,,533,18,Woman,Right,
,,,,,,,,,,,,,,,,4.099999841855606e-06,533,18,Woman,Right,,,,,,,,,,,,,,,,,533,18,Woman,Right,
,,,,,,,,,,,,,,,,,533,18,Woman,Right,0,2,1,1,180,-,180,0.3331004000001485,['y'],2.275122399999873,1.596,876.9259390000002,,,,,533,18,Woman,Right,
,,,,,,,,,,,,,,,,,533,18,Woman,Right,0,71,0.15,2,180,0,180,0.42550829999981943,['n'],1.4593675999999505,1.422,882.2096716000001,,,,,533,18,Woman,Right,
,,,,,,,,,,,,,,,,,533,18,Woman,Right,0,75,0.15,2,180,0,0,0.6150293999999121,['n'],1.4834740999999667,1.442,887.9437598,,,,,533,18,Woman,Right,
,,,,,,,,,,,,,,,,,533,18,Woman,Right,0,39,0.4,2,180,0,0,0.6721502000000328,['n'],1.9636701999997968,1.544,894.3759215,,,,,533,18,Woman,Right,
,,,,,,,,,,,,,,,,,533,18,Woman,Right,0,74,0.15,1,180,-,180,1.9012870999999905,['n'],1.555141100000128,1.532,901.043275,,,,,533,18,Woman,Right,
,,,,,,,,,,,,,,,,,533,18,Woman,Right,0,73,0.15,2,0,180,0,1.0756332999999358,['n'],1.2511254999999437,1.536,906.4096946,,,,,533,18,Woman,Right,
,,,,,,,,,,,,,,,,,533,18,Woman,Right,0,25,0.4,2,0,180,0,0.7436913999999888,['y'],0.9073290999999699,1.5779999999999998,910.6934212000001,,,,,533,18,Woman,Right,
,,,,,,,,,,,,,,,,,533,18,Woman,Right,0,20,0.4,1,0,-,0,0.6348252000002503,['n'],1.363242899999932,1.548,915.5926076999999,,,,,533,18,Woman,Right,
,,,,,,,,,,,,,,,,,533,18,Woman,Right,0,13,0.4,2,0,180,180,0.6314761000003273,['n'],0.7549438999999438,1.548,919.8927895000002,,,,,533,18,Woman,Right,
,,,,,,,,,,,,,,,,,533,18,Woman,Right,0,62,0.15,1,180,-,180,0.6613781999999446,['n'],0.8273466999999073,1.642,924.2432503,,,,,533,18,Woman,Right,
,,,,,,,,,,,,,,,,,533,18,Woman,Right,0,45,0.15,2,0,180,0,2.020194000000174,['n'],0.6674040000002606,1.6019999999999999,930.2432223999999,,,,,533,18,Woman,Right,
,,,,,,,,,,,,,,,,,533,18,Woman,Right,0,44,0.15,1,0,-,180,0.8537037000000964,['n'],1.715263799999775,1.624,935.6430684000002,,,,,533,18,Woman,Right,
,,,,,,,,,,,,,,,,,533,18,Woman,Right,0,35,0.4,2,180,0,0,0.5166933000000427,['n'],0.6746668999999201,1.634,939.7589535000002,,,,,533,18,Woman,Right,
,,,,,,,,,,,,,,,,,533,18,Woman,Right,0,64,0.15,1,0,-,180,0.6884191000003739,['y'],0.9232277999999496,1.3519999999999999,945.4252798000002,,,,,533,18,Woman,Right,
,,,,,,,,,,,,,,,,,533,18,Woman,Right,0,61,0.15,2,0,180,180,0.911844100000053,['y'],0.5712066000000959,1.328,950.1427774000003,,,,,533,18,Woman,Right,
,,,,,,,,,,,,,,,,,533,18,Woman,Right,0,76,0.15,1,0,-,0,0.4980268999997861,['y'],0.7469866999999795,1.592,954.5260809000001,,,,,533,18,Woman,Right,
,,,,,,,,,,,,,,,,,533,18,Woman,Right,0,63,0.15,2,180,0,0,0.5015093000001798,['n'],0.8029289000000972,1.548,959.1257653000002,,,,,533,18,Woman,Right,
,,,,,,,,,,,,,,,,,533,18,Woman,Right,0,52,0.15,1,0,-,0,0.5352401999998619,['n'],0.9951904999998078,1.562,963.4094529000004,,,,,533,18,Woman,Right,
,,,,,,,,,,,,,,,,,533,18,Woman,Right,0,4,1,1,0,-,0,0.7321332999999868,['n'],1.9150980999997955,1.592,969.4927928000002,,,,,533,18,Woman,Right,
,,,,,,,,,,,,,,,,,533,18,Woman,Right,0,72,0.15,1,0,-,180,0.7002317000001312,['n'],0.5870626000000811,1.426,973.7252661000002,,,,,533,18,Woman,Right,
,,,,,,,,,,,,,,,,,533,18,Woman,Right,0,6,1,1,180,-,180,1.4831492000002982,['y'],0.7001657000000705,1.548,978.4586562,,,,,533,18,Woman,Right,
,,,,,,,,,,,,,,,,,533,18,Woman,Right,0,7,1,2,180,0,0,0.7411498999999822,['n'],0.6035004999998819,1.71,982.4918703000003,,,,,533,18,Woman,Right,
,,,,,,,,,,,,,,,,,533,18,Woman,Right,0,22,0.4,1,180,-,180,0.3341679000000113,['n'],0.5708875999998781,1.63,985.8927450000001,,,,,533,18,Woman,Right,
,,,,,,,,,,,,,,,,,533,18,Woman,Right,0,28,0.4,1,0,-,0,0.22004160000005868,['n'],0.6352226999997583,1.714,989.3250750000002,,,,,533,18,Woman,Right,
,,,,,,,,,,,,,,,,,533,18,Woman,Right,0,3,1,2,180,0,180,0.30546919999960664,['n'],0.69069780000018,1.6600000000000001,993.0431920999999,,,,,533,18,Woman,Right,
,,,,,,,,,,,,,,,,,533,18,Woman,Right,0,8,0.4,1,0,-,180,0.9300426999998308,['y'],0.6195749999997133,1.708,997.5425338,,,,,533,18,Woman,Right,
,,,,,,,,,,,,,,,,,533,18,Woman,Right,0,42,0.4,1,180,-,180,0.6263060999999652,['n'],1.0911728999999468,1.662,1002.0587624,,,,,533,18,Woman,Right,
,,,,,,,,,,,,,,,,,533,18,Woman,Right,0,29,0.4,2,0,180,180,0.6961716000000706,['y'],0.6195798000003379,1.718,1006.1582773,,,,,533,18,Woman,Right,
,,,,,,,,,,,,,,,,,533,18,Woman,Right,0,37,0.4,2,0,180,0,1.739021700000194,['n'],0.5794181000001117,1.33,1011.6418064,,,,,533,18,Woman,Right,
,,,,,,,,,,,,,,,,,533,18,Woman,Right,0,18,0.4,1,180,-,0,0.6941286000001128,['y'],0.7158982000000833,1.334,1017.1587001000003,,,,,533,18,Woman,Right,
,,,,,,,,,,,,,,,,,533,18,Woman,Right,0,53,0.15,2,0,180,0,1.2895895999999993,['n'],0.6268538999997872,1.302,1021.8413688,,,,,533,18,Woman,Right,
,,,,,,,,,,,,,,,,,533,18,Woman,Right,0,50,0.15,1,180,-,0,0.9070115999998052,['n'],0.6594347000000198,1.316,1027.2584991000003,,,,,533,18,Woman,Right,
,,,,,,,,,,,,,,,,,533,18,Woman,Right,0,65,0.15,2,0,180,180,0.6211555999998382,['n'],1.0033744000002116,1.44,1032.3912526,,,,,533,18,Woman,Right,
,,,,,,,,,,,,,,,,,533,18,Woman,Right,0,26,0.4,1,180,-,180,0.7291530999996212,['n'],2.699553200000082,1.21,1039.0916998000002,,,,,533,18,Woman,Right,
,,,,,,,,,,,,,,,,,533,18,Woman,Right,0,77,0.15,2,0,180,180,2.05364069999996,['n'],1.363401900000099,1.086,1046.0419590000001,,,,,533,18,Woman,Right,
,,,,,,,,,,,,,,,,,533,18,Woman,Right,0,30,0.4,1,180,-,0,0.8110644000003049,['n'],0.5070529000004171,1.3599999999999999,1050.9084301000003,,,,,533,18,Woman,Right,
,,,,,,,,,,,,,,,,,533,18,Woman,Right,0,60,0.15,1,0,-,0,0.42624279999972714,['n'],0.6595099000001028,1.358,1058.9253355,,,,,533,18,Woman,Right,
,,,,,,,,,,,,,,,,,533,18,Woman,Right,0,66,0.15,1,180,-,180,0.9385935000000245,['n'],0.8429951999996774,1.524,1063.4915608000001,,,,,533,18,Woman,Right,
,,,,,,,,,,,,,,,,,533,18,Woman,Right,0,23,0.4,2,180,0,0,0.4298754999999801,['n'],0.4276233000000502,1.604,1067.1585347,,,,,533,18,Woman,Right,
,,,,,,,,,,,,,,,,,533,18,Woman,Right,0,46,0.15,1,180,-,0,2.040589799999907,['n'],0.7471313999999438,1.568,1072.9917806000003,,,,,533,18,Woman,Right,
,,,,,,,,,,,,,,,,,533,18,Woman,Right,0,69,0.15,2,0,180,180,0.4517468999997618,['y'],0.8585626999997658,1.5859999999999999,1077.9252558000003,,,,,533,18,Woman,Right,
,,,,,,,,,,,,,,,,,533,18,Woman,Right,0,33,0.4,2,0,180,180,0.5061164999997345,['y'],0.658887600000071,1.558,1083.7579929000003,,,,,533,18,Woman,Right,
,,,,,,,,,,,,,,,,,533,18,Woman,Right,0,40,0.4,1,0,-,180,0.4031403999997565,['n'],0.5946466999998847,1.556,1087.4411036000001,,,,,533,18,Woman,Right,
,,,,,,,,,,,,,,,,,533,18,Woman,Right,0,51,0.15,2,180,0,180,1.8154284000002008,['n'],0.8752206999997725,1.526,1093.6746471000001,,,,,533,18,Woman,Right,
,,,,,,,,,,,,,,,,,533,18,Woman,Right,0,56,0.15,1,0,-,180,0.6267972999999074,['n'],1.6917052000003423,1.564,1098.7750654000001,,,,,533,18,Woman,Right,
,,,,,,,,,,,,,,,,,533,18,Woman,Right,0,19,0.4,2,180,0,180,3.368868200000179,['n'],1.0266787999998996,1.232,1106.6414387,,,,,533,18,Woman,Right,
,,,,,,,,,,,,,,,,,533,18,Woman,Right,0,17,0.4,2,0,180,0,0.6601743999999599,['n'],1.0351526999997986,1.62,1111.1570810000003,,,,,533,18,Woman,Right,
,,,,,,,,,,,,,,,,,533,18,Woman,Right,0,21,0.4,2,0,180,180,0.5794424999999137,['y'],0.5870608999998694,1.6640000000000001,1115.2741681000002,,,,,533,18,Woman,Right,
,,,,,,,,,,,,,,,,,533,18,Woman,Right,0,67,0.15,2,180,0,180,1.2944155000000137,['n'],0.3789354000000458,1.616,1119.4570063,,,,,533,18,Woman,Right,
,,,,,,,,,,,,,,,,,533,18,Woman,Right,0,68,0.15,1,0,-,180,0.7844605000000229,['n'],0.5952566000000843,1.592,1123.6413908,,,,,533,18,Woman,Right,
,,,,,,,,,,,,,,,,,533,18,Woman,Right,0,57,0.15,2,0,180,0,0.8888280999999552,['n'],2.6992906999998922,1.6139999999999999,1129.9907932,,,,,533,18,Woman,Right,
,,,,,,,,,,,,,,,,,533,18,Woman,Right,0,10,0.4,1,180,-,0,2.2681891000001997,['n'],0.5707916999999725,1.572,1136.3749228000001,,,,,533,18,Woman,Right,
,,,,,,,,,,,,,,,,,533,18,Woman,Right,0,14,0.4,1,180,-,180,0.49803709999969215,['n'],0.6914511999998467,1.572,1140.4075798000003,,,,,533,18,Woman,Right,
,,,,,,,,,,,,,,,,,533,18,Woman,Right,0,11,0.4,2,180,0,0,0.34132110000018656,['n'],0.5551556999998866,1.556,1144.2901505,,,,,533,18,Woman,Right,
,,,,,,,,,,,,,,,,,533,18,Woman,Right,0,43,0.4,2,180,0,0,1.453943199999685,['n'],1.3075260999999045,1.694,1149.7242838000002,,,,,533,18,Woman,Right,
,,,,,,,,,,,,,,,,,533,18,Woman,Right,0,32,0.4,1,0,-,0,2.235390499999994,['n'],0.6509605000001102,1.444,1155.7741415,,,,,533,18,Woman,Right,
,,,,,,,,,,,,,,,,,533,18,Woman,Right,0,16,0.4,1,0,-,0,1.5317683000002944,['n'],0.7635851999998522,1.268,1161.9407717000004,,,,,533,18,Woman,Right,
,,,,,,,,,,,,,,,,,533,18,Woman,Right,0,70,0.15,1,180,-,180,0.8773442000001523,['n'],0.7951834999998937,1.086,1166.3410467000003,,,,,533,18,Woman,Right,
,,,,,,,,,,,,,,,,,533,18,Woman,Right,0,24,0.4,1,0,-,0,1.1599033000002237,['n'],0.9794105999999374,1.542,1171.4065953,,,,,533,18,Woman,Right,
,,,,,,,,,,,,,,,,,533,18,Woman,Right,0,79,0.15,2,180,0,180,1.2734433999999055,['n'],0.6112597999999707,1.502,1177.2897559000003,,,,,533,18,Woman,Right,
,,,,,,,,,,,,,,,,,533,18,Woman,Right,0,27,0.4,2,180,0,0,1.1353420999998889,['n'],0.6838077000002158,1.556,1181.9743145000002,,,,,533,18,Woman,Right,
,,,,,,,,,,,,,,,,,533,18,Woman,Right,0,47,0.15,2,180,0,0,0.4030739999998332,['y'],0.6430888999998388,1.744,1186.4748263000001,,,,,533,18,Woman,Right,
,,,,,,,,,,,,,,,,,533,18,Woman,Right,0,59,0.15,2,180,0,180,0.7770603999997547,['n'],0.5473109999998087,1.56,1190.3393053,,,,,533,18,Woman,Right,
,,,,,,,,,,,,,,,,,533,18,Woman,Right,0,54,0.15,1,180,-,180,3.845405699999901,['n'],0.8674717999997483,1.058,1197.8750466000001,,,,,533,18,Woman,Right,
,,,,,,,,,,,,,,,,,533,18,Woman,Right,0,0,1,1,0,-,180,1.233824800000093,['y'],0.6508297999998831,1.338,1203.8065166000001,,,,,533,18,Woman,Right,
,,,,,,,,,,,,,,,,,533,18,Woman,Right,0,36,0.4,1,0,-,0,1.5793161000001419,['n'],0.7075159999999414,1.342,1208.9894143000001,,,,,533,18,Woman,Right,
,,,,,,,,,,,,,,,,,533,18,Woman,Right,0,1,1,2,0,180,180,0.4889328999997815,['y'],0.6992149000002428,1.758,1213.1233871,,,,,533,18,Woman,Right,
,,,,,,,,,,,,,,,,,533,18,Woman,Right,0,48,0.15,1,0,-,0,0.6152740000002268,['y'],0.6432910999997148,1.714,1218.0562674000003,,,,,533,18,Woman,Right,
,,,,,,,,,,,,,,,,,533,18,Woman,Right,0,9,0.4,2,0,180,180,0.66716630000019,['y'],0.7070800000001327,1.666,1222.0069000000003,,,,,533,18,Woman,Right,
,,,,,,,,,,,,,,,,,533,18,Woman,Right,0,31,0.4,2,180,0,0,0.32875960000001214,['y'],1.867638899999747,1.706,1228.4405267000002,,,,,533,18,Woman,Right,
,,,,,,,,,,,,,,,,,533,18,Woman,Right,0,49,0.15,2,0,180,180,0.595008499999949,['n'],0.8108344999996007,1.56,1234.8236272,,,,,533,18,Woman,Right,
,,,,,,,,,,,,,,,,,533,18,Woman,Right,0,5,1,2,0,180,180,0.40232849999983955,['y'],1.0354166000001896,1.74,1238.9233755,,,,,533,18,Woman,Right,
,,,,,,,,,,,,,,,,,533,18,Woman,Right,0,55,0.15,2,180,0,0,0.7838072999998076,['n'],1.650941800000055,1.724,1244.0393477000002,,,,,533,18,Woman,Right,
,,,,,,,,,,,,,,,,,533,18,Woman,Right,0,34,0.4,1,180,-,180,0.8180581999999958,['n'],0.5552739999998266,1.782,1247.7558197000003,,,,,533,18,Woman,Right,
,,,,,,,,,,,,,,,,,533,18,Woman,Right,0,78,0.15,1,180,-,0,0.3863427999999658,['n'],0.7310032000000319,1.6280000000000001,1251.8234548,,,,,533,18,Woman,Right,
,,,,,,,,,,,,,,,,,533,18,Woman,Right,0,12,0.4,1,0,-,0,0.5399242000003142,['n'],0.5868755999999848,1.516,1255.9734168,,,,,533,18,Woman,Right,
,,,,,,,,,,,,,,,,,533,18,Woman,Right,0,38,0.4,1,180,-,180,0.43361129999993864,['n'],1.4272234000000026,1.534,1261.4735059,,,,,533,18,Woman,Right,
,,,,,,,,,,,,,,,,,533,18,Woman,Right,0,58,0.15,1,180,-,180,0.24943870000015522,['n'],1.9868295000001126,1.596,1266.6395887000003,,,,,533,18,Woman,Right,
,,,,,,,,,,,,,,,,,533,18,Woman,Right,0,15,0.4,2,180,0,180,0.656644199999846,['n'],0.9231494000000566,1.612,1270.9232593000002,,,,,533,18,Woman,Right,
,,,,,,,,,,,,,,,,,533,18,Woman,Right,0,41,0.4,2,0,180,180,0.342793299999812,['n'],0.5389836999997897,1.616,1274.2064923000003,,,,,533,18,Woman,Right,
,,,,,,,,,,,,,,,,,533,18,Woman,Right,1,15,0.4,2,180,0,0,0.8636144000001877,['y'],0.6435768999999709,1.576,1308.5554169000002,63.75,80.0,27.5,,533,18,Woman,Right,
,,,,,,,,,,,,,,,,,533,18,Woman,Right,1,38,0.4,1,180,-,0,0.33159370000021227,['n'],1.0750514000001203,1.6440000000000001,1312.6718562,,,,,533,18,Woman,Right,
,,,,,,,,,,,,,,,,,533,18,Woman,Right,1,75,0.15,2,180,0,180,0.25880899999992835,['n'],0.46708769999986544,1.658,1316.3389104000003,,,,,533,18,Woman,Right,
,,,,,,,,,,,,,,,,,533,18,Woman,Right,1,34,0.4,1,180,-,180,0.357259399999748,['n'],0.9311776000004102,1.5859999999999999,1320.1723249000001,,,,,533,18,Woman,Right,
,,,,,,,,,,,,,,,,,533,18,Woman,Right,1,54,0.15,1,180,-,180,0.5896437999999762,['n'],0.6513666999999259,1.462,1324.3546868000003,,,,,533,18,Woman,Right,
,,,,,,,,,,,,,,,,,533,18,Woman,Right,1,53,0.15,2,0,180,0,0.25836319999962143,['n'],0.5078306000000339,1.608,1327.7227643,,,,,533,18,Woman,Right,
,,,,,,,,,,,,,,,,,533,18,Woman,Right,1,64,0.15,1,0,-,180,0.6391602000003331,['n'],0.4199177000000418,1.514,1331.5393022000003,,,,,533,18,Woman,Right,
,,,,,,,,,,,,,,,,,533,18,Woman,Right,1,39,0.4,2,180,0,0,1.159056099999816,['n'],0.3152270000000499,1.528,1335.4891559000002,,,,,533,18,Woman,Right,
,,,,,,,,,,,,,,,,,533,18,Woman,Right,1,76,0.15,1,0,-,180,0.5402170000002116,['n'],0.4991476000000148,1.456,1338.9382313,,,,,533,18,Woman,Right,
,,,,,,,,,,,,,,,,,533,18,Woman,Right,1,43,0.4,2,180,0,0,0.6858390999996118,['n'],1.5470408999999563,1.54,1343.8225395,,,,,533,18,Woman,Right,
,,,,,,,,,,,,,,,,,533,18,Woman,Right,1,6,1,1,180,-,0,0.8454388000000108,['y'],0.5396375000000262,1.526,1347.6388409,,,,,533,18,Woman,Right,
,,,,,,,,,,,,,,,,,533,18,Woman,Right,1,46,0.15,1,180,-,180,0.7491674999996576,['n'],0.9671095000003334,1.446,1351.839332,,,,,533,18,Woman,Right,
,,,,,,,,,,,,,,,,,533,18,Woman,Right,1,8,0.4,1,0,-,180,0.5609250000002248,['n'],0.7074651000002632,1.556,1356.9224586,,,,,533,18,Woman,Right,
,,,,,,,,,,,,,,,,,533,18,Woman,Right,1,11,0.4,2,180,0,0,0.47948170000017853,['y'],0.5950858000001062,1.512,1360.5048681000003,,,,,533,18,Woman,Right,
,,,,,,,,,,,,,,,,,533,18,Woman,Right,1,48,0.15,1,0,-,180,0.5739456999999675,['n'],0.49144440000009126,1.528,1364.5212546000002,,,,,533,18,Woman,Right,
,,,,,,,,,,,,,,,,,533,18,Woman,Right,1,13,0.4,2,0,180,180,0.25867779999998675,['y'],0.635555899999872,1.696,1368.2388473,,,,,533,18,Woman,Right,
,,,,,,,,,,,,,,,,,533,18,Woman,Right,1,30,0.4,1,180,-,180,0.4506808999999521,['n'],0.6755668000000696,1.566,1371.8554408,,,,,533,18,Woman,Right,
,,,,,,,,,,,,,,,,,533,18,Woman,Right,1,45,0.15,2,0,180,180,1.5522728000000825,['y'],0.9068304000002172,1.612,1376.8224534,,,,,533,18,Woman,Right,
,,,,,,,,,,,,,,,,,533,18,Woman,Right,1,5,1,2,0,180,180,1.654614600000059,['y'],0.5627078000002257,1.642,1381.7553407,,,,,533,18,Woman,Right,
,,,,,,,,,,,,,,,,,533,18,Woman,Right,1,17,0.4,2,0,180,180,0.6719264000003022,['y'],0.6674738000001526,1.6280000000000001,1385.5051096000002,,,,,533,18,Woman,Right,
,,,,,,,,,,,,,,,,,533,18,Woman,Right,1,2,1,1,180,-,180,0.3134070999999494,['n'],0.7552643999997599,1.698,1389.0382010000003,,,,,533,18,Woman,Right,
,,,,,,,,,,,,,,,,,533,18,Woman,Right,1,28,0.4,1,0,-,180,0.4668753999999353,['n'],0.8511861000001772,1.786,1392.7222547000001,,,,,533,18,Woman,Right,
,,,,,,,,,,,,,,,,,533,18,Woman,Right,1,18,0.4,1,180,-,0,3.6712760999998864,['y'],0.33880260000023554,1.674,1399.9216960000003,,,,,533,18,Woman,Right,
,,,,,,,,,,,,,,,,,533,18,Woman,Right,1,42,0.4,1,180,-,180,0.28197399999999107,['y'],0.5076060000001235,1.728,1404.0384923000001,,,,,533,18,Woman,Right,
,,,,,,,,,,,,,,,,,533,18,Woman,Right,1,20,0.4,1,0,-,180,0.259831899999881,['n'],1.7071270000001277,1.63,1408.3220582000004,,,,,533,18,Woman,Right,
,,,,,,,,,,,,,,,,,533,18,Woman,Right,1,52,0.15,1,0,-,180,0.3822912999999062,['n'],0.5312935000001744,1.546,1412.2041178,,,,,533,18,Woman,Right,
,,,,,,,,,,,,,,,,,533,18,Woman,Right,1,36,0.4,1,0,-,180,0.500308799999857,['n'],0.7553498000002037,1.488,1415.9553275000003,,,,,533,18,Woman,Right,
,,,,,,,,,,,,,,,,,533,18,Woman,Right,1,65,0.15,2,0,180,180,0.27040619999979754,['n'],0.659346199999618,1.492,1419.3720541000002,,,,,533,18,Woman,Right,
,,,,,,,,,,,,,,,,,533,18,Woman,Right,1,47,0.15,2,180,0,180,0.07938190000004397,['n'],0.9152170999996088,1.524,1423.6051057,,,,,533,18,Woman,Right,
,,,,,,,,,,,,,,,,,533,18,Woman,Right,1,0,1,1,0,-,180,0.30237869999973555,['n'],0.714880500000163,1.514,1427.7384035,,,,,533,18,Woman,Right,
,,,,,,,,,,,,,,,,,533,18,Woman,Right,1,55,0.15,2,180,0,180,0.33047850000002654,['n'],1.379438499999651,1.514,1427.7384035,,,,,533,18,Woman,Right,
,,,,,,,,,,,,,,,,,533,18,Woman,Right,1,32,0.4,1,0,-,180,0.43427669999982754,['n'],0.6754482999999709,1.452,1435.6552474,,,,,533,18,Woman,Right,
,,,,,,,,,,,,,,,,,533,18,Woman,Right,1,50,0.15,1,180,-,180,0.5479230000000825,['n'],1.1391859000000295,1.452,1439.8556415000003,,,,,533,18,Woman,Right,
,,,,,,,,,,,,,,,,,533,18,Woman,Right,1,24,0.4,1,0,-,180,0.29836029999978564,['n'],0.46766200000001845,1.458,1443.2548784,,,,,533,18,Woman,Right,
,,,,,,,,,,,,,,,,,533,18,Woman,Right,1,77,0.15,2,0,180,0,0.310745599999791,['n'],0.8752616000001581,1.452,1447.0546119,,,,,533,18,Woman,Right,
,,,,,,,,,,,,,,,,,533,18,Woman,Right,1,70,0.15,1,180,-,180,0.30753630000026533,['n'],0.9874909000000116,1.452,1450.8545458000003,,,,,533,18,Woman,Right,
,,,,,,,,,,,,,,,,,533,18,Woman,Right,1,26,0.4,1,180,-,180,1.5556218000001536,['y'],0.659527799999978,1.504,1455.4541904000002,,,,,533,18,Woman,Right,
,,,,,,,,,,,,,,,,,533,18,Woman,Right,1,68,0.15,1,0,-,0,0.5663115000002108,['n'],0.6587096999996902,1.258,1460.1208771000001,,,,,533,18,Woman,Right,
,,,,,,,,,,,,,,,,,533,18,Woman,Right,1,51,0.15,2,180,0,0,0.4738731999996162,['n'],0.939560899999833,1.48,1464.021224,,,,,533,18,Woman,Right,
,,,,,,,,,,,,,,,,,533,18,Woman,Right,1,72,0.15,1,0,-,0,0.4121623000000909,['n'],0.5235023999998702,1.468,1467.3209820000002,,,,,533,18,Woman,Right,
,,,,,,,,,,,,,,,,,533,18,Woman,Right,1,71,0.15,2,180,0,0,0.4158338000002004,['n'],0.7550655999998526,1.338,1470.9880278,,,,,533,18,Woman,Right,
,,,,,,,,,,,,,,,,,533,18,Woman,Right,1,16,0.4,1,0,-,0,0.4565708000000086,['n'],0.691558100000293,1.25,1474.9379838,,,,,533,18,Woman,Right,
,,,,,,,,,,,,,,,,,533,18,Woman,Right,1,9,0.4,2,0,180,180,0.485457199999928,['y'],0.7155381000002308,1.722,1479.0712378000003,,,,,533,18,Woman,Right,
,,,,,,,,,,,,,,,,,533,18,Woman,Right,1,25,0.4,2,0,180,180,0.46824930000002496,['n'],0.5553881999999248,1.35,1482.9701203,,,,,533,18,Woman,Right,
,,,,,,,,,,,,,,,,,533,18,Woman,Right,1,3,1,2,180,0,0,0.8241219999999885,['y'],0.5472441000001709,1.5979999999999999,1486.7370810000002,,,,,533,18,Woman,Right,
,,,,,,,,,,,,,,,,,533,18,Woman,Right,1,59,0.15,2,180,0,0,0.8295588999999381,['n'],0.7955460000002859,1.7,1491.0712384000003,,,,,533,18,Woman,Right,
,,,,,,,,,,,,,,,,,533,18,Woman,Right,1,22,0.4,1,180,-,0,1.3131353999997373,['y'],0.6589539999999943,1.588,1495.6868874000002,,,,,533,18,Woman,Right,
,,,,,,,,,,,,,,,,,533,18,Woman,Right,1,33,0.4,2,0,180,180,0.3078165000001718,['y'],1.6832400999996935,1.55,1500.2874294000003,,,,,533,18,Woman,Right,
,,,,,,,,,,,,,,,,,533,18,Woman,Right,1,66,0.15,1,180,-,180,0.7145800000002964,['n'],0.4673555999997916,1.46,1503.7869687000002,,,,,533,18,Woman,Right,
,,,,,,,,,,,,,,,,,533,18,Woman,Right,1,10,0.4,1,180,-,180,0.309337300000152,['n'],0.4994104000002153,1.512,1507.0207951000002,,,,,533,18,Woman,Right,
,,,,,,,,,,,,,,,,,533,18,Woman,Right,1,29,0.4,2,0,180,180,1.1354834999997365,['y'],0.5631852000001345,1.528,1511.1042372000002,,,,,533,18,Woman,Right,
,,,,,,,,,,,,,,,,,533,18,Woman,Right,1,44,0.15,1,0,-,180,0.6281731000003674,['n'],0.6675284000002648,1.208,1514.7042492,,,,,533,18,Woman,Right,
,,,,,,,,,,,,,,,,,533,18,Woman,Right,1,58,0.15,1,180,-,180,1.8250920999998925,['n'],0.987072999999782,1.362,1520.1861357000002,,,,,533,18,Woman,Right,
,,,,,,,,,,,,,,,,,533,18,Woman,Right,1,27,0.4,2,180,0,0,0.6720812999997179,['y'],1.251410599999872,1.63,1524.6875131000002,,,,,533,18,Woman,Right,
,,,,,,,,,,,,,,,,,533,18,Woman,Right,1,61,0.15,2,0,180,0,0.4216921000002003,['n'],0.6591328000004069,1.626,1528.2034266,,,,,533,18,Woman,Right,
,,,,,,,,,,,,,,,,,533,18,Woman,Right,1,60,0.15,1,0,-,0,0.39422209999975166,['n'],0.5313028999999005,1.6400000000000001,1531.5361732000001,,,,,533,18,Woman,Right,
,,,,,,,,,,,,,,,,,533,18,Woman,Right,1,37,0.4,2,0,180,180,0.6395345999999336,['y'],0.6107980000001589,1.53,1535.8528469000003,,,,,533,18,Woman,Right,
,,,,,,,,,,,,,,,,,533,18,Woman,Right,1,73,0.15,2,0,180,0,1.6694683000000623,['n'],2.80334079999966,1.538,1542.7040301000002,,,,,533,18,Woman,Right,
,,,,,,,,,,,,,,,,,533,18,Woman,Right,1,69,0.15,2,0,180,180,0.4405619999997725,['y'],0.6032978000002913,1.546,1546.2535273000003,,,,,533,18,Woman,Right,
,,,,,,,,,,,,,,,,,533,18,Woman,Right,1,1,1,2,0,180,180,0.3072636000001694,['y'],0.6591551999999865,1.534,1549.8359132,,,,,533,18,Woman,Right,
,,,,,,,,,,,,,,,,,533,18,Woman,Right,1,74,0.15,1,180,-,0,0.88438670000005,['n'],0.5793031000002884,1.536,1553.6365476,,,,,533,18,Woman,Right,
,,,,,,,,,,,,,,,,,533,18,Woman,Right,1,79,0.15,2,180,0,180,0.5085909999997966,['n'],0.43512209999971674,1.484,1557.0863857,,,,,533,18,Woman,Right,
,,,,,,,,,,,,,,,,,533,18,Woman,Right,1,67,0.15,2,180,0,180,0.4454184000001078,['n'],0.44330349999972896,1.416,1561.2367396,,,,,533,18,Woman,Right,
,,,,,,,,,,,,,,,,,533,18,Woman,Right,1,4,1,1,0,-,0,0.5736690000003364,['n'],2.355023000000074,1.604,1567.2692809,,,,,533,18,Woman,Right,
,,,,,,,,,,,,,,,,,533,18,Woman,Right,1,14,0.4,1,180,-,180,1.2102166000004217,['n'],0.7149681999999302,1.4020000000000001,1571.7537789000003,,,,,533,18,Woman,Right,
,,,,,,,,,,,,,,,,,533,18,Woman,Right,1,63,0.15,2,180,0,180,0.6276385000001028,['n'],0.3712669999999889,1.3,1575.2359345,,,,,533,18,Woman,Right,
,,,,,,,,,,,,,,,,,533,18,Woman,Right,1,41,0.4,2,0,180,180,0.9161360000002787,['y'],0.6591041000001496,1.5899999999999999,1579.4358578000001,,,,,533,18,Woman,Right,
,,,,,,,,,,,,,,,,,533,18,Woman,Right,1,57,0.15,2,0,180,0,0.46835360000022774,['n'],0.8032264999997096,1.452,1584.0868038000003,,,,,533,18,Woman,Right,
,,,,,,,,,,,,,,,,,533,18,Woman,Right,1,19,0.4,2,180,0,0,0.43777060000002166,['y'],0.9150188999997226,1.476,1589.5858664000002,,,,,533,18,Woman,Right,
,,,,,,,,,,,,,,,,,533,18,Woman,Right,1,21,0.4,2,0,180,180,0.6740234999997483,['y'],0.6029226000000563,1.54,1594.0200735000003,,,,,533,18,Woman,Right,
,,,,,,,,,,,,,,,,,533,18,Woman,Right,1,23,0.4,2,180,0,0,0.5556845000000976,['n'],0.9552117000002909,1.496,1598.0863337,,,,,533,18,Woman,Right,
,,,,,,,,,,,,,,,,,533,18,Woman,Right,1,35,0.4,2,180,0,180,0.5627964999998767,['n'],1.1635988000002726,1.424,1603.7360706,,,,,533,18,Woman,Right,
,,,,,,,,,,,,,,,,,533,18,Woman,Right,1,56,0.15,1,0,-,0,0.6492057000000386,['n'],0.5391460000000734,1.462,1608.5199008,,,,,533,18,Woman,Right,
,,,,,,,,,,,,,,,,,533,18,Woman,Right,1,62,0.15,1,180,-,180,0.7806709999999839,['n'],1.3399555999999393,1.46,1613.9027495,,,,,533,18,Woman,Right,
,,,,,,,,,,,,,,,,,533,18,Woman,Right,1,40,0.4,1,0,-,0,0.2512830999999096,['n'],0.4112116999999671,1.486,1617.0703613,,,,,533,18,Woman,Right,
,,,,,,,,,,,,,,,,,533,18,Woman,Right,1,7,1,2,180,0,0,0.4992929000000004,['y'],0.4669682000003377,1.772,1621.9196953,,,,,533,18,Woman,Right,
,,,,,,,,,,,,,,,,,533,18,Woman,Right,1,78,0.15,1,180,-,0,0.4067382000002908,['n'],0.4596487000003435,1.638,1625.3692291000002,,,,,533,18,Woman,Right,
,,,,,,,,,,,,,,,,,533,18,Woman,Right,1,31,0.4,2,180,0,0,0.8202572999998665,['y'],0.4117123000000902,1.6560000000000001,1628.9687551000002,,,,,533,18,Woman,Right,
,,,,,,,,,,,,,,,,,533,18,Woman,Right,1,49,0.15,2,0,180,180,0.5278487999999015,['y'],0.555202300000019,1.588,1632.5189127000003,,,,,533,18,Woman,Right,
,,,,,,,,,,,,,,,,,533,18,Woman,Right,1,12,0.4,1,0,-,180,0.6617403000000195,['n'],0.6274962000002233,1.572,1636.135299,,,,,533,18,Woman,Right,
,,,,,,,,,,,,,,,,,533,18,Woman,Right,2,19,0.4,2,180,0,180,0.8144065999999839,['n'],1.5394923000003473,1.532,1652.8680320000003,61.25,87.5,50.0,,533,18,Woman,Right,
,,,,,,,,,,,,,,,,,533,18,Woman,Right,2,22,0.4,1,180,-,180,0.11295560000007754,['n'],0.48230839999996533,1.53,1655.9359678,,,,,533,18,Woman,Right,
,,,,,,,,,,,,,,,,,533,18,Woman,Right,2,43,0.4,2,180,0,0,0.3479016999999658,['n'],0.5949008000002323,1.512,1659.1692033,,,,,533,18,Woman,Right,
,,,,,,,,,,,,,,,,,533,18,Woman,Right,2,37,0.4,2,0,180,180,0.7336173000003328,['y'],0.4514203999997335,1.518,1662.7028002000002,,,,,533,18,Woman,Right,
,,,,,,,,,,,,,,,,,533,18,Woman,Right,2,77,0.15,2,0,180,180,0.4977564999999231,['n'],0.7386831999997412,1.526,1666.3190651,,,,,533,18,Woman,Right,
,,,,,,,,,,,,,,,,,533,18,Woman,Right,2,65,0.15,2,0,180,0,0.8163868000001457,['n'],0.7710489999999481,1.542,1670.2352368000002,,,,,533,18,Woman,Right,
,,,,,,,,,,,,,,,,,533,18,Woman,Right,2,60,0.15,1,0,-,180,0.30559089999997013,['n'],0.5071826999997029,1.38,1673.5697042000002,,,,,533,18,Woman,Right,
,,,,,,,,,,,,,,,,,533,18,Woman,Right,2,13,0.4,2,0,180,180,0.5453716000001805,['y'],0.6022900000002664,1.422,1677.1686443000003,,,,,533,18,Woman,Right,
,,,,,,,,,,,,,,,,,533,18,Woman,Right,2,78,0.15,1,180,-,0,0.36796529999992345,['n'],0.7952277999997932,1.19,1680.9526279000002,,,,,533,18,Woman,Right,
,,,,,,,,,,,,,,,,,533,18,Woman,Right,2,5,1,2,0,180,180,0.33850729999994655,['y'],0.8671744000002946,1.692,1685.3349278,,,,,533,18,Woman,Right,
,,,,,,,,,,,,,,,,,533,18,Woman,Right,2,36,0.4,1,0,-,180,0.35743520000005446,['y'],0.6192093999998178,1.558,1688.9180516000001,,,,,533,18,Woman,Right,
,,,,,,,,,,,,,,,,,533,18,Woman,Right,2,67,0.15,2,180,0,180,0.3787288000003173,['n'],0.4592774000002464,1.342,1692.1192779000003,,,,,533,18,Woman,Right,
,,,,,,,,,,,,,,,,,533,18,Woman,Right,2,74,0.15,1,180,-,180,0.22297699999990073,['n'],0.4514625000001615,1.428,1695.5190876000001,,,,,533,18,Woman,Right,
,,,,,,,,,,,,,,,,,533,18,Woman,Right,2,11,0.4,2,180,0,0,0.3070413999998891,['y'],0.5632725000000391,1.306,1699.1344539000002,,,,,533,18,Woman,Right,
,,,,,,,,,,,,,,,,,533,18,Woman,Right,2,2,1,1,180,-,0,0.21099990000038815,['y'],0.5472907999997005,1.498,1702.4353552000002,,,,,533,18,Woman,Right,
,,,,,,,,,,,,,,,,,533,18,Woman,Right,2,28,0.4,1,0,-,180,0.48200679999990825,['n'],0.41941310000038357,1.346,1705.8350484000002,,,,,533,18,Woman,Right,
,,,,,,,,,,,,,,,,,533,18,Woman,Right,2,61,0.15,2,0,180,180,0.36401399999977,['y'],0.5477597000003698,1.326,1709.2354983,,,,,533,18,Woman,Right,
,,,,,,,,,,,,,,,,,533,18,Woman,Right,2,16,0.4,1,0,-,180,0.3996279000002687,['y'],0.46561620000011317,1.3399999999999999,1712.6690437000002,,,,,533,18,Woman,Right,
,,,,,,,,,,,,,,,,,533,18,Woman,Right,2,40,0.4,1,0,-,180,0.4736548999999286,['y'],0.451035900000079,1.326,1715.9343903000004,,,,,533,18,Woman,Right,
,,,,,,,,,,,,,,,,,533,18,Woman,Right,2,49,0.15,2,0,180,0,0.3190024999998968,['n'],0.547770600000149,1.448,1719.2347974,,,,,533,18,Woman,Right,
,,,,,,,,,,,,,,,,,533,18,Woman,Right,2,66,0.15,1,180,-,180,0.19987859999991997,['n'],0.3710338999999294,1.192,1722.218045,,,,,533,18,Woman,Right,
,,,,,,,,,,,,,,,,,533,18,Woman,Right,2,35,0.4,2,180,0,0,0.5903198999999404,['y'],0.8913790999999947,1.2,1727.1018339000002,,,,,533,18,Woman,Right,
,,,,,,,,,,,,,,,,,533,18,Woman,Right,2,7,1,2,180,0,0,0.34778559999995196,['y'],0.4434803999997712,1.77,1730.7355209000002,,,,,533,18,Woman,Right,
,,,,,,,,,,,,,,,,,533,18,Woman,Right,2,9,0.4,2,0,180,0,2.1245269999999437,['n'],0.8590908999999556,1.58,1736.2511412000003,,,,,533,18,Woman,Right,
,,,,,,,,,,,,,,,,,533,18,Woman,Right,2,34,0.4,1,180,-,180,0.39780919999975595,['n'],0.4273811999996724,1.312,1739.3847244000003,,,,,533,18,Woman,Right,
,,,,,,,,,,,,,,,,,533,18,Woman,Right,2,32,0.4,1,0,-,0,0.6713856000001215,['y'],0.3070858999999473,1.392,1742.9016757,,,,,533,18,Woman,Right,
,,,,,,,,,,,,,,,,,533,18,Woman,Right,2,29,0.4,2,0,180,180,0.3509499000001597,['y'],1.0912126999996872,1.504,1746.7353234000002,,,,,533,18,Woman,Right,
,,,,,,,,,,,,,,,,,533,18,Woman,Right,2,27,0.4,2,180,0,0,0.4452338000000964,['n'],0.6593794000000344,1.158,1750.6848653000002,,,,,533,18,Woman,Right,
,,,,,,,,,,,,,,,,,533,18,Woman,Right,2,1,1,2,0,180,180,0.2939211999996587,['y'],0.6672111000002587,1.672,1756.3680728,,,,,533,18,Woman,Right,
,,,,,,,,,,,,,,,,,533,18,Woman,Right,2,46,0.15,1,180,-,180,0.9398268999998436,['n'],1.3548845999998775,1.286,1761.1686267,,,,,533,18,Woman,Right,
,,,,,,,,,,,,,,,,,533,18,Woman,Right,2,55,0.15,2,180,0,0,2.1621280999997907,['n'],0.7710837999998148,1.096,1766.7017638000002,,,,,533,18,Woman,Right,
,,,,,,,,,,,,,,,,,533,18,Woman,Right,2,63,0.15,2,180,0,180,0.7098107000001619,['n'],0.5789849000002505,1.612,1771.5504717000003,,,,,533,18,Woman,Right,
,,,,,,,,,,,,,,,,,533,18,Woman,Right,2,20,0.4,1,0,-,0,0.5275606000000153,['n'],0.7313441999999668,1.576,1775.6846138,,,,,533,18,Woman,Right,
,,,,,,,,,,,,,,,,,533,18,Woman,Right,2,64,0.15,1,0,-,180,0.8721828000002461,['n'],0.9069978000002266,1.612,1780.0362370000003,,,,,533,18,Woman,Right,
,,,,,,,,,,,,,,,,,533,18,Woman,Right,2,47,0.15,2,180,0,0,1.1105231999999887,['y'],1.2436994999998205,1.604,1784.884872,,,,,533,18,Woman,Right,
,,,,,,,,,,,,,,,,,533,18,Woman,Right,2,41,0.4,2,0,180,180,0.3040310999999747,['y'],0.5317528000000493,1.604,1787.9336072,,,,,533,18,Woman,Right,
,,,,,,,,,,,,,,,,,533,18,Woman,Right,2,57,0.15,2,0,180,180,0.2579806999997345,['n'],0.5157008000001042,1.3559999999999999,1791.1175739,,,,,533,18,Woman,Right,
,,,,,,,,,,,,,,,,,533,18,Woman,Right,2,72,0.15,1,0,-,180,1.7870889999999235,['n'],0.8432675999997628,1.33,1796.2014396,,,,,533,18,Woman,Right,
,,,,,,,,,,,,,,,,,533,18,Woman,Right,2,26,0.4,1,180,-,180,0.3614474999999402,['n'],0.5637171999997008,1.3439999999999999,1799.5515683000003,,,,,533,18,Woman,Right,
,,,,,,,,,,,,,,,,,533,18,Woman,Right,2,30,0.4,1,180,-,0,0.7384038000000146,['n'],0.3152240999997957,1.5899999999999999,1803.5347233000002,,,,,533,18,Woman,Right,
,,,,,,,,,,,,,,,,,533,18,Woman,Right,2,76,0.15,1,0,-,0,0.26615720000017973,['n'],0.6995233000002372,1.564,1807.1006469000004,,,,,533,18,Woman,Right,
,,,,,,,,,,,,,,,,,533,18,Woman,Right,2,51,0.15,2,180,0,180,0.15637789999982488,['n'],0.4113174999997682,1.354,1810.0511587,,,,,533,18,Woman,Right,
,,,,,,,,,,,,,,,,,533,18,Woman,Right,2,3,1,2,180,0,0,0.35061540000015157,['y'],0.39500660000021526,1.824,1814.4173962,,,,,533,18,Woman,Right,
,,,,,,,,,,,,,,,,,533,18,Woman,Right,2,0,1,1,0,-,180,0.6880357999998523,['n'],0.8275313999997707,1.432,1818.5499599,,,,,533,18,Woman,Right,
,,,,,,,,,,,,,,,,,533,18,Woman,Right,2,71,0.15,2,180,0,0,1.9392485000003035,['n'],0.2036023999999088,1.074,1823.2174684000001,,,,,533,18,Woman,Right,
,,,,,,,,,,,,,,,,,533,18,Woman,Right,2,58,0.15,1,180,-,180,0.295846900000015,['n'],0.4266947999999502,1.25,1827.3014834,,,,,533,18,Woman,Right,
,,,,,,,,,,,,,,,,,533,18,Woman,Right,2,50,0.15,1,180,-,180,1.2135840999999346,['n'],0.37907899999981964,1.312,1831.1666844000001,,,,,533,18,Woman,Right,
,,,,,,,,,,,,,,,,,533,18,Woman,Right,2,48,0.15,1,0,-,180,0.4352360000002591,['n'],0.4113051999997879,1.318,1834.1841914000001,,,,,533,18,Woman,Right,
,,,,,,,,,,,,,,,,,533,18,Woman,Right,2,23,0.4,2,180,0,0,0.510896600000251,['y'],0.43558549999988827,1.362,1837.9685830000003,,,,,533,18,Woman,Right,
,,,,,,,,,,,,,,,,,533,18,Woman,Right,2,68,0.15,1,0,-,180,0.28479529999958686,['n'],0.4192518999998356,1.328,1840.867937,,,,,533,18,Woman,Right,
,,,,,,,,,,,,,,,,,533,18,Woman,Right,2,45,0.15,2,0,180,0,0.749286100000063,['n'],0.5392271000000619,1.55,1844.4334098,,,,,533,18,Woman,Right,
,,,,,,,,,,,,,,,,,533,18,Woman,Right,2,54,0.15,1,180,-,180,0.1796534000000065,['n'],0.4914432000000488,1.53,1847.5176558000003,,,,,533,18,Woman,Right,
,,,,,,,,,,,,,,,,,533,18,Woman,Right,2,39,0.4,2,180,0,180,1.6443719999997484,['y'],0.46716120000019146,1.514,1851.8176705,,,,,533,18,Woman,Right,
,,,,,,,,,,,,,,,,,533,18,Woman,Right,2,10,0.4,1,180,-,180,0.2020921999996972,['n'],0.3234650999997939,1.508,1854.4494743,,,,,533,18,Woman,Right,
,,,,,,,,,,,,,,,,,533,18,Woman,Right,2,59,0.15,2,180,0,180,0.12616650000018126,['n'],0.3232868000000053,1.51,1857.3674393000001,,,,,533,18,Woman,Right,
,,,,,,,,,,,,,,,,,533,18,Woman,Right,2,75,0.15,2,180,0,0,1.4136690000000272,['n'],1.8752229999995507,1.326,1863.3837478000005,,,,,533,18,Woman,Right,
,,,,,,,,,,,,,,,,,533,18,Woman,Right,2,33,0.4,2,0,180,0,1.8491748999995252,['y'],0.507368999999926,1.5779999999999998,1868.1499335999997,,,,,533,18,Woman,Right,
,,,,,,,,,,,,,,,,,533,18,Woman,Right,2,52,0.15,1,0,-,0,0.8719981000003827,['n'],0.29887849999977334,1.564,1871.4842288,,,,,533,18,Woman,Right,
,,,,,,,,,,,,,,,,,533,18,Woman,Right,2,79,0.15,2,180,0,180,0.5256021000004694,['n'],1.0754784000000654,1.562,1875.4669402,,,,,533,18,Woman,Right,
,,,,,,,,,,,,,,,,,533,18,Woman,Right,2,18,0.4,1,180,-,180,0.5675247000008312,['n'],0.3232334999993327,1.55,1878.5842543999997,,,,,533,18,Woman,Right,
,,,,,,,,,,,,,,,,,533,18,Woman,Right,2,31,0.4,2,180,0,180,0.9269560000002457,['n'],0.8196520000001328,1.542,1883.9163331999998,,,,,533,18,Woman,Right,
,,,,,,,,,,,,,,,,,533,18,Woman,Right,2,15,0.4,2,180,0,0,0.30827320000025793,['n'],0.5155414000000746,1.612,1887.5504947999998,,,,,533,18,Woman,Right,
,,,,,,,,,,,,,,,,,533,18,Woman,Right,2,24,0.4,1,0,-,0,0.2767686999995931,['n'],0.5471823999996559,1.566,1891.2004660000002,,,,,533,18,Woman,Right,
,,,,,,,,,,,,,,,,,533,18,Woman,Right,2,25,0.4,2,0,180,0,0.6983141999999134,['n'],0.4829546000000846,1.58,1895.2663203000002,,,,,533,18,Woman,Right,
,,,,,,,,,,,,,,,,,533,18,Woman,Right,2,8,0.4,1,0,-,0,0.5731433000000834,['n'],1.2755582999998296,1.62,1899.4668219000005,,,,,533,18,Woman,Right,
,,,,,,,,,,,,,,,,,533,18,Woman,Right,2,12,0.4,1,0,-,0,0.37415799999962474,['n'],0.4030580999997255,1.5819999999999999,1902.4498894999997,,,,,533,18,Woman,Right,
,,,,,,,,,,,,,,,,,533,18,Woman,Right,2,44,0.15,1,0,-,180,0.6716862000002948,['n'],0.315176999999494,1.346,1906.4668775999999,,,,,533,18,Woman,Right,
,,,,,,,,,,,,,,,,,533,18,Woman,Right,2,53,0.15,2,0,180,0,0.7699815999994826,['n'],0.6194445999999516,1.326,1910.9837818000005,,,,,533,18,Woman,Right,
,,,,,,,,,,,,,,,,,533,18,Woman,Right,2,4,1,1,0,-,0,0.40404469999975845,['n'],0.6908143999999083,1.732,1914.9671518000005,,,,,533,18,Woman,Right,
,,,,,,,,,,,,,,,,,533,18,Woman,Right,2,14,0.4,1,180,-,180,1.068949800000155,['n'],1.3873058999997738,1.1179999999999999,1920.1830221,,,,,533,18,Woman,Right,
,,,,,,,,,,,,,,,,,533,18,Woman,Right,2,69,0.15,2,0,180,180,0.5172230999996827,['n'],0.8269231000003856,1.1059999999999999,1924.0159085000005,,,,,533,18,Woman,Right,
,,,,,,,,,,,,,,,,,533,18,Woman,Right,2,17,0.4,2,0,180,0,0.7221355000001495,['y'],0.747469999999339,1.62,1928.1164354000002,,,,,533,18,Woman,Right,
,,,,,,,,,,,,,,,,,533,18,Woman,Right,2,21,0.4,2,0,180,0,1.0238948999995046,['y'],0.411406100000022,1.568,1931.8001700000004,,,,,533,18,Woman,Right,
,,,,,,,,,,,,,,,,,533,18,Woman,Right,2,62,0.15,1,180,-,180,0.3942682999995668,['n'],0.7234333999995215,1.306,1935.2498629000002,,,,,533,18,Woman,Right,
,,,,,,,,,,,,,,,,,533,18,Woman,Right,2,38,0.4,1,180,-,0,0.31561839999994845,['y'],0.5166802000003372,1.3479999999999999,1938.4503881,,,,,533,18,Woman,Right,
,,,,,,,,,,,,,,,,,533,18,Woman,Right,2,42,0.4,1,180,-,180,0.6493112999996811,['y'],0.7630405999998402,1.334,1942.3497550000002,,,,,533,18,Woman,Right,
,,,,,,,,,,,,,,,,,533,18,Woman,Right,2,6,1,1,180,-,0,0.38082459999986895,['n'],0.41970820000005915,1.354,1945.4164923999997,,,,,533,18,Woman,Right,
,,,,,,,,,,,,,,,,,533,18,Woman,Right,2,56,0.15,1,0,-,0,0.3626670000003287,['n'],0.7874299000004612,1.306,1948.9661198000003,,,,,533,18,Woman,Right,
,,,,,,,,,,,,,,,,,533,18,Woman,Right,2,70,0.15,1,180,-,0,0.5580639999998311,['n'],1.6590218000001187,1.18,1953.5836946,,,,,533,18,Woman,Right,
,,,,,,,,,,,,,,,,,533,18,Woman,Right,2,73,0.15,2,0,180,0,0.6759056999999302,['n'],0.4671867999995811,1.086,1957.1157103000005,,,,,533,18,Woman,Right,
,,,,,,,,,,,,,,,,,533,18,Woman,Right,3,77,0.15,2,0,180,180,0.38130530000034923,['n'],0.8514887999999701,1.37,1984.232239,56.25,82.5,42.5,,533,18,Woman,Right,
,,,,,,,,,,,,,,,,,533,18,Woman,Right,3,51,0.15,2,180,0,180,0.8188600000003134,['n'],0.4033771999993405,1.404,1987.6825690000005,,,,,533,18,Woman,Right,
,,,,,,,,,,,,,,,,,533,18,Woman,Right,3,76,0.15,1,0,-,0,0.7663326000001689,['n'],0.3232591999994838,1.528,1991.1822995000002,,,,,533,18,Woman,Right,
,,,,,,,,,,,,,,,,,533,18,Woman,Right,3,23,0.4,2,180,0,0,0.6679469999999128,['n'],2.506902699999955,1.43,1996.6987411,,,,,533,18,Woman,Right,
,,,,,,,,,,,,,,,,,533,18,Woman,Right,3,41,0.4,2,0,180,180,1.1702676999993855,['n'],4.642805200000112,1.1179999999999999,2005.5664465,,,,,533,18,Woman,Right,
,,,,,,,,,,,,,,,,,533,18,Woman,Right,3,13,0.4,2,0,180,0,0.5168357000002288,['n'],0.28288079999947513,1.258,2008.8660808000004,,,,,533,18,Woman,Right,
,,,,,,,,,,,,,,,,,533,18,Woman,Right,3,40,0.4,1,0,-,0,0.2856779000003371,['n'],0.9877885000005335,1.24,2013.3827024000002,,,,,533,18,Woman,Right,
,,,,,,,,,,,,,,,,,533,18,Woman,Right,3,26,0.4,1,180,-,180,0.2538884000005055,['n'],0.6432735999997021,1.246,2016.5328196,,,,,533,18,Woman,Right,
,,,,,,,,,,,,,,,,,533,18,Woman,Right,3,73,0.15,2,0,180,180,1.9127633000007336,['n'],0.5549461999999039,1.342,2021.1480241,,,,,533,18,Woman,Right,
,,,,,,,,,,,,,,,,,533,18,Woman,Right,3,16,0.4,1,0,-,180,0.21664490000057413,['n'],0.4109433000003264,1.592,2024.8494091000002,,,,,533,18,Woman,Right,
,,,,,,,,,,,,,,,,,533,18,Woman,Right,3,37,0.4,2,0,180,180,0.7158380000000761,['n'],1.0594470999994883,1.542,2028.8659575000001,,,,,533,18,Woman,Right,
,,,,,,,,,,,,,,,,,533,18,Woman,Right,3,63,0.15,2,180,0,0,0.37892269999974815,['n'],0.43575069999951666,1.542,2032.1324958000005,,,,,533,18,Woman,Right,
,,,,,,,,,,,,,,,,,533,18,Woman,Right,3,17,0.4,2,0,180,180,0.3872171000002709,['n'],0.40357830000084505,1.534,2035.2827494000003,,,,,533,18,Woman,Right,
,,,,,,,,,,,,,,,,,533,18,Woman,Right,3,19,0.4,2,180,0,180,0.2723843999992823,['n'],0.37975790000018605,1.534,2038.1150892000005,,,,,533,18,Woman,Right,
,,,,,,,,,,,,,,,,,533,18,Woman,Right,3,38,0.4,1,180,-,0,0.3257681000004595,['n'],0.3396461000002091,1.534,2040.8983082000004,,,,,533,18,Woman,Right,
,,,,,,,,,,,,,,,,,533,18,Woman,Right,3,59,0.15,2,180,0,180,0.03768359999958193,['n'],0.451655099999698,1.532,2043.6157381000003,,,,,533,18,Woman,Right,
,,,,,,,,,,,,,,,,,533,18,Woman,Right,3,50,0.15,1,180,-,180,0.7846413999996003,['n'],0.8354792000000089,1.3980000000000001,2048.1325143000004,,,,,533,18,Woman,Right,
,,,,,,,,,,,,,,,,,533,18,Woman,Right,3,22,0.4,1,180,-,180,0.3443091999997705,['n'],0.45134519999919576,1.418,2051.0317333000003,,,,,533,18,Woman,Right,
,,,,,,,,,,,,,,,,,533,18,Woman,Right,3,29,0.4,2,0,180,180,0.22393499999998312,['n'],0.515067999999701,1.346,2055.6479302,,,,,533,18,Woman,Right,
,,,,,,,,,,,,,,,,,533,18,Woman,Right,3,10,0.4,1,180,-,0,0.8751423000003342,['y'],0.5070079999995869,1.3559999999999999,2059.7653447000002,,,,,533,18,Woman,Right,
,,,,,,,,,,,,,,,,,533,18,Woman,Right,3,24,0.4,1,0,-,180,0.43836430000010296,['n'],0.5874465000006239,1.21,2063.0143995,,,,,533,18,Woman,Right,
,,,,,,,,,,,,,,,,,533,18,Woman,Right,3,0,1,1,0,-,0,0.5645210000002407,['y'],1.0272451999999248,1.596,2066.9985579000004,,,,,533,18,Woman,Right,
,,,,,,,,,,,,,,,,,533,18,Woman,Right,3,42,0.4,1,180,-,180,0.3192331000000195,['n'],0.4989322000001266,1.338,2069.9983837,,,,,533,18,Woman,Right,
,,,,,,,,,,,,,,,,,533,18,Woman,Right,3,69,0.15,2,0,180,180,0.5997182999999495,['y'],0.5330015999998068,1.35,2073.4979656000005,,,,,533,18,Woman,Right,
,,,,,,,,,,,,,,,,,533,18,Woman,Right,3,74,0.15,1,180,-,180,0.2991473000001861,['n'],1.1791794000000664,1.246,2079.0317408,,,,,533,18,Woman,Right,
,,,,,,,,,,,,,,,,,533,18,Woman,Right,3,20,0.4,1,0,-,0,1.2587836000002426,['n'],0.4587945999992371,1.286,2083.2481644,,,,,533,18,Woman,Right,
,,,,,,,,,,,,,,,,,533,18,Woman,Right,3,25,0.4,2,0,180,180,2.0419028999995135,['y'],0.6907237000004898,1.308,2088.2320427000004,,,,,533,18,Woman,Right,
,,,,,,,,,,,,,,,,,533,18,Woman,Right,3,49,0.15,2,0,180,180,0.3001606999996511,['n'],1.579250100000536,1.292,2092.5324385000004,,,,,533,18,Woman,Right,
,,,,,,,,,,,,,,,,,533,18,Woman,Right,3,36,0.4,1,0,-,0,1.8249496999997064,['n'],0.43565269999999146,1.452,2097.4140181000002,,,,,533,18,Woman,Right,
,,,,,,,,,,,,,,,,,533,18,Woman,Right,3,28,0.4,1,0,-,180,0.37045080000007147,['n'],0.8754731999997603,1.548,2100.9985762000006,,,,,533,18,Woman,Right,
,,,,,,,,,,,,,,,,,533,18,Woman,Right,3,27,0.4,2,180,0,0,0.23706450000008772,['n'],0.4119569999993473,1.554,2104.1146666000004,,,,,533,18,Woman,Right,
,,,,,,,,,,,,,,,,,533,18,Woman,Right,3,52,0.15,1,0,-,180,0.3988742000001366,['n'],0.3231187999999747,1.536,2107.3312296000004,,,,,533,18,Woman,Right,
,,,,,,,,,,,,,,,,,533,18,Woman,Right,3,54,0.15,1,180,-,180,0.29251600000043254,['n'],0.3234882999995534,1.534,2110.4146703000006,,,,,533,18,Woman,Right,
,,,,,,,,,,,,,,,,,533,18,Woman,Right,3,56,0.15,1,0,-,180,0.548852099999749,['n'],0.9470920999992813,1.56,2114.4318335,,,,,533,18,Woman,Right,
,,,,,,,,,,,,,,,,,533,18,Woman,Right,3,79,0.15,2,180,0,0,0.5989135999998325,['n'],0.6782714999999371,1.238,2118.7478368,,,,,533,18,Woman,Right,
,,,,,,,,,,,,,,,,,533,18,Woman,Right,3,45,0.15,2,0,180,180,0.20098250000046392,['n'],0.8031036000002132,1.3980000000000001,2122.1977562,,,,,533,18,Woman,Right,
,,,,,,,,,,,,,,,,,533,18,Woman,Right,3,46,0.15,1,180,-,0,0.612653400000454,['y'],0.49150940000072296,1.4100000000000001,2125.4473353000003,,,,,533,18,Woman,Right,
,,,,,,,,,,,,,,,,,533,18,Woman,Right,3,66,0.15,1,180,-,0,0.8092391999998654,['n'],0.436019299999316,1.4100000000000001,2128.9316598000005,,,,,533,18,Woman,Right,
,,,,,,,,,,,,,,,,,533,18,Woman,Right,3,18,0.4,1,180,-,180,0.41651720000027126,['n'],0.37119799999982206,1.396,2131.8969583,,,,,533,18,Woman,Right,
,,,,,,,,,,,,,,,,,533,18,Woman,Right,3,61,0.15,2,0,180,0,0.5658436999992773,['n'],0.29252850000011676,1.4020000000000001,2134.9308425,,,,,533,18,Woman,Right,
,,,,,,,,,,,,,,,,,533,18,Woman,Right,3,2,1,1,180,-,180,0.38286000000061904,['n'],0.6111756000000241,1.376,2138.0474220000006,,,,,533,18,Woman,Right,
,,,,,,,,,,,,,,,,,533,18,Woman,Right,3,5,1,2,0,180,0,1.1834551000001738,['y'],0.41896470000028785,1.366,2141.8813359000005,,,,,533,18,Woman,Right,
,,,,,,,,,,,,,,,,,533,18,Woman,Right,3,67,0.15,2,180,0,0,0.5048227999996016,['n'],0.3155477999998766,1.3319999999999999,2145.1473565000006,,,,,533,18,Woman,Right,
,,,,,,,,,,,,,,,,,533,18,Woman,Right,3,32,0.4,1,0,-,0,0.2646058999998786,['y'],0.5951494000000821,1.29,2148.4147583000004,,,,,533,18,Woman,Right,
,,,,,,,,,,,,,,,,,533,18,Woman,Right,3,78,0.15,1,180,-,180,0.29984069999954954,['n'],0.8986266000001706,1.242,2151.8642980000004,,,,,533,18,Woman,Right,
,,,,,,,,,,,,,,,,,533,18,Woman,Right,3,3,1,2,180,0,0,0.4014299000000392,['y'],0.5149726999998165,1.252,2155.0479918,,,,,533,18,Woman,Right,
,,,,,,,,,,,,,,,,,533,18,Woman,Right,3,7,1,2,180,0,0,0.3303019000004497,['y'],0.41103709999970306,1.268,2157.9969992000006,,,,,533,18,Woman,Right,
,,,,,,,,,,,,,,,,,533,18,Woman,Right,3,1,1,2,0,180,180,0.5231359999997949,['y'],0.22673500000018976,1.24,2161.1807424999997,,,,,533,18,Woman,Right,
,,,,,,,,,,,,,,,,,533,18,Woman,Right,3,39,0.4,2,180,0,0,0.5114192999999432,['y'],0.3632890999997471,1.168,2166.6138032,,,,,533,18,Woman,Right,
,,,,,,,,,,,,,,,,,533,18,Woman,Right,3,58,0.15,1,180,-,0,0.3071367000002283,['n'],0.45124399999986053,1.526,2170.9469861,,,,,533,18,Woman,Right,
,,,,,,,,,,,,,,,,,533,18,Woman,Right,3,48,0.15,1,0,-,0,0.6476296999999249,['n'],0.2590290999996796,1.49,2174.5307731000003,,,,,533,18,Woman,Right,
,,,,,,,,,,,,,,,,,533,18,Woman,Right,3,34,0.4,1,180,-,180,0.2157216999994489,['n'],1.00174909999987,1.486,2178.8975419999997,,,,,533,18,Woman,Right,
,,,,,,,,,,,,,,,,,533,18,Woman,Right,3,43,0.4,2,180,0,0,0.8014749999993,['n'],1.1393760999999358,1.528,2183.4804448000004,,,,,533,18,Woman,Right,
,,,,,,,,,,,,,,,,,533,18,Woman,Right,3,12,0.4,1,0,-,180,0.4200648000005458,['n'],0.34679070000038337,1.3980000000000001,2186.5303451,,,,,533,18,Woman,Right,
,,,,,,,,,,,,,,,,,533,18,Woman,Right,3,9,0.4,2,0,180,180,0.22607419999985723,['y'],0.3874968000000081,1.3980000000000001,2189.4963776000004,,,,,533,18,Woman,Right,
,,,,,,,,,,,,,,,,,533,18,Woman,Right,3,75,0.15,2,180,0,180,0.25258689999918715,['y'],0.595024100000046,1.3980000000000001,2192.4798324000003,,,,,533,18,Woman,Right,
,,,,,,,,,,,,,,,,,533,18,Woman,Right,3,44,0.15,1,0,-,180,0.14929019999999582,['n'],0.29657860000043,1.3980000000000001,2195.1644115,,,,,533,18,Woman,Right,
,,,,,,,,,,,,,,,,,533,18,Woman,Right,3,65,0.15,2,0,180,180,0.16361960000085674,['n'],0.8674565000001166,1.3980000000000001,2198.7468575000003,,,,,533,18,Woman,Right,
,,,,,,,,,,,,,,,,,533,18,Woman,Right,3,70,0.15,1,180,-,180,0.016414200000326673,['n'],0.6992725000000064,1.3980000000000001,2201.5973025000003,,,,,533,18,Woman,Right,
,,,,,,,,,,,,,,,,,533,18,Woman,Right,3,11,0.4,2,180,0,180,0.04932910000025004,['y'],1.42773649999981,1.4,2205.4312964,,,,,533,18,Woman,Right,
,,,,,,,,,,,,,,,,,533,18,Woman,Right,3,30,0.4,1,180,-,180,0.285766799999692,['n'],1.7552455000004556,1.366,2209.5967330000003,,,,,533,18,Woman,Right,
,,,,,,,,,,,,,,,,,533,18,Woman,Right,3,4,1,1,0,-,0,0.5463368000000628,['n'],0.9553601999996317,1.62,2213.4962495,,,,,533,18,Woman,Right,
,,,,,,,,,,,,,,,,,533,18,Woman,Right,3,47,0.15,2,180,0,180,0.46014800000011746,['n'],0.44254189999992377,1.556,2216.8964768000005,,,,,533,18,Woman,Right,
,,,,,,,,,,,,,,,,,533,18,Woman,Right,3,64,0.15,1,0,-,180,0.4187844000007317,['n'],0.7233152999997401,1.38,2221.7138272,,,,,533,18,Woman,Right,
,,,,,,,,,,,,,,,,,533,18,Woman,Right,3,14,0.4,1,180,-,0,0.760034099999757,['n'],0.691251100000045,1.38,2225.9795537,,,,,533,18,Woman,Right,
,,,,,,,,,,,,,,,,,533,18,Woman,Right,3,31,0.4,2,180,0,0,0.40485460000036255,['y'],0.5076913000002605,1.362,2229.248168,,,,,533,18,Woman,Right,
,,,,,,,,,,,,,,,,,533,18,Woman,Right,3,15,0.4,2,180,0,0,0.30625099999997474,['y'],0.5237210000004779,1.576,2232.7633192000003,,,,,533,18,Woman,Right,
,,,,,,,,,,,,,,,,,533,18,Woman,Right,3,72,0.15,1,0,-,180,0.33579250000002503,['n'],0.44215619999977207,1.546,2235.8307644000006,,,,,533,18,Woman,Right,
,,,,,,,,,,,,,,,,,533,18,Woman,Right,3,33,0.4,2,0,180,180,0.37010060000011435,['n'],0.2991286999995282,1.536,2238.7800076000003,,,,,533,18,Woman,Right,
,,,,,,,,,,,,,,,,,533,18,Woman,Right,3,6,1,1,180,-,0,0.5617261999996117,['y'],0.27495679999992717,1.088,2243.0631166000003,,,,,533,18,Woman,Right,
,,,,,,,,,,,,,,,,,533,18,Woman,Right,3,60,0.15,1,0,-,180,0.40533309999955236,['n'],0.7393584000001283,1.366,2247.0134803,,,,,533,18,Woman,Right,
,,,,,,,,,,,,,,,,,533,18,Woman,Right,3,62,0.15,1,180,-,180,0.17427180000049702,['n'],0.5474018000004435,1.384,2250.1305170000005,,,,,533,18,Woman,Right,
,,,,,,,,,,,,,,,,,533,18,Woman,Right,3,55,0.15,2,180,0,0,1.232785899999726,['n'],0.2833252000000357,1.142,2254.2464995,,,,,533,18,Woman,Right,
,,,,,,,,,,,,,,,,,533,18,Woman,Right,3,57,0.15,2,0,180,180,0.34504629999992176,['n'],0.43544529999962833,1.256,2257.9970445999998,,,,,533,18,Woman,Right,
,,,,,,,,,,,,,,,,,533,18,Woman,Right,3,71,0.15,2,180,0,180,1.0120022000000972,['n'],0.8912248999995427,1.442,2263.1301106,,,,,533,18,Woman,Right,
,,,,,,,,,,,,,,,,,533,18,Woman,Right,3,53,0.15,2,0,180,180,0.6197478000003684,['n'],2.0353054999995948,1.0979999999999999,2268.512645,,,,,533,18,Woman,Right,
,,,,,,,,,,,,,,,,,533,18,Woman,Right,3,35,0.4,2,180,0,0,0.3772686000002068,['y'],0.6032654999999068,1.298,2272.0965042,,,,,533,18,Woman,Right,
,,,,,,,,,,,,,,,,,533,18,Woman,Right,3,68,0.15,1,0,-,0,0.24206619999949908,['n'],0.45965680000063003,1.45,2275.2135957,,,,,533,18,Woman,Right,
,,,,,,,,,,,,,,,,,533,18,Woman,Right,3,8,0.4,1,0,-,180,0.550339399999757,['y'],0.5075065000000905,1.53,2278.4797958999998,,,,,533,18,Woman,Right,
,,,,,,,,,,,,,,,,,533,18,Woman,Right,3,21,0.4,2,0,180,180,0.5866732999993474,['y'],0.5071201000000656,1.522,2281.7963170000003,,,,,533,18,Woman,Right,
,,,,,,,,,,,,,,,,,533,18,Woman,Right,4,60,0.15,1,0,-,180,0.7962901000000784,['n'],0.5147954000003665,1.448,2298.4967888,65.0,85.0,35.0,,533,18,Woman,Right,
,,,,,,,,,,,,,,,,,533,18,Woman,Right,4,16,0.4,1,0,-,180,0.5122713999999178,['n'],0.3229964000001928,1.456,2301.5800441,,,,,533,18,Woman,Right,
,,,,,,,,,,,,,,,,,533,18,Woman,Right,4,0,1,1,0,-,0,0.3873676000002888,['n'],0.6033090000000811,1.486,2305.2626626,,,,,533,18,Woman,Right,
,,,,,,,,,,,,,,,,,533,18,Woman,Right,4,10,0.4,1,180,-,0,1.1714875999996366,['y'],1.6511264000000665,1.506,2310.3632072,,,,,533,18,Woman,Right,
,,,,,,,,,,,,,,,,,533,18,Woman,Right,4,23,0.4,2,180,0,180,0.5756123999999545,['y'],0.619161399999939,1.52,2313.6785926000002,,,,,533,18,Woman,Right,
,,,,,,,,,,,,,,,,,533,18,Woman,Right,4,3,1,2,180,0,0,0.3369313000002876,['y'],0.49970889999985957,1.5859999999999999,2317.2296662999997,,,,,533,18,Woman,Right,
,,,,,,,,,,,,,,,,,533,18,Woman,Right,4,56,0.15,1,0,-,0,0.6695277999997415,['n'],0.32331210000029387,1.534,2320.4296558000005,,,,,533,18,Woman,Right,
,,,,,,,,,,,,,,,,,533,18,Woman,Right,4,44,0.15,1,0,-,180,0.4594073999996908,['n'],0.29077720000077534,1.536,2323.4291214000004,,,,,533,18,Woman,Right,
,,,,,,,,,,,,,,,,,533,18,Woman,Right,4,34,0.4,1,180,-,0,0.5956953999993857,['n'],0.3632329000001846,1.52,2326.7131544000003,,,,,533,18,Woman,Right,
,,,,,,,,,,,,,,,,,533,18,Woman,Right,4,77,0.15,2,0,180,180,0.6006760999998733,['n'],0.715641499999947,1.498,2330.4796423,,,,,533,18,Woman,Right,
,,,,,,,,,,,,,,,,,533,18,Woman,Right,4,11,0.4,2,180,0,0,0.6430461999998442,['y'],1.9237223000000085,1.542,2335.4954425000005,,,,,533,18,Woman,Right,
,,,,,,,,,,,,,,,,,533,18,Woman,Right,4,1,1,2,0,180,180,2.0913143999996464,['y'],0.651531900000009,1.3479999999999999,2340.6790544000005,,,,,533,18,Woman,Right,
,,,,,,,,,,,,,,,,,533,18,Woman,Right,4,52,0.15,1,0,-,180,0.1973019999995813,['n'],0.40314959999977873,1.4020000000000001,2343.6129681,,,,,533,18,Woman,Right,
,,,,,,,,,,,,,,,,,533,18,Woman,Right,4,32,0.4,1,0,-,0,0.333374100000583,['n'],0.3390306999999666,1.452,2346.4462455000003,,,,,533,18,Woman,Right,
,,,,,,,,,,,,,,,,,533,18,Woman,Right,4,39,0.4,2,180,0,0,0.3546709000002011,['n'],0.5071456000005128,1.42,2349.6790612000004,,,,,533,18,Woman,Right,
,,,,,,,,,,,,,,,,,533,18,Woman,Right,4,38,0.4,1,180,-,0,0.21192010000049777,['n'],0.5711604000007355,1.16,2352.9953022,,,,,533,18,Woman,Right,
,,,,,,,,,,,,,,,,,533,18,Woman,Right,4,25,0.4,2,0,180,180,0.5470743000005314,['n'],0.7955111000001125,1.298,2356.7792388,,,,,533,18,Woman,Right,
,,,,,,,,,,,,,,,,,533,18,Woman,Right,4,18,0.4,1,180,-,180,0.3111809000001813,['n'],0.4354158999994979,1.294,2359.8303313000006,,,,,533,18,Woman,Right,
,,,,,,,,,,,,,,,,,533,18,Woman,Right,4,45,0.15,2,0,180,180,0.7477206000003207,['n'],0.5949611000005461,1.298,2363.5124296000004,,,,,533,18,Woman,Right,
,,,,,,,,,,,,,,,,,533,18,Woman,Right,4,55,0.15,2,180,0,0,0.24960009999995236,['n'],0.38690930000029766,1.428,2366.5449456000006,,,,,533,18,Woman,Right,
,,,,,,,,,,,,,,,,,533,18,Woman,Right,4,40,0.4,1,0,-,180,0.7273943999998664,['n'],0.4512052999998559,1.4060000000000001,2369.9961787,,,,,533,18,Woman,Right,
,,,,,,,,,,,,,,,,,533,18,Woman,Right,4,79,0.15,2,180,0,0,0.8867318000002342,['n'],0.3310748000003514,1.44,2373.4120712000004,,,,,533,18,Woman,Right,
,,,,,,,,,,,,,,,,,533,18,Woman,Right,4,33,0.4,2,0,180,180,1.8710230999995474,['y'],0.29893619999984367,1.442,2377.9612818000005,,,,,533,18,Woman,Right,
,,,,,,,,,,,,,,,,,533,18,Woman,Right,4,73,0.15,2,0,180,0,0.8172166000003926,['n'],0.25111370000013267,1.442,2382.045156,,,,,533,18,Woman,Right,
,,,,,,,,,,,,,,,,,533,18,Woman,Right,4,42,0.4,1,180,-,180,0.3159165999995821,['n'],0.24371359999986453,1.432,2385.1947869000005,,,,,533,18,Woman,Right,
,,,,,,,,,,,,,,,,,533,18,Woman,Right,4,46,0.15,1,180,-,0,0.7301775000005364,['n'],0.3394521000000168,1.524,2389.0449971,,,,,533,18,Woman,Right,
,,,,,,,,,,,,,,,,,533,18,Woman,Right,4,47,0.15,2,180,0,180,0.18184480000036274,['n'],0.40329170000040904,1.306,2392.3619673000003,,,,,533,18,Woman,Right,
,,,,,,,,,,,,,,,,,533,18,Woman,Right,4,26,0.4,1,180,-,0,0.43946930000038265,['n'],0.7231455999999525,1.452,2395.9122871,,,,,533,18,Woman,Right,
,,,,,,,,,,,,,,,,,533,18,Woman,Right,4,27,0.4,2,180,0,0,0.5693290999997771,['y'],0.4989175000000614,1.496,2400.9284874000004,,,,,533,18,Woman,Right,
,,,,,,,,,,,,,,,,,533,18,Woman,Right,4,8,0.4,1,0,-,0,0.4981823999996777,['n'],0.3397282999994786,1.154,2405.0454316000005,,,,,533,18,Woman,Right,
,,,,,,,,,,,,,,,,,533,18,Woman,Right,4,24,0.4,1,0,-,180,0.6782509000004211,['n'],0.7786453000007896,1.24,2409.1448209,,,,,533,18,Woman,Right,
,,,,,,,,,,,,,,,,,533,18,Woman,Right,4,31,0.4,2,180,0,180,0.6186041000000841,['n'],0.34713080000074115,1.322,2412.4785601000003,,,,,533,18,Woman,Right,
,,,,,,,,,,,,,,,,,533,18,Woman,Right,4,69,0.15,2,0,180,0,0.39244239999970887,['n'],0.3549401999998736,1.362,2415.7448326000003,,,,,533,18,Woman,Right,
,,,,,,,,,,,,,,,,,533,18,Woman,Right,4,63,0.15,2,180,0,0,0.5343537999997352,['n'],0.38749319999988074,1.428,2418.9453346,,,,,533,18,Woman,Right,
,,,,,,,,,,,,,,,,,533,18,Woman,Right,4,57,0.15,2,0,180,180,1.0640946000003169,['n'],0.24310939999941183,1.434,2422.4282019,,,,,533,18,Woman,Right,
,,,,,,,,,,,,,,,,,533,18,Woman,Right,4,19,0.4,2,180,0,0,0.32581029999983,['n'],1.4513544000001275,1.27,2426.6781167999998,,,,,533,18,Woman,Right,
,,,,,,,,,,,,,,,,,533,18,Woman,Right,4,35,0.4,2,180,0,0,0.5598046000004615,['y'],0.5792609000000084,1.416,2430.5285458999997,,,,,533,18,Woman,Right,
,,,,,,,,,,,,,,,,,533,18,Woman,Right,4,4,1,1,0,-,0,0.6179988999992929,['n'],0.4830866000002061,1.516,2433.8278760000003,,,,,533,18,Woman,Right,
,,,,,,,,,,,,,,,,,533,18,Woman,Right,4,50,0.15,1,180,-,180,0.9103950999997323,['n'],0.3230182999996032,1.422,2437.4786513,,,,,533,18,Woman,Right,
,,,,,,,,,,,,,,,,,533,18,Woman,Right,4,17,0.4,2,0,180,180,0.4441591000004337,['y'],0.515195699999822,1.464,2440.7279127,,,,,533,18,Woman,Right,
,,,,,,,,,,,,,,,,,533,18,Woman,Right,4,61,0.15,2,0,180,0,0.8726186999992933,['y'],0.5074220999995305,1.466,2444.4275542000005,,,,,533,18,Woman,Right,
,,,,,,,,,,,,,,,,,533,18,Woman,Right,4,41,0.4,2,0,180,180,0.31970540000020264,['y'],0.3791247999997722,1.474,2447.2617364,,,,,533,18,Woman,Right,
,,,,,,,,,,,,,,,,,533,18,Woman,Right,4,20,0.4,1,0,-,180,0.6357027000003654,['n'],0.38716049999948154,1.474,2450.4284926,,,,,533,18,Woman,Right,
,,,,,,,,,,,,,,,,,533,18,Woman,Right,4,49,0.15,2,0,180,180,0.3106035000000702,['n'],0.27491140000074665,1.472,2453.0940442,,,,,533,18,Woman,Right,
,,,,,,,,,,,,,,,,,533,18,Woman,Right,4,59,0.15,2,180,0,180,0.39724800000021787,['n'],0.24329910000051314,1.488,2455.8782287000004,,,,,533,18,Woman,Right,
,,,,,,,,,,,,,,,,,533,18,Woman,Right,4,65,0.15,2,0,180,180,1.603561200000513,['n'],2.6427077000007557,1.416,2462.9941139000002,,,,,533,18,Woman,Right,
,,,,,,,,,,,,,,,,,533,18,Woman,Right,4,21,0.4,2,0,180,180,0.5682937999999922,['y'],0.5075127000000066,1.528,2466.7116144,,,,,533,18,Woman,Right,
,,,,,,,,,,,,,,,,,533,18,Woman,Right,4,15,0.4,2,180,0,0,0.5468517999997857,['n'],0.30737760000010894,1.53,2469.7941152000003,,,,,533,18,Woman,Right,
,,,,,,,,,,,,,,,,,533,18,Woman,Right,4,62,0.15,1,180,-,180,0.28087520000008226,['n'],0.8192023999999947,1.462,2473.4277645,,,,,533,18,Woman,Right,
,,,,,,,,,,,,,,,,,533,18,Woman,Right,4,51,0.15,2,180,0,0,0.682770100000198,['n'],0.3436051000007865,1.318,2477.2116049000006,,,,,533,18,Woman,Right,
,,,,,,,,,,,,,,,,,533,18,Woman,Right,4,13,0.4,2,0,180,180,0.42474459999993996,['y'],0.6111452000004647,1.48,2480.3950112,,,,,533,18,Woman,Right,
,,,,,,,,,,,,,,,,,533,18,Woman,Right,4,37,0.4,2,0,180,180,0.2626788999996279,['y'],0.5714422999999442,1.3559999999999999,2483.5112196,,,,,533,18,Woman,Right,
,,,,,,,,,,,,,,,,,533,18,Woman,Right,4,68,0.15,1,0,-,0,0.5167899999996735,['n'],0.44317010000031587,1.508,2487.1938603999997,,,,,533,18,Woman,Right,
,,,,,,,,,,,,,,,,,533,18,Woman,Right,4,53,0.15,2,0,180,180,0.30107889999999315,['n'],0.7550422999993316,1.27,2491.2443220000005,,,,,533,18,Woman,Right,
,,,,,,,,,,,,,,,,,533,18,Woman,Right,4,28,0.4,1,0,-,0,0.46375910000006115,['n'],0.3154775000002701,1.472,2494.1785762,,,,,533,18,Woman,Right,
,,,,,,,,,,,,,,,,,533,18,Woman,Right,4,71,0.15,2,180,0,0,0.5912447000000611,['n'],0.5390832000002774,1.498,2497.7617319,,,,,533,18,Woman,Right,
,,,,,,,,,,,,,,,,,533,18,Woman,Right,4,14,0.4,1,180,-,0,0.7786909000005835,['n'],1.0753921999994418,1.456,2502.4940776000003,,,,,533,18,Woman,Right,
,,,,,,,,,,,,,,,,,533,18,Woman,Right,4,64,0.15,1,0,-,180,0.3048502000001463,['n'],0.6912695999999414,1.45,2506.2286252000004,,,,,533,18,Woman,Right,
,,,,,,,,,,,,,,,,,533,18,Woman,Right,4,12,0.4,1,0,-,0,0.3053160999997999,['n'],0.4834265999998024,1.3940000000000001,2509.4778317,,,,,533,18,Woman,Right,
,,,,,,,,,,,,,,,,,533,18,Woman,Right,4,43,0.4,2,180,0,0,0.5312042000005022,['y'],0.7311075999996319,1.294,2513.3125672000006,,,,,533,18,Woman,Right,
,,,,,,,,,,,,,,,,,533,18,Woman,Right,4,78,0.15,1,180,-,180,0.2770866000000751,['n'],0.4910894000004191,1.262,2516.2274349,,,,,533,18,Woman,Right,
,,,,,,,,,,,,,,,,,533,18,Woman,Right,4,72,0.15,1,0,-,0,0.9762014999996609,['n'],0.3072234000001117,1.37,2519.794521,,,,,533,18,Woman,Right,
,,,,,,,,,,,,,,,,,533,18,Woman,Right,4,48,0.15,1,0,-,180,0.42416140000023006,['n'],0.4674996000003375,1.276,2523.1105587,,,,,533,18,Woman,Right,
,,,,,,,,,,,,,,,,,533,18,Woman,Right,4,9,0.4,2,0,180,180,0.24831559999984165,['n'],0.3952000000008411,1.19,2526.1944882,,,,,533,18,Woman,Right,
,,,,,,,,,,,,,,,,,533,18,Woman,Right,4,2,1,1,180,-,0,0.6243555000000924,['n'],1.0752560999999332,1.676,2530.8780063000004,,,,,533,18,Woman,Right,
,,,,,,,,,,,,,,,,,533,18,Woman,Right,4,30,0.4,1,180,-,180,0.46661820000008447,['n'],0.6427386999994269,1.15,2534.3610619,,,,,533,18,Woman,Right,
,,,,,,,,,,,,,,,,,533,18,Woman,Right,4,66,0.15,1,180,-,180,0.254709300000286,['n'],0.38733380000030593,1.216,2537.4103173000003,,,,,533,18,Woman,Right,
,,,,,,,,,,,,,,,,,533,18,Woman,Right,4,58,0.15,1,180,-,180,0.9437806999994791,['n'],0.4749946000001728,1.12,2541.2441088000005,,,,,533,18,Woman,Right,
,,,,,,,,,,,,,,,,,533,18,Woman,Right,4,22,0.4,1,180,-,0,2.1010753000000477,['n'],0.5706794999996418,1.464,2547.1609138000003,,,,,533,18,Woman,Right,
,,,,,,,,,,,,,,,,,533,18,Woman,Right,4,67,0.15,2,180,0,180,0.8363650000001144,['n'],0.6509679999999207,1.21,2550.9766138000005,,,,,533,18,Woman,Right,
,,,,,,,,,,,,,,,,,533,18,Woman,Right,4,54,0.15,1,180,-,180,2.6651842999999644,['n'],0.4195579999995971,1.154,2556.2942321,,,,,533,18,Woman,Right,
,,,,,,,,,,,,,,,,,533,18,Woman,Right,4,5,1,2,0,180,180,0.3493084000001545,['y'],0.5477661000004446,1.1480000000000001,2559.7599597999997,,,,,533,18,Woman,Right,
,,,,,,,,,,,,,,,,,533,18,Woman,Right,4,29,0.4,2,0,180,180,0.3392481000000771,['y'],0.8992842999996356,1.396,2564.6108733,,,,,533,18,Woman,Right,
,,,,,,,,,,,,,,,,,533,18,Woman,Right,4,6,1,1,180,-,180,0.9185016999999789,['n'],0.46678289999999834,1.3559999999999999,2568.3104807,,,,,533,18,Woman,Right,
,,,,,,,,,,,,,,,,,533,18,Woman,Right,4,70,0.15,1,180,-,180,0.6406841999996686,['n'],0.6034802000003765,1.49,2571.7935901,,,,,533,18,Woman,Right,
,,,,,,,,,,,,,,,,,533,18,Woman,Right,4,75,0.15,2,180,0,180,0.3735363999994661,['n'],0.38761599999998,1.484,2574.7263735000006,,,,,533,18,Woman,Right,
,,,,,,,,,,,,,,,,,533,18,Woman,Right,4,74,0.15,1,180,-,0,0.4511099000001195,['n'],0.3071505999996589,1.516,2577.7439919,,,,,533,18,Woman,Right,
,,,,,,,,,,,,,,,,,533,18,Woman,Right,4,36,0.4,1,0,-,180,0.3733885999999984,['n'],0.8116081999996823,1.1059999999999999,2581.7107043000005,,,,,533,18,Woman,Right,
,,,,,,,,,,,,,,,,,533,18,Woman,Right,4,76,0.15,1,0,-,0,2.2924975999994786,['n'],1.1627586999993582,1.046,2587.7605239000004,,,,,533,18,Woman,Right,
,,,,,,,,,,,,,,,,,533,18,Woman,Right,4,7,1,2,180,0,0,0.6904210000002422,['y'],0.8507326999997531,1.6059999999999999,2592.8590928000003,,,,,533,18,Woman,Right,
,,,,,,,,,,,,,,,,,533,18,Woman,Right,5,59,0.15,2,180,0,0,1.119152799999938,['n'],1.6674227999992581,1.412,2613.3264487000006,65.0,97.5,42.5,,533,18,Woman,Right,
,,,,,,,,,,,,,,,,,533,18,Woman,Right,5,30,0.4,1,180,-,180,0.2617137000006551,['n'],0.40335680000043794,1.322,2616.2925551,,,,,533,18,Woman,Right,
,,,,,,,,,,,,,,,,,533,18,Woman,Right,5,12,0.4,1,0,-,0,0.479616999999962,['n'],0.3314473000000362,1.31,2619.5259293,,,,,533,18,Woman,Right,
,,,,,,,,,,,,,,,,,533,18,Woman,Right,5,48,0.15,1,0,-,180,0.2240113999996538,['n'],0.43574079999962123,1.296,2622.5103882000003,,,,,533,18,Woman,Right,
,,,,,,,,,,,,,,,,,533,18,Woman,Right,5,46,0.15,1,180,-,0,0.44214890000057494,['n'],0.3156098999997994,1.264,2625.5597544,,,,,533,18,Woman,Right,
,,,,,,,,,,,,,,,,,533,18,Woman,Right,5,56,0.15,1,0,-,180,0.11991649999981746,['n'],0.3635268999996697,1.252,2628.3763859,,,,,533,18,Woman,Right,
,,,,,,,,,,,,,,,,,533,18,Woman,Right,5,18,0.4,1,180,-,180,0.4084839999995893,['n'],0.42716590000054566,1.22,2631.4937614,,,,,533,18,Woman,Right,
,,,,,,,,,,,,,,,,,533,18,Woman,Right,5,38,0.4,1,180,-,0,0.28372439999930066,['n'],0.39537819999986823,1.242,2634.4768236,,,,,533,18,Woman,Right,
,,,,,,,,,,,,,,,,,533,18,Woman,Right,5,26,0.4,1,180,-,180,0.33204600000044593,['n'],0.923324300000786,1.188,2637.9603105000006,,,,,533,18,Woman,Right,
,,,,,,,,,,,,,,,,,533,18,Woman,Right,5,28,0.4,1,0,-,0,0.3220302999998239,['n'],0.37944470000002184,1.27,2640.8761132,,,,,533,18,Woman,Right,
,,,,,,,,,,,,,,,,,533,18,Woman,Right,5,79,0.15,2,180,0,180,0.2633480000004056,['n'],0.2506777999997212,1.24,2643.5598968000004,,,,,533,18,Woman,Right,
,,,,,,,,,,,,,,,,,533,18,Woman,Right,5,63,0.15,2,180,0,180,0.24275220000072295,['n'],0.3388171999995393,1.19,2646.3433876,,,,,533,18,Woman,Right,
,,,,,,,,,,,,,,,,,533,18,Woman,Right,5,76,0.15,1,0,-,0,0.21841519999998127,['n'],1.371137500000259,1.548,2650.2592893,,,,,533,18,Woman,Right,
,,,,,,,,,,,,,,,,,533,18,Woman,Right,5,32,0.4,1,0,-,180,0.3346041000004334,['n'],0.34709440000006,1.49,2653.1596357,,,,,533,18,Woman,Right,
,,,,,,,,,,,,,,,,,533,18,Woman,Right,5,29,0.4,2,0,180,180,0.2711495000003197,['n'],0.3153996000000916,1.512,2656.0601287,,,,,533,18,Woman,Right,
,,,,,,,,,,,,,,,,,533,18,Woman,Right,5,42,0.4,1,180,-,0,0.7794973999998547,['n'],0.4507862999998906,1.51,2659.6266152,,,,,533,18,Woman,Right,
,,,,,,,,,,,,,,,,,533,18,Woman,Right,5,22,0.4,1,180,-,0,0.9414527999997517,['y'],0.37911259999964386,1.516,2663.1932274,,,,,533,18,Woman,Right,
,,,,,,,,,,,,,,,,,533,18,Woman,Right,5,0,1,1,0,-,180,1.1624555999997028,['n'],0.3152939999999944,1.49,2666.9761052000003,,,,,533,18,Woman,Right,
,,,,,,,,,,,,,,,,,533,18,Woman,Right,5,13,0.4,2,0,180,0,0.32399270000041724,['n'],0.29900679999991553,1.482,2671.7265198000005,,,,,533,18,Woman,Right,
,,,,,,,,,,,,,,,,,533,18,Woman,Right,5,40,0.4,1,0,-,180,0.5641766999997344,['n'],0.6198448000004646,1.474,2675.1931669000005,,,,,533,18,Woman,Right,
,,,,,,,,,,,,,,,,,533,18,Woman,Right,5,60,0.15,1,0,-,180,0.5298639000002368,['n'],0.38724249999995664,1.482,2679.0753254,,,,,533,18,Woman,Right,
,,,,,,,,,,,,,,,,,533,18,Woman,Right,5,3,1,2,180,0,0,0.4482195000000502,['y'],0.4193205000001399,1.6440000000000001,2682.6751462,,,,,533,18,Woman,Right,
,,,,,,,,,,,,,,,,,533,18,Woman,Right,5,61,0.15,2,0,180,0,2.6630740000000515,['n'],0.45075079999969603,1.416,2688.4927636,,,,,533,18,Woman,Right,
,,,,,,,,,,,,,,,,,533,18,Woman,Right,5,11,0.4,2,180,0,0,0.4617943999992349,['y'],0.4354240000002392,1.55,2692.0257808000006,,,,,533,18,Woman,Right,
,,,,,,,,,,,,,,,,,533,18,Woman,Right,5,6,1,1,180,-,0,0.6105763999994451,['n'],0.36332690000017465,1.544,2695.5589399,,,,,533,18,Woman,Right,
,,,,,,,,,,,,,,,,,533,18,Woman,Right,5,39,0.4,2,180,0,0,0.8002450999993016,['y'],0.44302109999989625,1.428,2699.4918042,,,,,533,18,Woman,Right,
,,,,,,,,,,,,,,,,,533,18,Woman,Right,5,47,0.15,2,180,0,0,0.5237074999995457,['y'],0.5389850000001388,1.464,2702.7931908,,,,,533,18,Woman,Right,
,,,,,,,,,,,,,,,,,533,18,Woman,Right,5,69,0.15,2,0,180,0,0.7931680000001506,['n'],0.387103200000638,1.498,2706.4099339000004,,,,,533,18,Woman,Right,
,,,,,,,,,,,,,,,,,533,18,Woman,Right,5,2,1,1,180,-,0,0.3895425000000614,['y'],1.0590691999996125,1.466,2710.1759931000006,,,,,533,18,Woman,Right,
,,,,,,,,,,,,,,,,,533,18,Woman,Right,5,51,0.15,2,180,0,0,0.35517819999950007,['n'],0.32360940000035043,1.482,2712.9593382000003,,,,,533,18,Woman,Right,
,,,,,,,,,,,,,,,,,533,18,Woman,Right,5,41,0.4,2,0,180,180,0.34693520000018907,['y'],0.7873185999997077,1.48,2716.2922571999998,,,,,533,18,Woman,Right,
,,,,,,,,,,,,,,,,,533,18,Woman,Right,5,25,0.4,2,0,180,0,0.9680142000006526,['y'],0.5228338000006261,1.51,2720.0582484000006,,,,,533,18,Woman,Right,
,,,,,,,,,,,,,,,,,533,18,Woman,Right,5,19,0.4,2,180,0,0,0.4503131999999823,['n'],0.3155048999997234,1.55,2723.0926279000005,,,,,533,18,Woman,Right,
,,,,,,,,,,,,,,,,,533,18,Woman,Right,5,31,0.4,2,180,0,0,0.8611169999994672,['n'],0.25896190000003116,1.3519999999999999,2726.4760613,,,,,533,18,Woman,Right,
,,,,,,,,,,,,,,,,,533,18,Woman,Right,5,54,0.15,1,180,-,180,0.27105200000005425,['n'],0.4757636000003913,1.274,2729.4268013,,,,,533,18,Woman,Right,
,,,,,,,,,,,,,,,,,533,18,Woman,Right,5,5,1,2,0,180,180,0.2793658000000505,['y'],0.5789625000006708,1.77,2732.9415788000006,,,,,533,18,Woman,Right,
,,,,,,,,,,,,,,,,,533,18,Woman,Right,5,16,0.4,1,0,-,0,0.8840039000006072,['n'],0.5713384999999107,1.252,2736.7251568,,,,,533,18,Woman,Right,
,,,,,,,,,,,,,,,,,533,18,Woman,Right,5,64,0.15,1,0,-,0,0.4296191000003091,['n'],0.41947560000062367,1.23,2739.8089783000005,,,,,533,18,Woman,Right,
,,,,,,,,,,,,,,,,,533,18,Woman,Right,5,44,0.15,1,0,-,0,0.2146309999998266,['n'],0.29960010000013426,1.208,2742.7584626,,,,,533,18,Woman,Right,
,,,,,,,,,,,,,,,,,533,18,Woman,Right,5,70,0.15,1,180,-,0,0.21141919999990932,['n'],0.275110799999311,1.3,2745.6588041000005,,,,,533,18,Woman,Right,
,,,,,,,,,,,,,,,,,533,18,Woman,Right,5,15,0.4,2,180,0,0,0.37174140000024636,['n'],0.2674692000000505,1.256,2749.0248045,,,,,533,18,Woman,Right,
,,,,,,,,,,,,,,,,,533,18,Woman,Right,5,43,0.4,2,180,0,0,0.6805430999993405,['y'],0.4595883000001777,1.268,2752.3753634000004,,,,,533,18,Woman,Right,
,,,,,,,,,,,,,,,,,533,18,Woman,Right,5,10,0.4,1,180,-,180,0.3577462999992349,['n'],0.7793257000002995,1.3599999999999999,2755.7423113000004,,,,,533,18,Woman,Right,
,,,,,,,,,,,,,,,,,533,18,Woman,Right,5,75,0.15,2,180,0,180,0.23727249999956257,['n'],0.29151509999974223,1.3599999999999999,2758.3418374000003,,,,,533,18,Woman,Right,
,,,,,,,,,,,,,,,,,533,18,Woman,Right,5,62,0.15,1,180,-,180,0.5836837999995623,['y'],0.39558799999940675,1.55,2761.9759415,,,,,533,18,Woman,Right,
,,,,,,,,,,,,,,,,,533,18,Woman,Right,5,77,0.15,2,0,180,0,0.4057217999998102,['n'],0.5711410000003525,1.49,2765.3750577,,,,,533,18,Woman,Right,
,,,,,,,,,,,,,,,,,533,18,Woman,Right,5,14,0.4,1,180,-,180,0.3009099000000788,['n'],1.6276104000007763,1.46,2769.6582104,,,,,533,18,Woman,Right,
,,,,,,,,,,,,,,,,,533,18,Woman,Right,5,37,0.4,2,0,180,0,0.33809329999985493,['n'],0.6354136999998445,1.466,2772.942156,,,,,533,18,Woman,Right,
,,,,,,,,,,,,,,,,,533,18,Woman,Right,5,73,0.15,2,0,180,0,0.6292285999998057,['n'],1.0036066000002393,1.462,2776.7411789,,,,,533,18,Woman,Right,
,,,,,,,,,,,,,,,,,533,18,Woman,Right,5,67,0.15,2,180,0,0,0.5021028000001024,['y'],0.42754429999968124,1.568,2780.0748543,,,,,533,18,Woman,Right,
,,,,,,,,,,,,,,,,,533,18,Woman,Right,5,21,0.4,2,0,180,180,0.5041916000000128,['y'],0.4750192000001334,1.584,2784.1590690000003,,,,,533,18,Woman,Right,
,,,,,,,,,,,,,,,,,533,18,Woman,Right,5,65,0.15,2,0,180,180,0.26104880000002595,['n'],0.4346126999998887,1.454,2787.0425892000003,,,,,533,18,Woman,Right,
,,,,,,,,,,,,,,,,,533,18,Woman,Right,5,72,0.15,1,0,-,180,0.6978845000003275,['n'],0.43505480000021635,1.47,2790.7082129,,,,,533,18,Woman,Right,
,,,,,,,,,,,,,,,,,533,18,Woman,Right,5,8,0.4,1,0,-,180,0.4551556000005803,['y'],0.7390402000000904,1.512,2794.0754779,,,,,533,18,Woman,Right,
,,,,,,,,,,,,,,,,,533,18,Woman,Right,5,52,0.15,1,0,-,180,0.5770213000005242,['n'],0.4426785999994536,1.46,2797.5082439,,,,,533,18,Woman,Right,
,,,,,,,,,,,,,,,,,533,18,Woman,Right,5,71,0.15,2,180,0,0,0.6725562999999966,['y'],0.5071004999999786,1.484,2800.8094339,,,,,533,18,Woman,Right,
,,,,,,,,,,,,,,,,,533,18,Woman,Right,5,9,0.4,2,0,180,180,0.4124599999995553,['y'],0.49125199999980396,1.476,2803.8746965,,,,,533,18,Woman,Right,
,,,,,,,,,,,,,,,,,533,18,Woman,Right,5,7,1,2,180,0,0,0.9357185999997455,['y'],0.7392000999998345,1.504,2807.7414360000002,,,,,533,18,Woman,Right,
,,,,,,,,,,,,,,,,,533,18,Woman,Right,5,50,0.15,1,180,-,180,0.3814490000004298,['n'],0.5950966999998855,1.584,2811.1411084,,,,,533,18,Woman,Right,
,,,,,,,,,,,,,,,,,533,18,Woman,Right,5,34,0.4,1,180,-,180,0.7168337000002794,['n'],0.33118670000021666,1.554,2814.6251391000005,,,,,533,18,Woman,Right,
,,,,,,,,,,,,,,,,,533,18,Woman,Right,5,4,1,1,0,-,180,0.2680558000001838,['y'],0.4823768000005657,1.6,2817.6408137999997,,,,,533,18,Woman,Right,
,,,,,,,,,,,,,,,,,533,18,Woman,Right,5,57,0.15,2,0,180,0,0.3784779999996317,['n'],1.0194108999994569,1.204,2821.8416592000003,,,,,533,18,Woman,Right,
,,,,,,,,,,,,,,,,,533,18,Woman,Right,5,58,0.15,1,180,-,180,0.17464989999916725,['n'],0.37914140000066254,1.162,2824.8084731,,,,,533,18,Woman,Right,
,,,,,,,,,,,,,,,,,533,18,Woman,Right,5,68,0.15,1,0,-,0,1.0753542000002199,['n'],0.3708284000003914,1.51,2832.8913304,,,,,533,18,Woman,Right,
,,,,,,,,,,,,,,,,,533,18,Woman,Right,5,33,0.4,2,0,180,180,0.4998742999996466,['y'],1.342740000000049,1.1320000000000001,2838.2078711000004,,,,,533,18,Woman,Right,
,,,,,,,,,,,,,,,,,533,18,Woman,Right,5,49,0.15,2,0,180,180,0.3754669999998441,['n'],0.27530339999975695,1.308,2841.2237298,,,,,533,18,Woman,Right,
,,,,,,,,,,,,,,,,,533,18,Woman,Right,5,27,0.4,2,180,0,0,0.8448974000002636,['y'],0.3632335000002058,1.494,2844.6906356,,,,,533,18,Woman,Right,
,,,,,,,,,,,,,,,,,533,18,Woman,Right,5,35,0.4,2,180,0,0,0.49633950000043114,['y'],0.619598500000393,1.492,2848.1745650000003,,,,,533,18,Woman,Right,
,,,,,,,,,,,,,,,,,533,18,Woman,Right,5,23,0.4,2,180,0,0,0.6675912999999127,['n'],0.3548885000000155,1.092,2851.9578147,,,,,533,18,Woman,Right,
,,,,,,,,,,,,,,,,,533,18,Woman,Right,5,53,0.15,2,0,180,0,0.5721657999993113,['n'],0.2911874000001262,1.52,2855.1402878999997,,,,,533,18,Woman,Right,
,,,,,,,,,,,,,,,,,533,18,Woman,Right,5,36,0.4,1,0,-,0,0.4328831999991962,['n'],0.31806570000026113,1.52,2858.0743404000004,,,,,533,18,Woman,Right,
,,,,,,,,,,,,,,,,,533,18,Woman,Right,5,66,0.15,1,180,-,0,0.3846153999993476,['n'],0.3478575999997702,1.52,2860.9082167000006,,,,,533,18,Woman,Right,
,,,,,,,,,,,,,,,,,533,18,Woman,Right,5,17,0.4,2,0,180,180,0.42975810000007186,['y'],0.5394514999998137,1.448,2864.3246582,,,,,533,18,Woman,Right,
,,,,,,,,,,,,,,,,,533,18,Woman,Right,5,1,1,2,0,180,180,0.5193481999995129,['y'],0.2830405000004248,1.5819999999999999,2867.7579854000005,,,,,533,18,Woman,Right,
,,,,,,,,,,,,,,,,,533,18,Woman,Right,5,78,0.15,1,180,-,180,0.885069900000417,['y'],0.3714428000002954,1.514,2871.7579385999998,,,,,533,18,Woman,Right,
,,,,,,,,,,,,,,,,,533,18,Woman,Right,5,55,0.15,2,180,0,180,0.3154715999999098,['n'],0.3475632999998197,1.55,2875.2754952000005,,,,,533,18,Woman,Right,
,,,,,,,,,,,,,,,,,533,18,Woman,Right,5,20,0.4,1,0,-,180,0.9180822999996963,['y'],0.3789300999997067,1.56,2878.9745241,,,,,533,18,Woman,Right,
,,,,,,,,,,,,,,,,,533,18,Woman,Right,5,45,0.15,2,0,180,180,0.5733031999998275,['y'],0.395186200000353,1.436,2882.7578478000005,,,,,533,18,Woman,Right,
,,,,,,,,,,,,,,,,,533,18,Woman,Right,5,24,0.4,1,0,-,0,0.27609620000021096,['n'],0.38717670000005455,1.612,2885.9253357,,,,,533,18,Woman,Right,
,,,,,,,,,,,,,,,,,533,18,Woman,Right,5,74,0.15,1,180,-,180,0.4352954000005411,['n'],0.515353600000708,1.186,2889.3407982,,,,,533,18,Woman,Right,
,,,,,,,,,,,,,,,,,,,,,,,,,,,,,,,,,60.0,82.5,47.5,2022.2887589999996,,,,,
