p_block,p_section,p_coherence,p_direction1,p_direction2,p_direction_response,p_direction_RT,p_change_response,p_change_RT,p_confidence,p_full_correct,p_without5_correct,p_full_total,p_without5_total,p_full_avg,p_witout5_avg,p_total_time,sub,age,sex,handedness,loop,trial randomization,coherence,condition,direction1,direction2,direction_response,direction_RT,change_response,change_RT,change_confidence,change_confidence_RT,block_direction_avg,block_stable_avg,block_change_avg,total_time,sub,age,sex,handedness,
1,1,1.0,0,-,0,2.127001600000085,-,-,-,,,,,,,,536,19,Woman,Right,,,,,,,,,,,,,,,,,536,19,Woman,Right,
1,1,1.0,180,-,180,0.733127199999899,-,-,-,,,,,,,,536,19,Woman,Right,,,,,,,,,,,,,,,,,536,19,Woman,Right,
1,1,1.0,180,-,180,0.2811729000000014,-,-,-,,,,,,,,536,19,Woman,Right,,,,,,,,,,,,,,,,,536,19,Woman,Right,
1,1,1.0,0,-,0,0.4568598999999267,-,-,-,,,,,,,,536,19,Woman,Right,,,,,,,,,,,,,,,,,536,19,Woman,Right,
1,1,1.0,180,-,180,0.23256440000000111,-,-,-,,,,,,,,536,19,Woman,Right,,,,,,,,,,,,,,,,,536,19,Woman,Right,
1,1,1.0,180,-,180,0.01663670000016282,-,-,-,,,,,,,,536,19,Woman,Right,,,,,,,,,,,,,,,,,536,19,Woman,Right,
1,1,1.0,180,-,180,0.01683580000008078,-,-,-,,,,,,,,536,19,Woman,Right,,,,,,,,,,,,,,,,,536,19,Woman,Right,
1,1,1.0,180,-,180,0.01681929999995191,-,-,-,,,,,,,,536,19,Woman,Right,,,,,,,,,,,,,,,,,536,19,Woman,Right,
1,1,1.0,180,-,180,0.2633991000000151,-,-,-,,,,,,,,536,19,Woman,Right,,,,,,,,,,,,,,,,,536,19,Woman,Right,
1,1,1.0,0,-,0,0.09511059999999816,-,-,-,10,10,10,10,1.0,1.0,,536,19,Woman,Right,,,,,,,,,,,,,,,,,536,19,Woman,Right,
2,1,0.15,0,-,180,1.2001949000000423,-,-,-,,,,,,,,536,19,Woman,Right,,,,,,,,,,,,,,,,,536,19,Woman,Right,
2,1,0.4,180,-,180,0.6346245000002,-,-,-,,,,,,,,536,19,Woman,Right,,,,,,,,,,,,,,,,,536,19,Woman,Right,
2,1,0.15,180,-,180,0.8826019000000542,-,-,-,,,,,,,,536,19,Woman,Right,,,,,,,,,,,,,,,,,536,19,Woman,Right,
2,1,0.4,0,-,0,0.26484959999993407,-,-,-,,,,,,,,536,19,Woman,Right,,,,,,,,,,,,,,,,,536,19,Woman,Right,
2,1,0.15,180,-,0,0.465016500000047,-,-,-,,,,,,,,536,19,Woman,Right,,,,,,,,,,,,,,,,,536,19,Woman,Right,
2,1,0.4,0,-,0,0.28322849999995015,-,-,-,,,,,,,,536,19,Woman,Right,,,,,,,,,,,,,,,,,536,19,Woman,Right,
2,1,0.15,0,-,180,0.3605743999999049,-,-,-,,,,,,,,536,19,Woman,Right,,,,,,,,,,,,,,,,,536,19,Woman,Right,
2,1,0.15,0,-,0,0.4600325999999768,-,-,-,,,,,,,,536,19,Woman,Right,,,,,,,,,,,,,,,,,536,19,Woman,Right,
2,1,0.4,0,-,0,0.30818650000014713,-,-,-,,,,,,,,536,19,Woman,Right,,,,,,,,,,,,,,,,,536,19,Woman,Right,
2,1,0.4,180,-,180,0.218619100000069,-,-,-,7,5,10,5,0.7,1.0,,536,19,Woman,Right,,,,,,,,,,,,,,,,,536,19,Woman,Right,
3,2,1.0,180,0,0,0.9331809000000248,['y'],3.9266737000000376,2,,,,,,,,536,19,Woman,Right,,,,,,,,,,,,,,,,,536,19,Woman,Right,
3,2,1.0,180,0,0,2.3504377999997814,['y'],1.979593100000102,2.0,,,,,,,,536,19,Woman,Right,,,,,,,,,,,,,,,,,536,19,Woman,Right,
3,2,1.0,0,180,180,1.0483671999998023,['y'],2.039684800000032,2.0,,,,,,,,536,19,Woman,Right,,,,,,,,,,,,,,,,,536,19,Woman,Right,
3,2,1.0,180,0,0,0.6085406999998213,['y'],1.033243099999936,2.0,,,,,,,,536,19,Woman,Right,,,,,,,,,,,,,,,,,536,19,Woman,Right,
3,2,1.0,180,0,0,0.5526366999999937,['y'],0.6924414999998589,2.0,,,,,,,,536,19,Woman,Right,,,,,,,,,,,,,,,,,536,19,Woman,Right,
3,2,1.0,0,180,180,0.6130180000000109,['y'],0.3101249999999709,2.0,,,,,,,,536,19,Woman,Right,,,,,,,,,,,,,,,,,536,19,Woman,Right,
3,2,1.0,180,0,0,0.3629710999998679,['y'],0.3117927000000691,2.0,,,,,,,,536,19,Woman,Right,,,,,,,,,,,,,,,,,536,19,Woman,Right,
3,2,1.0,0,180,180,0.3411561000000347,['y'],0.7460707000000184,2.0,,,,,,,,536,19,Woman,Right,,,,,,,,,,,,,,,,,536,19,Woman,Right,
3,2,1.0,180,0,0,0.6346971000000394,['y'],0.31592780000005405,2.0,,,,,,,,536,19,Woman,Right,,,,,,,,,,,,,,,,,536,19,Woman,Right,
3,2,1.0,0,180,180,0.3450253999999404,['y'],0.32591859999979533,2.0,10,10,10,10,1.0,1.0,,536,19,Woman,Right,,,,,,,,,,,,,,,,,536,19,Woman,Right,
4,2,0.4,180,0,0,0.6476218000000245,['y'],0.26458869999987655,2.0,,,,,,,,536,19,Woman,Right,,,,,,,,,,,,,,,,,536,19,Woman,Right,
4,2,0.4,180,0,0,0.4037098999999671,['y'],0.3093160999999327,2.0,,,,,,,,536,19,Woman,Right,,,,,,,,,,,,,,,,,536,19,Woman,Right,
4,2,0.4,180,0,0,0.6928008999998383,['y'],0.2519858999999087,2.0,,,,,,,,536,19,Woman,Right,,,,,,,,,,,,,,,,,536,19,Woman,Right,
4,2,0.15,0,180,0,0.6990057999998953,['n'],3.2964483999999175,1.0,,,,,,,,536,19,Woman,Right,,,,,,,,,,,,,,,,,536,19,Woman,Right,
4,2,0.15,0,180,180,1.3388820999998643,['y'],1.0391471999998885,1.492,,,,,,,,536,19,Woman,Right,,,,,,,,,,,,,,,,,536,19,Woman,Right,
4,2,0.15,0,180,0,1.6237951000000521,['n'],0.7451304999999593,1.0,,,,,,,,536,19,Woman,Right,,,,,,,,,,,,,,,,,536,19,Woman,Right,
4,2,0.4,0,180,0,0.6864062000001923,['y'],0.3019583000000239,1.0,,,,,,,,536,19,Woman,Right,,,,,,,,,,,,,,,,,536,19,Woman,Right,
4,2,0.4,180,0,0,0.591528100000005,['y'],1.0514803000000938,2.0,,,,,,,,536,19,Woman,Right,,,,,,,,,,,,,,,,,536,19,Woman,Right,
4,2,0.15,0,180,180,1.0688046000000213,['y'],0.46750680000013745,1.68,,,,,,,,536,19,Woman,Right,,,,,,,,,,,,,,,,,536,19,Woman,Right,
4,2,0.4,0,180,180,0.5119528000000173,['y'],0.2549546999998711,2.0,7,5,10,6,0.7,0.8333333333333334,,536,19,Woman,Right,,,,,,,,,,,,,,,,,536,19,Woman,Right,
5,3,1.0,180,-,0,0.7852600999999595,['y'],0.4442527000001064,1.0,,,,,,,,536,19,Woman,Right,,,,,,,,,,,,,,,,,536,19,Woman,Right,
5,3,1.0,0,-,0,2.049263500000052,['n'],0.8092661000000589,1.85,,,,,,,,536,19,Woman,Right,,,,,,,,,,,,,,,,,536,19,Woman,Right,
5,3,0.4,180,-,0,2.1712079999999787,['y'],0.5995089999998982,1.0,,,,,,,,536,19,Woman,Right,,,,,,,,,,,,,,,,,536,19,Woman,Right,
5,3,0.4,180,0,0,0.4723398000000998,['y'],0.2486928999999236,2.0,,,,,,,,536,19,Woman,Right,,,,,,,,,,,,,,,,,536,19,Woman,Right,
5,3,0.4,180,-,0,1.9984079999999267,['n'],0.4247733000001972,1.716,,,,,,,,536,19,Woman,Right,,,,,,,,,,,,,,,,,536,19,Woman,Right,
5,3,1.0,0,-,180,0.6184401000000435,['y'],0.7640646000002107,1.0,,,,,,,,536,19,Woman,Right,,,,,,,,,,,,,,,,,536,19,Woman,Right,
5,3,0.15,0,180,180,1.9036137000000508,['n'],0.42260749999991276,1.134,,,,,,,,536,19,Woman,Right,,,,,,,,,,,,,,,,,536,19,Woman,Right,
5,3,1.0,0,180,180,0.714054600000054,['y'],0.35227259999987837,1.908,,,,,,,,536,19,Woman,Right,,,,,,,,,,,,,,,,,536,19,Woman,Right,
5,3,0.15,180,-,180,1.3114094999998542,['n'],0.3020468999998229,1.718,,,,,,,,536,19,Woman,Right,,,,,,,,,,,,,,,,,536,19,Woman,Right,
5,3,0.4,180,-,180,0.9204818999999134,['n'],0.2538862000001245,1.8940000000000001,,,,,,,,536,19,Woman,Right,,,,,,,,,,,,,,,,,536,19,Woman,Right,
5,3,1.0,180,-,0,0.9832531999998082,['n'],0.33082790000003115,1.56,,,,,,,,536,19,Woman,Right,,,,,,,,,,,,,,,,,536,19,Woman,Right,
5,3,0.4,0,-,180,0.5525133000001006,['n'],0.2290618000001814,1.782,,,,,,,,536,19,Woman,Right,,,,,,,,,,,,,,,,,536,19,Woman,Right,
5,3,1.0,0,180,180,0.38876859999982116,['y'],0.2643238000000565,2.0,,,,,,,,536,19,Woman,Right,,,,,,,,,,,,,,,,,536,19,Woman,Right,
5,3,0.4,180,-,0,0.5736989999998059,['y'],0.8496582999998736,1.0,,,,,,,,536,19,Woman,Right,,,,,,,,,,,,,,,,,536,19,Woman,Right,
5,3,0.4,0,180,180,1.019003100000191,['y'],0.7728592999999364,2.0,,,,,,,,536,19,Woman,Right,,,,,,,,,,,,,,,,,536,19,Woman,Right,
5,3,1.0,180,0,0,1.3029143999999633,['y'],0.2535400000001573,2.0,,,,,,,,536,19,Woman,Right,,,,,,,,,,,,,,,,,536,19,Woman,Right,
5,3,1.0,180,-,180,1.3497020999998313,['n'],0.33765489999996134,2.0,,,,,,,,536,19,Woman,Right,,,,,,,,,,,,,,,,,536,19,Woman,Right,
5,3,1.0,0,180,180,0.8161155000000235,['y'],0.2504068000000643,2.0,,,,,,,,536,19,Woman,Right,,,,,,,,,,,,,,,,,536,19,Woman,Right,
5,3,0.15,0,-,0,1.2149443000000701,['n'],0.27281710000011117,2.0,,,,,,,,536,19,Woman,Right,,,,,,,,,,,,,,,,,536,19,Woman,Right,
5,3,0.4,0,-,0,0.6482309999998961,['n'],1.001656500000081,1.816,,,,,,,,536,19,Woman,Right,,,,,,,,,,,,,,,,,536,19,Woman,Right,
5,3,0.15,0,-,0,0.9001858999999968,['n'],1.1866782000001876,1.802,,,,,,,,536,19,Woman,Right,,,,,,,,,,,,,,,,,536,19,Woman,Right,
5,3,0.15,180,0,180,0.3229487999999492,['n'],0.5378608999999415,1.57,,,,,,,,536,19,Woman,Right,,,,,,,,,,,,,,,,,536,19,Woman,Right,
5,3,0.4,0,180,180,0.7345593000000008,['y'],0.4597218999999768,2.0,,,,,,,,536,19,Woman,Right,,,,,,,,,,,,,,,,,536,19,Woman,Right,
5,3,0.15,180,0,0,0.6645177000000331,['n'],0.27287810000007084,1.678,,,,,,,,536,19,Woman,Right,,,,,,,,,,,,,,,,,536,19,Woman,Right,
5,3,0.15,180,-,180,0.4731731000001673,['n'],0.3538341000000855,1.77,,,,,,,,536,19,Woman,Right,,,,,,,,,,,,,,,,,536,19,Woman,Right,
5,3,0.15,180,-,180,0.34941649999996116,['n'],0.28974719999996523,2.0,,,,,,,,536,19,Woman,Right,,,,,,,,,,,,,,,,,536,19,Woman,Right,
5,3,1.0,180,-,180,1.1211817999999312,['n'],1.070377500000177,1.76,,,,,,,,536,19,Woman,Right,,,,,,,,,,,,,,,,,536,19,Woman,Right,
5,3,1.0,0,180,180,0.5618435000001227,['y'],4.253639699999894,2.0,,,,,,,,536,19,Woman,Right,,,,,,,,,,,,,,,,,536,19,Woman,Right,
5,3,0.15,0,180,0,1.9710267999998905,['n'],0.2718495999999959,1.3639999999999999,,,,,,,,536,19,Woman,Right,,,,,,,,,,,,,,,,,536,19,Woman,Right,
5,3,1.0,0,180,180,0.2881148999999823,['y'],0.31892130000005636,2.0,8,4,10,4,0.8,1.0,,536,19,Woman,Right,,,,,,,,,,,,,,,,,536,19,Woman,Right,
,,,,,,,,,,,,,,,,4.7999997150327545e-06,536,19,Woman,Right,,,,,,,,,,,,,,,,,536,19,Woman,Right,
,,,,,,,,,,,,,,,,,536,19,Woman,Right,0,12,0.4,1,0,-,0,1.5162162999999964,['n'],9.009444300000268,1.032,441.6512630999998,,,,,536,19,Woman,Right,
,,,,,,,,,,,,,,,,,536,19,Woman,Right,0,41,0.4,2,0,180,180,0.6229063999999198,['y'],1.5194361999997454,2.0,447.1006722999998,,,,,536,19,Woman,Right,
,,,,,,,,,,,,,,,,,536,19,Woman,Right,0,47,0.15,2,180,0,0,0.6484325000001263,['n'],0.9994968000000881,2.0,453.4002671999999,,,,,536,19,Woman,Right,
,,,,,,,,,,,,,,,,,536,19,Woman,Right,0,7,1,2,180,0,0,0.35111509999978807,['y'],1.8156998999997995,2.0,458.41692469999975,,,,,536,19,Woman,Right,
,,,,,,,,,,,,,,,,,536,19,Woman,Right,0,55,0.15,2,180,0,0,0.3043453000000227,['y'],1.4314117999997507,2.0,463.13461900000016,,,,,536,19,Woman,Right,
,,,,,,,,,,,,,,,,,536,19,Woman,Right,0,17,0.4,2,0,180,180,0.7311163999997916,['y'],1.2873177000001306,2.0,468.8003731000001,,,,,536,19,Woman,Right,
,,,,,,,,,,,,,,,,,536,19,Woman,Right,0,32,0.4,1,0,-,0,0.8716462999996111,['n'],0.847158799999761,1.838,473.43340999999987,,,,,536,19,Woman,Right,
,,,,,,,,,,,,,,,,,536,19,Woman,Right,0,72,0.15,1,0,-,0,0.6132066999998642,['n'],1.0308317999997598,1.3860000000000001,479.10039189999975,,,,,536,19,Woman,Right,
,,,,,,,,,,,,,,,,,536,19,Woman,Right,0,51,0.15,2,180,0,180,0.9395687999999609,['n'],1.2071392999996533,1.576,484.51774739999996,,,,,536,19,Woman,Right,
,,,,,,,,,,,,,,,,,536,19,Woman,Right,0,33,0.4,2,0,180,180,0.43246210000006613,['y'],1.311431999999968,1.736,488.7342707,,,,,536,19,Woman,Right,
,,,,,,,,,,,,,,,,,536,19,Woman,Right,0,6,1,1,180,-,180,1.2142736999999215,['n'],0.7431293999998161,1.8820000000000001,493.5343555000002,,,,,536,19,Woman,Right,
,,,,,,,,,,,,,,,,,536,19,Woman,Right,0,24,0.4,1,0,-,0,0.8237791999999899,['n'],1.463629200000014,1.168,498.6843161999998,,,,,536,19,Woman,Right,
,,,,,,,,,,,,,,,,,536,19,Woman,Right,0,5,1,2,0,180,180,0.5546884000000318,['y'],1.0154161999998905,2.0,503.23404400000004,,,,,536,19,Woman,Right,
,,,,,,,,,,,,,,,,,536,19,Woman,Right,0,45,0.15,2,0,180,0,0.4968592999998691,['y'],0.9992796000001363,1.6019999999999999,507.4683053000001,,,,,536,19,Woman,Right,
,,,,,,,,,,,,,,,,,536,19,Woman,Right,0,44,0.15,1,0,-,180,0.6375517999999829,['n'],1.286901299999954,1.4140000000000001,513.3669851000002,,,,,536,19,Woman,Right,
,,,,,,,,,,,,,,,,,536,19,Woman,Right,0,53,0.15,2,0,180,180,0.7020566999999573,['y'],1.607307100000071,1.248,518.4505934000001,,,,,536,19,Woman,Right,
,,,,,,,,,,,,,,,,,536,19,Woman,Right,0,27,0.4,2,180,0,0,0.43102920000001177,['y'],0.7675411999998687,2.0,522.6668874,,,,,536,19,Woman,Right,
,,,,,,,,,,,,,,,,,536,19,Woman,Right,0,23,0.4,2,180,0,0,0.420792899999924,['y'],0.7916510000000017,1.798,527.0003843000002,,,,,536,19,Woman,Right,
,,,,,,,,,,,,,,,,,536,19,Woman,Right,0,65,0.15,2,0,180,180,0.7353517000001375,['y'],1.1911373999996613,1.19,531.8006358,,,,,536,19,Woman,Right,
,,,,,,,,,,,,,,,,,536,19,Woman,Right,0,35,0.4,2,180,0,0,0.5597735000001194,['y'],0.7196559999997589,1.768,536.0686907000002,,,,,536,19,Woman,Right,
,,,,,,,,,,,,,,,,,536,19,Woman,Right,0,73,0.15,2,0,180,180,0.47398959999964063,['y'],1.2874194999999418,1.1520000000000001,541.1002452,,,,,536,19,Woman,Right,
,,,,,,,,,,,,,,,,,536,19,Woman,Right,0,57,0.15,2,0,180,180,1.4271758999998383,['n'],1.1437239000001682,1.13,546.3344522,,,,,536,19,Woman,Right,
,,,,,,,,,,,,,,,,,536,19,Woman,Right,0,20,0.4,1,0,-,180,0.6017210999998497,['n'],1.534784099999797,1.15,551.4671943000001,,,,,536,19,Woman,Right,
,,,,,,,,,,,,,,,,,536,19,Woman,Right,0,31,0.4,2,180,0,0,0.8935976999996456,['y'],0.7032275000001391,1.842,556.1011818999998,,,,,536,19,Woman,Right,
,,,,,,,,,,,,,,,,,536,19,Woman,Right,0,10,0.4,1,180,-,0,0.965114700000413,['y'],1.0947446999998647,1.362,560.9168751,,,,,536,19,Woman,Right,
,,,,,,,,,,,,,,,,,536,19,Woman,Right,0,52,0.15,1,0,-,0,0.5872226999999839,['n'],1.7595412000000579,1.312,565.9511676,,,,,536,19,Woman,Right,
,,,,,,,,,,,,,,,,,536,19,Woman,Right,0,64,0.15,1,0,-,0,0.7059236999998575,['n'],0.9916863999997076,1.302,570.2177614,,,,,536,19,Woman,Right,
,,,,,,,,,,,,,,,,,536,19,Woman,Right,0,36,0.4,1,0,-,0,3.503149300000132,['n'],1.1110693000000538,1.0,577.6672580000002,,,,,536,19,Woman,Right,
,,,,,,,,,,,,,,,,,536,19,Woman,Right,0,58,0.15,1,180,-,0,0.7644700000000739,['n'],0.7517590999996173,1.01,581.9011327999999,,,,,536,19,Woman,Right,
,,,,,,,,,,,,,,,,,536,19,Woman,Right,0,18,0.4,1,180,-,0,0.877049100000022,['n'],0.7112770999997338,1.212,586.1510882999999,,,,,536,19,Woman,Right,
,,,,,,,,,,,,,,,,,536,19,Woman,Right,0,48,0.15,1,0,-,180,0.6101122999998552,['n'],1.0635704999999689,1.19,590.4674539999999,,,,,536,19,Woman,Right,
,,,,,,,,,,,,,,,,,536,19,Woman,Right,0,56,0.15,1,0,-,0,0.6681381000003057,['n'],0.5512087000001884,1.2,594.5166922999999,,,,,536,19,Woman,Right,
,,,,,,,,,,,,,,,,,536,19,Woman,Right,0,42,0.4,1,180,-,0,1.0755341000003682,['n'],0.3753130999998575,1.21,598.6663621999999,,,,,536,19,Woman,Right,
,,,,,,,,,,,,,,,,,536,19,Woman,Right,0,60,0.15,1,0,-,0,1.1413400000001275,['n'],1.2233319000001757,1.124,603.8332191000002,,,,,536,19,Woman,Right,
,,,,,,,,,,,,,,,,,536,19,Woman,Right,0,75,0.15,2,180,0,0,2.863030600000002,['n'],0.9591092000000572,1.554,610.3674211,,,,,536,19,Woman,Right,
,,,,,,,,,,,,,,,,,536,19,Woman,Right,0,79,0.15,2,180,0,0,1.5443444000002273,['n'],1.119004799999857,1.666,615.4849737000002,,,,,536,19,Woman,Right,
,,,,,,,,,,,,,,,,,536,19,Woman,Right,0,78,0.15,1,180,-,180,0.5977303999998185,['n'],0.7274112999998579,1.674,619.3170539,,,,,536,19,Woman,Right,
,,,,,,,,,,,,,,,,,536,19,Woman,Right,0,43,0.4,2,180,0,0,0.5644348000000718,['n'],0.6556328000001486,1.704,623.0340493000001,,,,,536,19,Woman,Right,
,,,,,,,,,,,,,,,,,536,19,Woman,Right,0,21,0.4,2,0,180,180,1.4307410000001255,['n'],1.2795784999998432,1.738,628.2675277999999,,,,,536,19,Woman,Right,
,,,,,,,,,,,,,,,,,536,19,Woman,Right,0,14,0.4,1,180,-,0,0.7414121000001614,['n'],0.7355384999996204,1.6019999999999999,632.1344812,,,,,536,19,Woman,Right,
,,,,,,,,,,,,,,,,,536,19,Woman,Right,0,19,0.4,2,180,0,0,1.1140347999998994,['n'],1.0706783000000542,1.47,636.7830147000002,,,,,536,19,Woman,Right,
,,,,,,,,,,,,,,,,,536,19,Woman,Right,0,69,0.15,2,0,180,180,0.9648046000002068,['n'],1.8713089000002583,1.516,642.1508056,,,,,536,19,Woman,Right,
,,,,,,,,,,,,,,,,,536,19,Woman,Right,0,22,0.4,1,180,-,0,0.4197786000004271,['n'],0.7832697999997436,1.3519999999999999,646.1179472000001,,,,,536,19,Woman,Right,
,,,,,,,,,,,,,,,,,536,19,Woman,Right,0,76,0.15,1,0,-,0,4.914910899999995,['n'],1.15911320000032,1.0,655.1005465000001,,,,,536,19,Woman,Right,
,,,,,,,,,,,,,,,,,536,19,Woman,Right,0,1,1,2,0,180,180,0.9773387000000184,['y'],2.399047999999766,1.564,663.5336395000002,,,,,536,19,Woman,Right,
,,,,,,,,,,,,,,,,,536,19,Woman,Right,0,61,0.15,2,0,180,0,1.6454945999998927,['y'],1.087567399999898,1.29,669.3843095,,,,,536,19,Woman,Right,
,,,,,,,,,,,,,,,,,536,19,Woman,Right,0,40,0.4,1,0,-,180,3.4248240999995687,['n'],1.2549579999999878,1.3479999999999999,676.5006637999998,,,,,536,19,Woman,Right,
,,,,,,,,,,,,,,,,,536,19,Woman,Right,0,9,0.4,2,0,180,180,0.5855330999997932,['y'],1.5753543999999238,1.8860000000000001,682.2170982,,,,,536,19,Woman,Right,
,,,,,,,,,,,,,,,,,536,19,Woman,Right,0,68,0.15,1,0,-,0,0.6024282999997013,['n'],2.3353370999998333,1.302,688.100717,,,,,536,19,Woman,Right,
,,,,,,,,,,,,,,,,,536,19,Woman,Right,0,13,0.4,2,0,180,180,0.4772717000000739,['y'],1.4875073999996857,1.804,692.9339655000001,,,,,536,19,Woman,Right,
,,,,,,,,,,,,,,,,,536,19,Woman,Right,0,49,0.15,2,0,180,180,0.3937364999997044,['n'],1.7031627999999728,1.436,697.7018353999999,,,,,536,19,Woman,Right,
,,,,,,,,,,,,,,,,,536,19,Woman,Right,0,62,0.15,1,180,-,0,0.6055789000001823,['n'],1.3195427999999083,1.278,701.9169860999998,,,,,536,19,Woman,Right,
,,,,,,,,,,,,,,,,,536,19,Woman,Right,0,11,0.4,2,180,0,0,0.4011838000001262,['y'],1.1435612999998739,1.674,706.1670102,,,,,536,19,Woman,Right,
,,,,,,,,,,,,,,,,,536,19,Woman,Right,0,71,0.15,2,180,0,0,0.8992803000001004,['n'],1.1172199000002365,1.7,711.3169738999998,,,,,536,19,Woman,Right,
,,,,,,,,,,,,,,,,,536,19,Woman,Right,0,15,0.4,2,180,0,0,0.8525303999999778,['n'],0.8955587000000378,1.714,715.7335643999998,,,,,536,19,Woman,Right,
,,,,,,,,,,,,,,,,,536,19,Woman,Right,0,34,0.4,1,180,-,0,1.0414410000003045,['n'],0.7115783999997802,1.3479999999999999,721.0841994999998,,,,,536,19,Woman,Right,
,,,,,,,,,,,,,,,,,536,19,Woman,Right,0,59,0.15,2,180,0,0,1.2134499999997388,['n'],1.599583100000018,1.634,726.7849233999998,,,,,536,19,Woman,Right,
,,,,,,,,,,,,,,,,,536,19,Woman,Right,0,26,0.4,1,180,-,180,0.9952112000000852,['n'],0.7674049000002015,1.8439999999999999,731.1508062,,,,,536,19,Woman,Right,
,,,,,,,,,,,,,,,,,536,19,Woman,Right,0,67,0.15,2,180,0,0,0.7997805999998491,['y'],1.279453299999659,1.804,736.0345132,,,,,536,19,Woman,Right,
,,,,,,,,,,,,,,,,,536,19,Woman,Right,0,3,1,2,180,0,0,0.30310389999976906,['y'],0.7996139000001676,1.964,740.484232,,,,,536,19,Woman,Right,
,,,,,,,,,,,,,,,,,536,19,Woman,Right,0,66,0.15,1,180,-,180,1.6250325999999404,['n'],0.9995118000001639,1.806,746.1342573999998,,,,,536,19,Woman,Right,
,,,,,,,,,,,,,,,,,536,19,Woman,Right,0,29,0.4,2,0,180,180,0.39131170000018756,['y'],1.703277099999923,1.904,751.1664447,,,,,536,19,Woman,Right,
,,,,,,,,,,,,,,,,,536,19,Woman,Right,0,37,0.4,2,0,180,180,0.36969189999990704,['y'],1.3753714000004038,1.98,755.4670106000001,,,,,536,19,Woman,Right,
,,,,,,,,,,,,,,,,,536,19,Woman,Right,0,2,1,1,180,-,180,0.5640611999997418,['n'],0.9592941999999312,1.926,760.1170924999999,,,,,536,19,Woman,Right,
,,,,,,,,,,,,,,,,,536,19,Woman,Right,0,74,0.15,1,180,-,0,0.7356838999999127,['y'],0.615625099999761,1.6280000000000001,764.3669950000001,,,,,536,19,Woman,Right,
,,,,,,,,,,,,,,,,,536,19,Woman,Right,0,77,0.15,2,0,180,0,1.6161465999998654,['n'],0.9335063000003174,1.63,769.8674757000001,,,,,536,19,Woman,Right,
,,,,,,,,,,,,,,,,,536,19,Woman,Right,0,38,0.4,1,180,-,180,0.6456072999999378,['n'],2.6715221999997993,1.6400000000000001,776.0331417,,,,,536,19,Woman,Right,
,,,,,,,,,,,,,,,,,536,19,Woman,Right,0,63,0.15,2,180,0,180,0.5754828999997699,['n'],0.8475453000000925,1.6320000000000001,779.6007596000002,,,,,536,19,Woman,Right,
,,,,,,,,,,,,,,,,,536,19,Woman,Right,0,25,0.4,2,0,180,180,0.6698802999999316,['y'],1.3192254000000503,1.818,784.3494827000002,,,,,536,19,Woman,Right,
,,,,,,,,,,,,,,,,,536,19,Woman,Right,0,54,0.15,1,180,-,180,1.0355695999996897,['n'],0.8796297999997478,1.77,788.6672768000001,,,,,536,19,Woman,Right,
,,,,,,,,,,,,,,,,,536,19,Woman,Right,0,70,0.15,1,180,-,180,0.9832682000001114,['n'],1.269532799999979,1.77,794.0342572000002,,,,,536,19,Woman,Right,
,,,,,,,,,,,,,,,,,536,19,Woman,Right,0,30,0.4,1,180,-,180,0.3777253000002929,['n'],0.6473498000000291,1.77,797.4501225000001,,,,,536,19,Woman,Right,
,,,,,,,,,,,,,,,,,536,19,Woman,Right,0,0,1,1,0,-,0,0.45148139999992054,['n'],1.0076395000000957,1.9,801.7003391000001,,,,,536,19,Woman,Right,
,,,,,,,,,,,,,,,,,536,19,Woman,Right,0,39,0.4,2,180,0,0,0.5579188000001523,['y'],0.8233139000003575,1.974,806.3176182,,,,,536,19,Woman,Right,
,,,,,,,,,,,,,,,,,536,19,Woman,Right,0,4,1,1,0,-,0,0.4245934999999008,['n'],0.7513587999997071,1.966,809.8169933000001,,,,,536,19,Woman,Right,
,,,,,,,,,,,,,,,,,536,19,Woman,Right,0,28,0.4,1,0,-,0,0.9225394000000051,['n'],1.0955112000001463,1.966,816.9339679000002,,,,,536,19,Woman,Right,
,,,,,,,,,,,,,,,,,536,19,Woman,Right,0,8,0.4,1,0,-,180,0.7240930000002663,['y'],1.5433518999998341,1.374,822.3503319999998,,,,,536,19,Woman,Right,
,,,,,,,,,,,,,,,,,536,19,Woman,Right,0,50,0.15,1,180,-,180,0.6123011999998198,['n'],0.9430411999996977,1.764,826.3832021000001,,,,,536,19,Woman,Right,
,,,,,,,,,,,,,,,,,536,19,Woman,Right,0,46,0.15,1,180,-,180,0.8149195999999392,['n'],0.8152522000000317,1.854,830.3005403,,,,,536,19,Woman,Right,
,,,,,,,,,,,,,,,,,536,19,Woman,Right,0,16,0.4,1,0,-,0,0.6431707000001552,['n'],1.7035970000001726,1.742,835.4998438,,,,,536,19,Woman,Right,
,,,,,,,,,,,,,,,,,536,19,Woman,Right,1,64,0.15,1,0,-,0,0.9160922000000937,['n'],1.0474441999999726,1.338,873.4836922000002,76.25,92.5,62.5,,536,19,Woman,Right,
,,,,,,,,,,,,,,,,,536,19,Woman,Right,1,40,0.4,1,0,-,180,0.619945099999768,['n'],2.2234001000001626,1.304,879.0839469,,,,,536,19,Woman,Right,
,,,,,,,,,,,,,,,,,536,19,Woman,Right,1,32,0.4,1,0,-,0,0.981590899999901,['n'],0.7754323999997723,1.32,883.3835686999998,,,,,536,19,Woman,Right,
,,,,,,,,,,,,,,,,,536,19,Woman,Right,1,67,0.15,2,180,0,180,0.37016189999985727,['n'],1.4312905000001592,1.178,887.7837099999999,,,,,536,19,Woman,Right,
,,,,,,,,,,,,,,,,,536,19,Woman,Right,1,4,1,1,0,-,0,0.6307707000000846,['n'],0.7756514999996398,1.688,891.7499568000001,,,,,536,19,Woman,Right,
,,,,,,,,,,,,,,,,,536,19,Woman,Right,1,50,0.15,1,180,-,0,0.48874179999984335,['n'],0.9751283000000512,1.294,896.7334705000001,,,,,536,19,Woman,Right,
,,,,,,,,,,,,,,,,,536,19,Woman,Right,1,14,0.4,1,180,-,180,0.9496278000001439,['n'],0.7433139999998275,1.518,901.0174011000001,,,,,536,19,Woman,Right,
,,,,,,,,,,,,,,,,,536,19,Woman,Right,1,66,0.15,1,180,-,180,0.47873440000012124,['n'],0.5913070999999945,1.518,904.4172209000001,,,,,536,19,Woman,Right,
,,,,,,,,,,,,,,,,,536,19,Woman,Right,1,16,0.4,1,0,-,0,1.4432971999999609,['n'],1.0078897999997025,1.674,909.6666524999998,,,,,536,19,Woman,Right,
,,,,,,,,,,,,,,,,,536,19,Woman,Right,1,11,0.4,2,180,0,0,2.1897627000003013,['y'],1.0157704000002923,1.986,916.3160494000001,,,,,536,19,Woman,Right,
,,,,,,,,,,,,,,,,,536,19,Woman,Right,1,5,1,2,0,180,180,0.3169468000000961,['y'],0.8874700000001212,1.98,920.2507582999999,,,,,536,19,Woman,Right,
,,,,,,,,,,,,,,,,,536,19,Woman,Right,1,18,0.4,1,180,-,180,1.0722075000003315,['n'],0.9908557999997356,1.978,925.067436,,,,,536,19,Woman,Right,
,,,,,,,,,,,,,,,,,536,19,Woman,Right,1,2,1,1,180,-,180,0.3586099999997714,['n'],0.6866968000003908,1.986,928.7499381,,,,,536,19,Woman,Right,
,,,,,,,,,,,,,,,,,536,19,Woman,Right,1,37,0.4,2,0,180,180,0.3617962999996962,['y'],1.255206199999975,1.986,932.8002651999998,,,,,536,19,Woman,Right,
,,,,,,,,,,,,,,,,,536,19,Woman,Right,1,58,0.15,1,180,-,0,0.43828480000001946,['y'],0.9034914999997454,1.986,936.6839524,,,,,536,19,Woman,Right,
,,,,,,,,,,,,,,,,,536,19,Woman,Right,1,43,0.4,2,180,0,0,0.7787475000000086,['y'],1.6797406000000592,1.986,941.8662035,,,,,536,19,Woman,Right,
,,,,,,,,,,,,,,,,,536,19,Woman,Right,1,8,0.4,1,0,-,0,0.9499963000002936,['n'],0.9596239000002242,1.962,946.8167305999998,,,,,536,19,Woman,Right,
,,,,,,,,,,,,,,,,,536,19,Woman,Right,1,62,0.15,1,180,-,180,0.7195956000000479,['n'],1.1993837999998505,1.376,951.2165615000001,,,,,536,19,Woman,Right,
,,,,,,,,,,,,,,,,,536,19,Woman,Right,1,12,0.4,1,0,-,0,0.3381300999999439,['n'],0.839543500000218,1.752,954.7339258,,,,,536,19,Woman,Right,
,,,,,,,,,,,,,,,,,536,19,Woman,Right,1,44,0.15,1,0,-,0,0.3732779000001756,['n'],0.8392161000001579,1.752,958.4338187999999,,,,,536,19,Woman,Right,
,,,,,,,,,,,,,,,,,536,19,Woman,Right,1,1,1,2,0,180,180,0.39977230000022246,['y'],1.2472382999999354,1.988,962.8161791999999,,,,,536,19,Woman,Right,
,,,,,,,,,,,,,,,,,536,19,Woman,Right,1,25,0.4,2,0,180,180,0.8410063999999693,['y'],1.1106757999996262,1.964,967.3833561999998,,,,,536,19,Woman,Right,
,,,,,,,,,,,,,,,,,536,19,Woman,Right,1,26,0.4,1,180,-,180,0.4098435000000791,['n'],1.4390231000002132,1.964,971.8828378000001,,,,,536,19,Woman,Right,
,,,,,,,,,,,,,,,,,536,19,Woman,Right,1,24,0.4,1,0,-,180,2.7180076999998164,['n'],1.5273784999999407,1.6179999999999999,978.6336715,,,,,536,19,Woman,Right,
,,,,,,,,,,,,,,,,,536,19,Woman,Right,1,76,0.15,1,0,-,180,0.5577078999999685,['n'],1.1194525000000795,1.986,982.9338234999998,,,,,536,19,Woman,Right,
,,,,,,,,,,,,,,,,,536,19,Woman,Right,1,9,0.4,2,0,180,180,0.4299348999998074,['y'],0.9834725999999137,1.988,987.0851320999998,,,,,536,19,Woman,Right,
,,,,,,,,,,,,,,,,,536,19,Woman,Right,1,28,0.4,1,0,-,0,1.1977661000000808,['n'],0.7353324999999131,1.984,991.2332989999998,,,,,536,19,Woman,Right,
,,,,,,,,,,,,,,,,,536,19,Woman,Right,1,68,0.15,1,0,-,180,0.6943435999996836,['n'],0.9115240999999514,1.984,995.0335076999997,,,,,536,19,Woman,Right,
,,,,,,,,,,,,,,,,,536,19,Woman,Right,1,31,0.4,2,180,0,0,0.34703120000040144,['y'],0.7514495000000352,1.982,998.8335934999998,,,,,536,19,Woman,Right,
,,,,,,,,,,,,,,,,,536,19,Woman,Right,1,47,0.15,2,180,0,0,0.6580228000002535,['n'],1.7997098999999253,1.98,1003.7494260999999,,,,,536,19,Woman,Right,
,,,,,,,,,,,,,,,,,536,19,Woman,Right,1,51,0.15,2,180,0,180,1.025680900000225,['n'],0.8316340999999738,1.98,1007.7827783,,,,,536,19,Woman,Right,
,,,,,,,,,,,,,,,,,536,19,Woman,Right,1,35,0.4,2,180,0,0,0.319516399999884,['y'],0.9667749000000185,1.978,1011.2334758,,,,,536,19,Woman,Right,
,,,,,,,,,,,,,,,,,536,19,Woman,Right,1,29,0.4,2,0,180,180,0.475630099999762,['y'],0.7757495000000745,1.978,1014.7166589999999,,,,,536,19,Woman,Right,
,,,,,,,,,,,,,,,,,536,19,Woman,Right,1,56,0.15,1,0,-,0,1.255615200000193,['n'],1.0713451000001442,1.778,1019.6661622999998,,,,,536,19,Woman,Right,
,,,,,,,,,,,,,,,,,536,19,Woman,Right,1,61,0.15,2,0,180,0,0.7436550000002171,['n'],0.9515756999999212,1.978,1023.5831466000002,,,,,536,19,Woman,Right,
,,,,,,,,,,,,,,,,,536,19,Woman,Right,1,74,0.15,1,180,-,0,0.30245289999993474,['n'],0.9751449000000321,1.968,1028.6331715,,,,,536,19,Woman,Right,
,,,,,,,,,,,,,,,,,536,19,Woman,Right,1,19,0.4,2,180,0,0,0.335125799999787,['y'],1.111286100000143,1.966,1032.2338166000002,,,,,536,19,Woman,Right,
,,,,,,,,,,,,,,,,,536,19,Woman,Right,1,46,0.15,1,180,-,0,0.8766924999999901,['n'],0.9677488000002086,2.0,1036.2337347,,,,,536,19,Woman,Right,
,,,,,,,,,,,,,,,,,536,19,Woman,Right,1,77,0.15,2,0,180,0,2.5428577000002406,['n'],0.7513659000001098,1.99,1041.6493798999998,,,,,536,19,Woman,Right,
,,,,,,,,,,,,,,,,,536,19,Woman,Right,1,55,0.15,2,180,0,0,0.7568881000001966,['n'],1.3754370999999992,1.986,1045.8162725,,,,,536,19,Woman,Right,
,,,,,,,,,,,,,,,,,536,19,Woman,Right,1,52,0.15,1,0,-,0,0.7407452000002195,['n'],1.415605499999856,1.986,1050.0501062,,,,,536,19,Woman,Right,
,,,,,,,,,,,,,,,,,536,19,Woman,Right,1,70,0.15,1,180,-,0,0.5897509000001264,['n'],0.9514773999999306,1.986,1053.6002191999999,,,,,536,19,Woman,Right,
,,,,,,,,,,,,,,,,,536,19,Woman,Right,1,36,0.4,1,0,-,0,0.9436663999999837,['n'],1.839353100000153,1.702,1059.1497766999998,,,,,536,19,Woman,Right,
,,,,,,,,,,,,,,,,,536,19,Woman,Right,1,30,0.4,1,180,-,0,1.1801663999999619,['y'],1.447555100000045,1.444,1064.4326924999998,,,,,536,19,Woman,Right,
,,,,,,,,,,,,,,,,,536,19,Woman,Right,1,60,0.15,1,0,-,0,0.7335244000000785,['n'],1.9550867999996626,1.248,1069.6170190999999,,,,,536,19,Woman,Right,
,,,,,,,,,,,,,,,,,536,19,Woman,Right,1,63,0.15,2,180,0,0,1.3457197000002452,['n'],2.199645099999998,1.316,1075.7500254999998,,,,,536,19,Woman,Right,
,,,,,,,,,,,,,,,,,536,19,Woman,Right,1,38,0.4,1,180,-,180,0.65274509999972,['n'],1.5593525999997837,2.0,1080.6157210999997,,,,,536,19,Woman,Right,
,,,,,,,,,,,,,,,,,536,19,Woman,Right,1,41,0.4,2,0,180,180,0.37743100000034246,['y'],1.5031667999996898,1.298,1084.9507290999998,,,,,536,19,Woman,Right,
,,,,,,,,,,,,,,,,,536,19,Woman,Right,1,6,1,1,180,-,180,0.31850059999987934,['n'],0.6785552000001189,2.0,1089.550304,,,,,536,19,Woman,Right,
,,,,,,,,,,,,,,,,,536,19,Woman,Right,1,75,0.15,2,180,0,180,0.25038210000002437,['n'],3.9196059999999306,1.83,1095.8833788999998,,,,,536,19,Woman,Right,
,,,,,,,,,,,,,,,,,536,19,Woman,Right,1,3,1,2,180,0,0,0.4213297000001148,['y'],0.7033888999999363,1.976,1099.8337660999998,,,,,536,19,Woman,Right,
,,,,,,,,,,,,,,,,,536,19,Woman,Right,1,71,0.15,2,180,0,0,0.5669376000000739,['y'],0.7592908999999963,1.88,1104.5000180999998,,,,,536,19,Woman,Right,
,,,,,,,,,,,,,,,,,536,19,Woman,Right,1,21,0.4,2,0,180,180,0.42875210000011066,['y'],1.3586553999998614,2.0,1109.2159651,,,,,536,19,Woman,Right,
,,,,,,,,,,,,,,,,,536,19,Woman,Right,1,13,0.4,2,0,180,180,1.3440977000000203,['y'],1.791216500000246,1.966,1114.7161815000002,,,,,536,19,Woman,Right,
,,,,,,,,,,,,,,,,,536,19,Woman,Right,1,73,0.15,2,0,180,0,0.5865456000001359,['n'],0.6792080000000169,1.91,1119.1501999999998,,,,,536,19,Woman,Right,
,,,,,,,,,,,,,,,,,536,19,Woman,Right,1,69,0.15,2,0,180,0,1.0182536000002074,['n'],1.0468816000002334,1.988,1123.6822819000001,,,,,536,19,Woman,Right,
,,,,,,,,,,,,,,,,,536,19,Woman,Right,1,0,1,1,0,-,0,1.087082399999872,['n'],0.36764099999982136,1.988,1127.3994439,,,,,536,19,Woman,Right,
,,,,,,,,,,,,,,,,,536,19,Woman,Right,1,10,0.4,1,180,-,180,2.0924786000000495,['n'],0.5272581999997783,1.984,1132.6830707000001,,,,,536,19,Woman,Right,
,,,,,,,,,,,,,,,,,536,19,Woman,Right,1,22,0.4,1,180,-,180,0.2645430000002307,['n'],0.7112695000000713,1.984,1135.8503893,,,,,536,19,Woman,Right,
,,,,,,,,,,,,,,,,,536,19,Woman,Right,1,17,0.4,2,0,180,180,0.6032220999995843,['y'],0.8475049999997282,1.984,1139.5159391,,,,,536,19,Woman,Right,
,,,,,,,,,,,,,,,,,536,19,Woman,Right,1,20,0.4,1,0,-,0,1.1465453999999227,['n'],0.7114464000001135,1.984,1143.516585,,,,,536,19,Woman,Right,
,,,,,,,,,,,,,,,,,536,19,Woman,Right,1,34,0.4,1,180,-,180,0.7634621999995943,['n'],1.239174599999842,1.638,1147.6333787,,,,,536,19,Woman,Right,
,,,,,,,,,,,,,,,,,536,19,Woman,Right,1,79,0.15,2,180,0,0,0.23495610000009037,['n'],1.2472837000000254,1.788,1151.7991178999998,,,,,536,19,Woman,Right,
,,,,,,,,,,,,,,,,,536,19,Woman,Right,1,15,0.4,2,180,0,0,0.33239529999991646,['y'],0.7777220999996644,2.0,1155.7996614,,,,,536,19,Woman,Right,
,,,,,,,,,,,,,,,,,536,19,Woman,Right,1,65,0.15,2,0,180,180,2.3304234000001998,['n'],0.711349500000324,1.732,1161.2833816999998,,,,,536,19,Woman,Right,
,,,,,,,,,,,,,,,,,536,19,Woman,Right,1,54,0.15,1,180,-,0,1.0707551000000421,['n'],1.1753369999996721,1.4,1165.9506970999998,,,,,536,19,Woman,Right,
,,,,,,,,,,,,,,,,,536,19,Woman,Right,1,48,0.15,1,0,-,180,0.9170781000002535,['n'],0.9436886999997114,1.292,1170.0661186,,,,,536,19,Woman,Right,
,,,,,,,,,,,,,,,,,536,19,Woman,Right,1,49,0.15,2,0,180,180,0.6249759999996058,['n'],0.8874649999997928,1.474,1173.9346712999998,,,,,536,19,Woman,Right,
,,,,,,,,,,,,,,,,,536,19,Woman,Right,1,59,0.15,2,180,0,180,0.5003495999999359,['n'],0.8394833000002109,1.43,1177.5158871,,,,,536,19,Woman,Right,
,,,,,,,,,,,,,,,,,536,19,Woman,Right,1,72,0.15,1,0,-,180,0.3732406999997693,['n'],0.7269670000000588,1.544,1181.1661078999998,,,,,536,19,Woman,Right,
,,,,,,,,,,,,,,,,,536,19,Woman,Right,1,33,0.4,2,0,180,0,0.8833998999998585,['n'],0.6954281999996965,1.536,1184.9003243,,,,,536,19,Woman,Right,
,,,,,,,,,,,,,,,,,536,19,Woman,Right,1,78,0.15,1,180,-,180,0.47709709999980987,['n'],2.262484100000165,1.778,1190.3502204,,,,,536,19,Woman,Right,
,,,,,,,,,,,,,,,,,536,19,Woman,Right,1,23,0.4,2,180,0,0,1.1065152999999555,['n'],1.0079436999999416,1.778,1194.483247,,,,,536,19,Woman,Right,
,,,,,,,,,,,,,,,,,536,19,Woman,Right,1,45,0.15,2,0,180,0,1.095315799999753,['n'],0.8316406999997525,1.778,1199.1667452,,,,,536,19,Woman,Right,
,,,,,,,,,,,,,,,,,536,19,Woman,Right,1,27,0.4,2,180,0,0,0.48248929999999746,['y'],0.7065073999997367,1.976,1203.0825948,,,,,536,19,Woman,Right,
,,,,,,,,,,,,,,,,,536,19,Woman,Right,1,39,0.4,2,180,0,0,0.4873835000003055,['y'],0.591276999999991,1.974,1206.3993406000002,,,,,536,19,Woman,Right,
,,,,,,,,,,,,,,,,,536,19,Woman,Right,1,57,0.15,2,0,180,0,0.30470500000001266,['y'],1.1034746999998788,1.974,1210.3158317,,,,,536,19,Woman,Right,
,,,,,,,,,,,,,,,,,536,19,Woman,Right,1,7,1,2,180,0,0,0.29312869999967006,['y'],0.7434250000001157,1.974,1213.4994005,,,,,536,19,Woman,Right,
,,,,,,,,,,,,,,,,,536,19,Woman,Right,1,53,0.15,2,0,180,180,0.7487227999999959,['y'],1.5196685000000798,1.832,1217.9663506999998,,,,,536,19,Woman,Right,
,,,,,,,,,,,,,,,,,536,19,Woman,Right,1,42,0.4,1,180,-,180,1.331822199999806,['n'],0.7755171999997401,2.0,1223.1828935,,,,,536,19,Woman,Right,
,,,,,,,,,,,,,,,,,536,19,Woman,Right,2,14,0.4,1,180,-,180,0.3978813999997328,['n'],0.9432245999996667,2.0,1237.8835542,70.0,95.0,57.5,,536,19,Woman,Right,
,,,,,,,,,,,,,,,,,536,19,Woman,Right,2,74,0.15,1,180,-,180,0.3180723999998918,['n'],0.9355694000000767,2.0,1241.2001428,,,,,536,19,Woman,Right,
,,,,,,,,,,,,,,,,,536,19,Woman,Right,2,35,0.4,2,180,0,0,0.5208535000001575,['y'],0.8233827999997629,2.0,1244.7169172000001,,,,,536,19,Woman,Right,
,,,,,,,,,,,,,,,,,536,19,Woman,Right,2,53,0.15,2,0,180,180,0.3159166999998888,['n'],2.2232880000001387,1.8519999999999999,1249.9163314999998,,,,,536,19,Woman,Right,
,,,,,,,,,,,,,,,,,536,19,Woman,Right,2,65,0.15,2,0,180,180,0.4453203000002759,['n'],1.0235254999997778,1.8519999999999999,1253.3496773999998,,,,,536,19,Woman,Right,
,,,,,,,,,,,,,,,,,536,19,Woman,Right,2,9,0.4,2,0,180,180,0.3095202999998037,['y'],1.279485399999885,1.968,1258.2831751,,,,,536,19,Woman,Right,
,,,,,,,,,,,,,,,,,536,19,Woman,Right,2,51,0.15,2,180,0,0,0.518456100000094,['n'],0.735368500000277,1.968,1261.6665343000002,,,,,536,19,Woman,Right,
,,,,,,,,,,,,,,,,,536,19,Woman,Right,2,49,0.15,2,0,180,0,1.3094774000001053,['n'],0.7196745000001101,1.968,1265.9171312,,,,,536,19,Woman,Right,
,,,,,,,,,,,,,,,,,536,19,Woman,Right,2,24,0.4,1,0,-,180,0.4507745999999315,['n'],0.7117449999996097,1.968,1269.2843135,,,,,536,19,Woman,Right,
,,,,,,,,,,,,,,,,,536,19,Woman,Right,2,61,0.15,2,0,180,180,0.49969970000029207,['y'],1.8289608000000044,1.984,1275.6159826,,,,,536,19,Woman,Right,
,,,,,,,,,,,,,,,,,536,19,Woman,Right,2,57,0.15,2,0,180,180,0.7367852999996103,['n'],0.6956432000001769,1.984,1279.0323922,,,,,536,19,Woman,Right,
,,,,,,,,,,,,,,,,,536,19,Woman,Right,2,29,0.4,2,0,180,180,0.761872399999902,['y'],1.9835017999998854,1.79,1284.5660194999998,,,,,536,19,Woman,Right,
,,,,,,,,,,,,,,,,,536,19,Woman,Right,2,31,0.4,2,180,0,180,0.46797379999998157,['n'],0.9990047000001141,1.788,1288.0335001,,,,,536,19,Woman,Right,
,,,,,,,,,,,,,,,,,536,19,Woman,Right,2,48,0.15,1,0,-,180,0.42105290000017703,['n'],1.8145101000000068,1.776,1292.3664507,,,,,536,19,Woman,Right,
,,,,,,,,,,,,,,,,,536,19,Woman,Right,2,25,0.4,2,0,180,180,0.5634359000000586,['n'],0.6875980999998319,1.776,1295.6162014999998,,,,,536,19,Woman,Right,
,,,,,,,,,,,,,,,,,536,19,Woman,Right,2,75,0.15,2,180,0,180,1.3735498999999436,['n'],0.7992653000001155,1.4,1301.4163821,,,,,536,19,Woman,Right,
,,,,,,,,,,,,,,,,,536,19,Woman,Right,2,50,0.15,1,180,-,0,0.5395736000000397,['n'],0.9513644999997268,1.3719999999999999,1305.1833583999999,,,,,536,19,Woman,Right,
,,,,,,,,,,,,,,,,,536,19,Woman,Right,2,60,0.15,1,0,-,0,0.16573639999978695,['n'],0.9879467999999179,1.3719999999999999,1308.8162218999998,,,,,536,19,Woman,Right,
,,,,,,,,,,,,,,,,,536,19,Woman,Right,2,8,0.4,1,0,-,180,0.3495810999997957,['n'],1.0076648000003843,1.3719999999999999,1312.3333912,,,,,536,19,Woman,Right,
,,,,,,,,,,,,,,,,,536,19,Woman,Right,2,54,0.15,1,180,-,180,0.3141833999998198,['n'],1.2797458999998526,1.3719999999999999,1316.0833147,,,,,536,19,Woman,Right,
,,,,,,,,,,,,,,,,,536,19,Woman,Right,2,67,0.15,2,180,0,180,0.37621760000001814,['n'],0.7273786000000655,1.3719999999999999,1320.0655287000002,,,,,536,19,Woman,Right,
,,,,,,,,,,,,,,,,,536,19,Woman,Right,2,73,0.15,2,0,180,0,0.6362035000001924,['n'],1.832029700000021,1.3719999999999999,1324.5833174000002,,,,,536,19,Woman,Right,
,,,,,,,,,,,,,,,,,536,19,Woman,Right,2,64,0.15,1,0,-,180,0.39897300000029645,['n'],0.8714822000001732,1.3719999999999999,1327.9161087,,,,,536,19,Woman,Right,
,,,,,,,,,,,,,,,,,536,19,Woman,Right,2,78,0.15,1,180,-,180,1.1576500999999553,['n'],1.215628800000104,1.3719999999999999,1334.3665668,,,,,536,19,Woman,Right,
,,,,,,,,,,,,,,,,,536,19,Woman,Right,2,68,0.15,1,0,-,0,0.30621179999980086,['n'],1.1757168999997702,1.3719999999999999,1337.8657285000002,,,,,536,19,Woman,Right,
,,,,,,,,,,,,,,,,,536,19,Woman,Right,2,38,0.4,1,180,-,180,0.41363460000002306,['n'],1.3355811000001268,1.3719999999999999,1341.6826568,,,,,536,19,Woman,Right,
,,,,,,,,,,,,,,,,,536,19,Woman,Right,2,19,0.4,2,180,0,180,0.05364159999999174,['n'],0.8715042999997422,1.3719999999999999,1344.6833808,,,,,536,19,Woman,Right,
,,,,,,,,,,,,,,,,,536,19,Woman,Right,2,27,0.4,2,180,0,180,0.496969799999988,['n'],0.6635025000000496,1.3719999999999999,1348.0827691000002,,,,,536,19,Woman,Right,
,,,,,,,,,,,,,,,,,536,19,Woman,Right,2,12,0.4,1,0,-,180,0.48363259999996444,['n'],1.2156843999996454,1.322,1352.1669687,,,,,536,19,Woman,Right,
,,,,,,,,,,,,,,,,,536,19,Woman,Right,2,18,0.4,1,180,-,0,0.5756498000000647,['n'],1.48766999999998,1.322,1356.3663349,,,,,536,19,Woman,Right,
,,,,,,,,,,,,,,,,,536,19,Woman,Right,2,32,0.4,1,0,-,0,0.6476493999998638,['n'],1.2473307000000204,1.238,1360.8499920000002,,,,,536,19,Woman,Right,
,,,,,,,,,,,,,,,,,536,19,Woman,Right,2,10,0.4,1,180,-,0,0.4137146000002758,['n'],1.223487600000226,1.6059999999999999,1365.1661232,,,,,536,19,Woman,Right,
,,,,,,,,,,,,,,,,,536,19,Woman,Right,2,58,0.15,1,180,-,0,0.5324658999998064,['n'],1.2167884000000413,1.568,1369.0000383,,,,,536,19,Woman,Right,
,,,,,,,,,,,,,,,,,536,19,Woman,Right,2,16,0.4,1,0,-,0,0.47440880000021934,['n'],1.1113241000002745,1.762,1373.7995033999998,,,,,536,19,Woman,Right,
,,,,,,,,,,,,,,,,,536,19,Woman,Right,2,62,0.15,1,180,-,180,0.6286865999995825,['n'],0.7750178000001142,1.766,1377.2504676,,,,,536,19,Woman,Right,
,,,,,,,,,,,,,,,,,536,19,Woman,Right,2,59,0.15,2,180,0,0,0.330388800000037,['n'],0.759308400000009,1.6440000000000001,1380.3165058000002,,,,,536,19,Woman,Right,
,,,,,,,,,,,,,,,,,536,19,Woman,Right,2,77,0.15,2,0,180,0,0.3464664999996785,['n'],0.767483699999957,1.6440000000000001,1383.4995409,,,,,536,19,Woman,Right,
,,,,,,,,,,,,,,,,,536,19,Woman,Right,2,28,0.4,1,0,-,0,0.3173151000000871,['n'],0.7915500000003703,1.6440000000000001,1386.8152557,,,,,536,19,Woman,Right,
,,,,,,,,,,,,,,,,,536,19,Woman,Right,2,63,0.15,2,180,0,180,0.47433310000042184,['n'],0.7916660999999294,1.6440000000000001,1390.7328344,,,,,536,19,Woman,Right,
,,,,,,,,,,,,,,,,,536,19,Woman,Right,2,2,1,1,180,-,180,0.4103651999998874,['n'],1.983571799999936,1.904,1395.4987757000001,,,,,536,19,Woman,Right,
,,,,,,,,,,,,,,,,,536,19,Woman,Right,2,66,0.15,1,180,-,180,0.33678069999996296,['n'],0.3671399999998357,1.784,1398.4331749,,,,,536,19,Woman,Right,
,,,,,,,,,,,,,,,,,536,19,Woman,Right,2,23,0.4,2,180,0,0,0.4464047000001301,['y'],1.3754907000002277,1.982,1403.5833746,,,,,536,19,Woman,Right,
,,,,,,,,,,,,,,,,,536,19,Woman,Right,2,56,0.15,1,0,-,0,1.2303144000002249,['n'],0.5116945999998279,1.8519999999999999,1407.6489310999998,,,,,536,19,Woman,Right,
,,,,,,,,,,,,,,,,,536,19,Woman,Right,2,36,0.4,1,0,-,0,0.3224048000001858,['n'],1.9356708999998773,1.85,1411.9828123999998,,,,,536,19,Woman,Right,
,,,,,,,,,,,,,,,,,536,19,Woman,Right,2,42,0.4,1,180,-,0,0.5463839000003645,['n'],0.7515044000001581,1.3,1417.4320082000002,,,,,536,19,Woman,Right,
,,,,,,,,,,,,,,,,,536,19,Woman,Right,2,34,0.4,1,180,-,180,0.38698410000006334,['n'],0.6469786000002387,2.0,1421.6827695,,,,,536,19,Woman,Right,
,,,,,,,,,,,,,,,,,536,19,Woman,Right,2,7,1,2,180,0,0,0.2698424000000159,['y'],0.9512632999999369,2.0,1425.0819620999998,,,,,536,19,Woman,Right,
,,,,,,,,,,,,,,,,,536,19,Woman,Right,2,0,1,1,0,-,0,0.33311449999973775,['n'],0.5058877999999822,1.982,1428.2499175,,,,,536,19,Woman,Right,
,,,,,,,,,,,,,,,,,536,19,Woman,Right,2,1,1,2,0,180,180,0.3504978000000847,['y'],0.8314781999997649,1.982,1431.6327238000001,,,,,536,19,Woman,Right,
,,,,,,,,,,,,,,,,,536,19,Woman,Right,2,69,0.15,2,0,180,0,0.3891950000001998,['n'],0.8875268000001597,1.978,1435.9493734999999,,,,,536,19,Woman,Right,
,,,,,,,,,,,,,,,,,536,19,Woman,Right,2,40,0.4,1,0,-,0,0.3245097999997597,['n'],0.7757599000001392,1.978,1439.2160686999998,,,,,536,19,Woman,Right,
,,,,,,,,,,,,,,,,,536,19,Woman,Right,2,55,0.15,2,180,0,180,0.6243416000002071,['n'],0.6313175999998748,1.87,1443.2995997,,,,,536,19,Woman,Right,
,,,,,,,,,,,,,,,,,536,19,Woman,Right,2,41,0.4,2,0,180,180,1.6635882999999012,['y'],1.4231418999997913,1.99,1448.4998248,,,,,536,19,Woman,Right,
,,,,,,,,,,,,,,,,,536,19,Woman,Right,2,39,0.4,2,180,0,0,0.27917370000022856,['y'],0.8473840999999993,1.99,1451.7825649999997,,,,,536,19,Woman,Right,
,,,,,,,,,,,,,,,,,536,19,Woman,Right,2,76,0.15,1,0,-,0,0.23240110000006098,['n'],1.5019169000001966,1.99,1455.8488356999999,,,,,536,19,Woman,Right,
,,,,,,,,,,,,,,,,,536,19,Woman,Right,2,70,0.15,1,180,-,180,0.26362490000019534,['n'],0.503169600000092,1.99,1458.6992551,,,,,536,19,Woman,Right,
,,,,,,,,,,,,,,,,,536,19,Woman,Right,2,72,0.15,1,0,-,180,0.3392342000001918,['n'],1.0715743999999177,1.99,1462.3829865999999,,,,,536,19,Woman,Right,
,,,,,,,,,,,,,,,,,536,19,Woman,Right,2,79,0.15,2,180,0,0,0.30988710000019637,['n'],1.0232863999999608,1.99,1466.1998173999998,,,,,536,19,Woman,Right,
,,,,,,,,,,,,,,,,,536,19,Woman,Right,2,52,0.15,1,0,-,0,0.086654599999747,['n'],0.5033828999999059,1.982,1469.099262,,,,,536,19,Woman,Right,
,,,,,,,,,,,,,,,,,536,19,Woman,Right,2,37,0.4,2,0,180,180,0.4596584000000803,['y'],1.1591478999998799,1.936,1474.7995623999998,,,,,536,19,Woman,Right,
,,,,,,,,,,,,,,,,,536,19,Woman,Right,2,46,0.15,1,180,-,180,0.9857625000004191,['n'],0.43132020000030025,1.936,1478.3490568,,,,,536,19,Woman,Right,
,,,,,,,,,,,,,,,,,536,19,Woman,Right,2,15,0.4,2,180,0,0,0.674482800000078,['y'],0.5674773000000641,1.98,1482.4653968999999,,,,,536,19,Woman,Right,
,,,,,,,,,,,,,,,,,536,19,Woman,Right,2,13,0.4,2,0,180,180,0.5998242999999093,['y'],3.839119700000083,1.992,1489.6329076,,,,,536,19,Woman,Right,
,,,,,,,,,,,,,,,,,536,19,Woman,Right,2,4,1,1,0,-,0,0.3065691000001607,['n'],0.5750760999999329,1.96,1492.7327076999998,,,,,536,19,Woman,Right,
,,,,,,,,,,,,,,,,,536,19,Woman,Right,2,21,0.4,2,0,180,180,0.46994279999989885,['y'],0.8477322000003369,1.96,1496.1333609,,,,,536,19,Woman,Right,
,,,,,,,,,,,,,,,,,536,19,Woman,Right,2,3,1,2,180,0,0,0.22046969999973953,['y'],0.7115718000000015,1.96,1499.1663841000002,,,,,536,19,Woman,Right,
,,,,,,,,,,,,,,,,,536,19,Woman,Right,2,47,0.15,2,180,0,0,1.0671354999999494,['n'],0.46311459999969884,1.974,1502.8670266000001,,,,,536,19,Woman,Right,
,,,,,,,,,,,,,,,,,536,19,Woman,Right,2,11,0.4,2,180,0,0,0.3206415999998171,['y'],0.7595871999997144,1.974,1507.0491481000001,,,,,536,19,Woman,Right,
,,,,,,,,,,,,,,,,,536,19,Woman,Right,2,5,1,2,0,180,180,0.2464402999999038,['y'],0.6312269000000015,1.974,1510.0657482,,,,,536,19,Woman,Right,
,,,,,,,,,,,,,,,,,536,19,Woman,Right,2,30,0.4,1,180,-,180,1.4932975000001534,['n'],0.3196535000001859,1.974,1514.0496793999998,,,,,536,19,Woman,Right,
,,,,,,,,,,,,,,,,,536,19,Woman,Right,2,43,0.4,2,180,0,0,0.21567450000020472,['y'],0.9498803999999836,1.974,1517.3662223,,,,,536,19,Woman,Right,
,,,,,,,,,,,,,,,,,536,19,Woman,Right,2,45,0.15,2,0,180,180,0.25749519999999393,['y'],1.5355310999998437,1.642,1521.8161131,,,,,536,19,Woman,Right,
,,,,,,,,,,,,,,,,,536,19,Woman,Right,2,44,0.15,1,0,-,0,0.4581094000000121,['n'],0.7913939999998547,1.918,1525.4321142000001,,,,,536,19,Woman,Right,
,,,,,,,,,,,,,,,,,536,19,Woman,Right,2,71,0.15,2,180,0,0,1.5400691999998344,['n'],0.5035425000000942,1.924,1529.5158193,,,,,536,19,Woman,Right,
,,,,,,,,,,,,,,,,,536,19,Woman,Right,2,17,0.4,2,0,180,180,0.21065520000001925,['y'],1.0235700000002907,1.99,1533.0825848000002,,,,,536,19,Woman,Right,
,,,,,,,,,,,,,,,,,536,19,Woman,Right,2,22,0.4,1,180,-,180,0.54233320000003,['n'],2.407100999999784,1.99,1538.1829,,,,,536,19,Woman,Right,
,,,,,,,,,,,,,,,,,536,19,Woman,Right,2,20,0.4,1,0,-,0,0.2822307000001274,['n'],1.9753365999999914,1.99,1543.0823712999997,,,,,536,19,Woman,Right,
,,,,,,,,,,,,,,,,,536,19,Woman,Right,2,33,0.4,2,0,180,180,0.36796400000002905,['y'],0.5353049000000283,1.986,1546.2155824999998,,,,,536,19,Woman,Right,
,,,,,,,,,,,,,,,,,536,19,Woman,Right,2,6,1,1,180,-,180,0.28243120000024646,['n'],0.8153821000000789,1.986,1549.3493981999998,,,,,536,19,Woman,Right,
,,,,,,,,,,,,,,,,,536,19,Woman,Right,2,26,0.4,1,180,-,180,0.4694329000003563,['n'],0.503539499999988,1.984,1552.3830218,,,,,536,19,Woman,Right,
,,,,,,,,,,,,,,,,,536,19,Woman,Right,3,68,0.15,1,0,-,0,2.9500874000000294,['n'],2.6549552000001313,1.984,1552.3830218,72.5,100.0,50.0,,536,19,Woman,Right,
,,,,,,,,,,,,,,,,,536,19,Woman,Right,3,26,0.4,1,180,-,180,0.43068910000010874,['n'],0.927359400000114,2.0,1591.3827113999998,,,,,536,19,Woman,Right,
,,,,,,,,,,,,,,,,,536,19,Woman,Right,3,9,0.4,2,0,180,180,0.8548783999999614,['y'],0.39953590000004624,2.0,1594.9158650000002,,,,,536,19,Woman,Right,
,,,,,,,,,,,,,,,,,536,19,Woman,Right,3,10,0.4,1,180,-,180,0.74754589999975,['n'],1.0956248000002233,2.0,1599.6991243999998,,,,,536,19,Woman,Right,
,,,,,,,,,,,,,,,,,536,19,Woman,Right,3,16,0.4,1,0,-,0,0.6963104999999814,['n'],1.0795960000000377,2.0,1603.6988817,,,,,536,19,Woman,Right,
,,,,,,,,,,,,,,,,,536,19,Woman,Right,3,35,0.4,2,180,0,0,0.07278720000022076,['y'],1.1755090000001474,2.0,1606.9664059999998,,,,,536,19,Woman,Right,
,,,,,,,,,,,,,,,,,536,19,Woman,Right,3,34,0.4,1,180,-,180,0.33284020000019154,['n'],0.5113992999999937,2.0,1609.8825838999999,,,,,536,19,Woman,Right,
,,,,,,,,,,,,,,,,,536,19,Woman,Right,3,57,0.15,2,0,180,0,0.6055043999999725,['n'],0.9196013999999195,2.0,1613.3991171999999,,,,,536,19,Woman,Right,
,,,,,,,,,,,,,,,,,536,19,Woman,Right,3,18,0.4,1,180,-,180,0.5062173999999686,['n'],0.823765000000094,2.0,1616.6820632000001,,,,,536,19,Woman,Right,
,,,,,,,,,,,,,,,,,536,19,Woman,Right,3,24,0.4,1,0,-,0,0.4258098999998765,['n'],0.9273542000000816,2.0,1620.3830421,,,,,536,19,Woman,Right,
,,,,,,,,,,,,,,,,,536,19,Woman,Right,3,67,0.15,2,180,0,180,0.8202262999998311,['n'],1.6236270999997942,2.0,1624.7829076,,,,,536,19,Woman,Right,
,,,,,,,,,,,,,,,,,536,19,Woman,Right,3,75,0.15,2,180,0,0,0.28084530000023733,['n'],0.6876257999997506,2.0,1627.7995727999999,,,,,536,19,Woman,Right,
,,,,,,,,,,,,,,,,,536,19,Woman,Right,3,79,0.15,2,180,0,180,0.33177040000009583,['n'],1.0152048999998442,1.866,1631.1493274000002,,,,,536,19,Woman,Right,
,,,,,,,,,,,,,,,,,536,19,Woman,Right,3,1,1,2,0,180,180,0.39687750000030064,['y'],1.095533499999874,1.968,1634.9321899999998,,,,,536,19,Woman,Right,
,,,,,,,,,,,,,,,,,536,19,Woman,Right,3,27,0.4,2,180,0,0,0.4007772999998451,['y'],0.8796721999997317,1.968,1638.1828769,,,,,536,19,Woman,Right,
,,,,,,,,,,,,,,,,,536,19,Woman,Right,3,15,0.4,2,180,0,0,0.36424440000018876,['y'],0.7594724000000497,1.968,1641.3661884,,,,,536,19,Woman,Right,
,,,,,,,,,,,,,,,,,536,19,Woman,Right,3,48,0.15,1,0,-,0,0.5464453999998113,['n'],0.6876098000002457,1.918,1645.2156333,,,,,536,19,Woman,Right,
,,,,,,,,,,,,,,,,,536,19,Woman,Right,3,65,0.15,2,0,180,0,0.4858310999998139,['n'],0.8792837999999392,1.972,1648.583041,,,,,536,19,Woman,Right,
,,,,,,,,,,,,,,,,,536,19,Woman,Right,3,61,0.15,2,0,180,180,0.3721486999997978,['n'],0.5995763999999326,1.972,1651.5160349,,,,,536,19,Woman,Right,
,,,,,,,,,,,,,,,,,536,19,Woman,Right,3,62,0.15,1,180,-,0,0.499612199999774,['n'],0.6555875000003653,1.972,1654.7163084000001,,,,,536,19,Woman,Right,
,,,,,,,,,,,,,,,,,536,19,Woman,Right,3,43,0.4,2,180,0,0,0.3997209999997722,['y'],0.6074714999999742,1.972,1657.7657698,,,,,536,19,Woman,Right,
,,,,,,,,,,,,,,,,,536,19,Woman,Right,3,25,0.4,2,0,180,180,0.5183160999999927,['y'],0.6797587000000931,1.972,1660.849833,,,,,536,19,Woman,Right,
,,,,,,,,,,,,,,,,,536,19,Woman,Right,3,20,0.4,1,0,-,180,0.3192452000002959,['n'],1.0313278000003265,1.972,1664.2160118999998,,,,,536,19,Woman,Right,
,,,,,,,,,,,,,,,,,536,19,Woman,Right,3,33,0.4,2,0,180,180,0.3711330999999518,['y'],1.0075167999998484,1.924,1667.5994159,,,,,536,19,Woman,Right,
,,,,,,,,,,,,,,,,,536,19,Woman,Right,3,14,0.4,1,180,-,180,0.3356281000001218,['n'],0.5918870000000425,1.924,1670.6157817,,,,,536,19,Woman,Right,
,,,,,,,,,,,,,,,,,536,19,Woman,Right,3,58,0.15,1,180,-,180,1.6916316000001643,['n'],0.5993283000002521,1.798,1675.0987294,,,,,536,19,Woman,Right,
,,,,,,,,,,,,,,,,,536,19,Woman,Right,3,2,1,1,180,-,180,0.4822383999999147,['n'],0.5914806000000681,1.97,1678.5322939999999,,,,,536,19,Woman,Right,
,,,,,,,,,,,,,,,,,536,19,Woman,Right,3,60,0.15,1,0,-,180,0.895088400000077,['n'],0.9354286999996475,1.968,1682.2816801000001,,,,,536,19,Woman,Right,
,,,,,,,,,,,,,,,,,536,19,Woman,Right,3,53,0.15,2,0,180,180,0.3579387000004317,['n'],0.647306099999696,1.968,1685.2988896,,,,,536,19,Woman,Right,
,,,,,,,,,,,,,,,,,536,19,Woman,Right,3,76,0.15,1,0,-,180,0.2063626000003751,['n'],0.7915487000000212,1.968,1688.2651884999998,,,,,536,19,Woman,Right,
,,,,,,,,,,,,,,,,,536,19,Woman,Right,3,47,0.15,2,180,0,180,0.8317035000000033,['n'],0.9358452000001307,1.968,1691.9993029,,,,,536,19,Woman,Right,
,,,,,,,,,,,,,,,,,536,19,Woman,Right,3,59,0.15,2,180,0,0,0.8823298000002069,['n'],1.455451400000129,2.0,1696.4996299000002,,,,,536,19,Woman,Right,
,,,,,,,,,,,,,,,,,536,19,Woman,Right,3,22,0.4,1,180,-,180,0.3276930999995784,['n'],0.6716044999998303,2.0,1699.499408,,,,,536,19,Woman,Right,
,,,,,,,,,,,,,,,,,536,19,Woman,Right,3,31,0.4,2,180,0,0,0.2937710999999581,['y'],1.1198041000002377,2.0,1702.9326279999998,,,,,536,19,Woman,Right,
,,,,,,,,,,,,,,,,,536,19,Woman,Right,3,17,0.4,2,0,180,180,0.45167910000009215,['y'],0.5995210999999472,2.0,1706.0153678999998,,,,,536,19,Woman,Right,
,,,,,,,,,,,,,,,,,536,19,Woman,Right,3,23,0.4,2,180,0,0,0.25913649999984045,['y'],0.7035673999998835,2.0,1708.9496582999998,,,,,536,19,Woman,Right,
,,,,,,,,,,,,,,,,,536,19,Woman,Right,3,21,0.4,2,0,180,180,0.28437620000022434,['y'],0.591706300000169,2.0,1711.7992115999998,,,,,536,19,Woman,Right,
,,,,,,,,,,,,,,,,,536,19,Woman,Right,3,50,0.15,1,180,-,180,0.3290625999998156,['n'],0.3832850000003418,2.0,1714.5824661,,,,,536,19,Woman,Right,
,,,,,,,,,,,,,,,,,536,19,Woman,Right,3,13,0.4,2,0,180,180,0.754901400000108,['y'],1.1517491999998128,2.0,1718.5160202999998,,,,,536,19,Woman,Right,
,,,,,,,,,,,,,,,,,536,19,Woman,Right,3,71,0.15,2,180,0,0,0.41376750000017637,['y'],0.8640286999998352,2.0,1721.833066,,,,,536,19,Woman,Right,
,,,,,,,,,,,,,,,,,536,19,Woman,Right,3,3,1,2,180,0,0,0.2816632999997637,['y'],0.6235854000001382,2.0,1724.7151956999999,,,,,536,19,Woman,Right,
,,,,,,,,,,,,,,,,,536,19,Woman,Right,3,28,0.4,1,0,-,180,1.1157309000000168,['n'],0.6730118999998922,2.0,1729.0653323,,,,,536,19,Woman,Right,
,,,,,,,,,,,,,,,,,536,19,Woman,Right,3,49,0.15,2,0,180,0,0.5304120000000694,['n'],0.5109577999996873,2.0,1732.0324076,,,,,536,19,Woman,Right,
,,,,,,,,,,,,,,,,,536,19,Woman,Right,3,54,0.15,1,180,-,180,1.016779300000053,['n'],0.8792038999999932,1.978,1736.3838877,,,,,536,19,Woman,Right,
,,,,,,,,,,,,,,,,,536,19,Woman,Right,3,52,0.15,1,0,-,180,0.648586300000261,['n'],0.3113158999999541,1.978,1739.5989862,,,,,536,19,Woman,Right,
,,,,,,,,,,,,,,,,,536,19,Woman,Right,3,78,0.15,1,180,-,180,1.307800000000043,['n'],0.9992763999998715,1.384,1744.3494475999998,,,,,536,19,Woman,Right,
,,,,,,,,,,,,,,,,,536,19,Woman,Right,3,41,0.4,2,0,180,180,1.087995100000171,['n'],1.3111911999999393,1.3820000000000001,1748.9651322000002,,,,,536,19,Woman,Right,
,,,,,,,,,,,,,,,,,536,19,Woman,Right,3,39,0.4,2,180,0,0,0.4059658000001036,['y'],1.9038281000002826,1.6400000000000001,1753.6329226999999,,,,,536,19,Woman,Right,
,,,,,,,,,,,,,,,,,536,19,Woman,Right,3,38,0.4,1,180,-,180,1.3165797999999995,['n'],0.27899089999982607,1.736,1757.6487008000001,,,,,536,19,Woman,Right,
,,,,,,,,,,,,,,,,,536,19,Woman,Right,3,63,0.15,2,180,0,0,0.38650260000031267,['n'],0.5754909000002044,1.736,1760.5821886,,,,,536,19,Woman,Right,
,,,,,,,,,,,,,,,,,536,19,Woman,Right,3,8,0.4,1,0,-,0,0.32909109999991415,['n'],0.9036479000001236,1.9,1765.8993976,,,,,536,19,Woman,Right,
,,,,,,,,,,,,,,,,,536,19,Woman,Right,3,64,0.15,1,0,-,0,0.29589199999963967,['n'],0.7995129999999335,1.9,1768.9993726999999,,,,,536,19,Woman,Right,
,,,,,,,,,,,,,,,,,536,19,Woman,Right,3,6,1,1,180,-,180,0.32317990000001373,['n'],0.5828827000000274,1.988,1772.5152148999998,,,,,536,19,Woman,Right,
,,,,,,,,,,,,,,,,,536,19,Woman,Right,3,77,0.15,2,0,180,0,0.19378169999981765,['n'],1.3193137999996907,1.988,1772.5152148999998,,,,,536,19,Woman,Right,
,,,,,,,,,,,,,,,,,536,19,Woman,Right,3,46,0.15,1,180,-,0,0.0883416000001489,['n'],0.7590177000001859,1.814,1779.0829387,,,,,536,19,Woman,Right,
,,,,,,,,,,,,,,,,,536,19,Woman,Right,3,42,0.4,1,180,-,180,0.1705762000001414,['n'],0.766816999999719,1.924,1782.2988202999998,,,,,536,19,Woman,Right,
,,,,,,,,,,,,,,,,,536,19,Woman,Right,3,32,0.4,1,0,-,180,1.5616634000002705,['n'],0.8479036999997334,1.968,1786.8161732,,,,,536,19,Woman,Right,
,,,,,,,,,,,,,,,,,536,19,Woman,Right,3,19,0.4,2,180,0,0,0.41598190000013346,['y'],1.4609800999996878,2.0,1790.8488951000002,,,,,536,19,Woman,Right,
,,,,,,,,,,,,,,,,,536,19,Woman,Right,3,70,0.15,1,180,-,0,0.9203167999999096,['y'],0.991048999999748,1.8820000000000001,1795.1662149,,,,,536,19,Woman,Right,
,,,,,,,,,,,,,,,,,536,19,Woman,Right,3,37,0.4,2,0,180,180,0.9679544000000533,['y'],1.2874838999996427,2.0,1800.3989961999998,,,,,536,19,Woman,Right,
,,,,,,,,,,,,,,,,,536,19,Woman,Right,3,66,0.15,1,180,-,180,0.570979399999942,['n'],0.9750518000000739,1.32,1804.5002824,,,,,536,19,Woman,Right,
,,,,,,,,,,,,,,,,,536,19,Woman,Right,3,4,1,1,0,-,0,0.3924136999999064,['y'],0.6636939999998503,1.392,1810.5824280999998,,,,,536,19,Woman,Right,
,,,,,,,,,,,,,,,,,536,19,Woman,Right,3,0,1,1,0,-,0,0.43776779999961946,['n'],1.3915301000001818,1.964,1814.7327326000002,,,,,536,19,Woman,Right,
,,,,,,,,,,,,,,,,,536,19,Woman,Right,3,45,0.15,2,0,180,0,0.16575929999999062,['n'],0.8085984000003918,1.74,1817.9148922000002,,,,,536,19,Woman,Right,
,,,,,,,,,,,,,,,,,536,19,Woman,Right,3,11,0.4,2,180,0,0,0.32685670000000755,['y'],0.9596949000001587,2.0,1821.4659279999998,,,,,536,19,Woman,Right,
,,,,,,,,,,,,,,,,,536,19,Woman,Right,3,51,0.15,2,180,0,0,0.3099600000000464,['n'],1.631274299999859,1.708,1825.7153611,,,,,536,19,Woman,Right,
,,,,,,,,,,,,,,,,,536,19,Woman,Right,3,30,0.4,1,180,-,0,0.20013280000011946,['n'],0.5993969999999536,1.698,1828.6321867999998,,,,,536,19,Woman,Right,
,,,,,,,,,,,,,,,,,536,19,Woman,Right,3,29,0.4,2,0,180,180,0.3229198999997607,['y'],0.6955151000001933,1.976,1831.9151887,,,,,536,19,Woman,Right,
,,,,,,,,,,,,,,,,,536,19,Woman,Right,3,55,0.15,2,180,0,0,0.43195950000017547,['n'],2.367659200000162,1.976,1836.6487792,,,,,536,19,Woman,Right,
,,,,,,,,,,,,,,,,,536,19,Woman,Right,3,36,0.4,1,0,-,0,0.562746000000061,['n'],0.8556326000002628,1.976,1840.0154128000001,,,,,536,19,Woman,Right,
,,,,,,,,,,,,,,,,,536,19,Woman,Right,3,44,0.15,1,0,-,0,0.5365058000002136,['n'],0.6955755000003592,1.976,1843.2485909999998,,,,,536,19,Woman,Right,
,,,,,,,,,,,,,,,,,536,19,Woman,Right,3,12,0.4,1,0,-,0,0.8959754999996221,['n'],0.36765109999987544,1.976,1846.5828502000002,,,,,536,19,Woman,Right,
,,,,,,,,,,,,,,,,,536,19,Woman,Right,3,7,1,2,180,0,0,0.4653419999999642,['y'],1.0234421000000111,1.962,1850.7991716999998,,,,,536,19,Woman,Right,
,,,,,,,,,,,,,,,,,536,19,Woman,Right,3,5,1,2,0,180,180,0.8597411000000648,['y'],1.4713283000000956,1.952,1855.3161155,,,,,536,19,Woman,Right,
,,,,,,,,,,,,,,,,,536,19,Woman,Right,3,40,0.4,1,0,-,0,0.43707290000020294,['n'],0.9507383999998638,1.97,1858.7320410999998,,,,,536,19,Woman,Right,
,,,,,,,,,,,,,,,,,536,19,Woman,Right,3,69,0.15,2,0,180,0,1.0856628000001365,['n'],0.4232852999998613,1.97,1862.2649850999999,,,,,536,19,Woman,Right,
,,,,,,,,,,,,,,,,,536,19,Woman,Right,3,56,0.15,1,0,-,0,0.22713729999986754,['n'],0.39182800000025964,1.97,1865.1656676,,,,,536,19,Woman,Right,
,,,,,,,,,,,,,,,,,536,19,Woman,Right,3,72,0.15,1,0,-,180,0.40075419999993755,['n'],0.8476396999999452,1.97,1868.5991296999998,,,,,536,19,Woman,Right,
,,,,,,,,,,,,,,,,,536,19,Woman,Right,3,73,0.15,2,0,180,0,0.3302187999997841,['n'],0.5354425000000447,1.97,1871.5157616999998,,,,,536,19,Woman,Right,
,,,,,,,,,,,,,,,,,536,19,Woman,Right,3,74,0.15,1,180,-,180,0.2440943999999945,['n'],0.5516758000003392,1.97,1874.9327009,,,,,536,19,Woman,Right,
,,,,,,,,,,,,,,,,,536,19,Woman,Right,4,28,0.4,1,0,-,180,0.4948011999999835,['n'],0.28747659999999087,1.974,1885.4813849999998,73.75,95.0,55.0,,536,19,Woman,Right,
,,,,,,,,,,,,,,,,,536,19,Woman,Right,4,20,0.4,1,0,-,0,1.1260417999997117,['n'],0.8396080000002257,1.974,1889.7151857000001,,,,,536,19,Woman,Right,
,,,,,,,,,,,,,,,,,536,19,Woman,Right,4,71,0.15,2,180,0,180,0.14680040000030203,['n'],1.3834279999996397,1.974,1893.3488347999998,,,,,536,19,Woman,Right,
,,,,,,,,,,,,,,,,,536,19,Woman,Right,4,79,0.15,2,180,0,180,0.25298670000029233,['n'],1.0474785000001248,1.866,1896.8154922,,,,,536,19,Woman,Right,
,,,,,,,,,,,,,,,,,536,19,Woman,Right,4,7,1,2,180,0,0,1.5630905999996685,['y'],0.6796064999998634,2.0,1901.6326412,,,,,536,19,Woman,Right,
,,,,,,,,,,,,,,,,,536,19,Woman,Right,4,3,1,2,180,0,0,0.2565484000001561,['y'],1.6477199000000837,2.0,1905.7822948,,,,,536,19,Woman,Right,
,,,,,,,,,,,,,,,,,536,19,Woman,Right,4,55,0.15,2,180,0,0,0.2883661000000757,['n'],1.0632103999996616,1.936,1910.3979567999997,,,,,536,19,Woman,Right,
,,,,,,,,,,,,,,,,,536,19,Woman,Right,4,61,0.15,2,0,180,0,0.8448828999999023,['n'],0.7037768000000142,1.936,1913.8980036,,,,,536,19,Woman,Right,
,,,,,,,,,,,,,,,,,536,19,Woman,Right,4,39,0.4,2,180,0,0,0.47899039999992965,['y'],0.599442000000181,1.984,1917.1812790000001,,,,,536,19,Woman,Right,
,,,,,,,,,,,,,,,,,536,19,Woman,Right,4,37,0.4,2,0,180,180,0.3508121999998366,['y'],0.7036798000003728,1.984,1920.1989695999998,,,,,536,19,Woman,Right,
,,,,,,,,,,,,,,,,,536,19,Woman,Right,4,35,0.4,2,180,0,0,0.23417330000029324,['y'],0.8316658999997344,1.984,1923.331559,,,,,536,19,Woman,Right,
,,,,,,,,,,,,,,,,,536,19,Woman,Right,4,49,0.15,2,0,180,0,2.9495913999999175,['n'],0.5594577000001664,1.984,1929.0482306000001,,,,,536,19,Woman,Right,
,,,,,,,,,,,,,,,,,536,19,Woman,Right,4,34,0.4,1,180,-,180,1.1034567000001516,['n'],0.5273790999999619,1.984,1932.815825,,,,,536,19,Woman,Right,
,,,,,,,,,,,,,,,,,536,19,Woman,Right,4,51,0.15,2,180,0,180,0.5356269999997494,['n'],0.49530879999974786,1.6320000000000001,1937.7653672999998,,,,,536,19,Woman,Right,
,,,,,,,,,,,,,,,,,536,19,Woman,Right,4,8,0.4,1,0,-,0,0.44480520000024626,['n'],0.39957639999965977,2.0,1940.732021,,,,,536,19,Woman,Right,
,,,,,,,,,,,,,,,,,536,19,Woman,Right,4,42,0.4,1,180,-,180,0.32766170000013517,['n'],0.6634962000002815,2.0,1943.8315417000001,,,,,536,19,Woman,Right,
,,,,,,,,,,,,,,,,,536,19,Woman,Right,4,56,0.15,1,0,-,0,0.7449093000000175,['n'],0.5272886000002472,2.0,1947.1829043,,,,,536,19,Woman,Right,
,,,,,,,,,,,,,,,,,536,19,Woman,Right,4,77,0.15,2,0,180,0,0.5095914000003177,['n'],0.3356268000002274,2.0,1950.1323031,,,,,536,19,Woman,Right,
,,,,,,,,,,,,,,,,,536,19,Woman,Right,4,66,0.15,1,180,-,180,0.3554298999997627,['n'],0.767547100000229,2.0,1953.3148282,,,,,536,19,Woman,Right,
,,,,,,,,,,,,,,,,,536,19,Woman,Right,4,73,0.15,2,0,180,180,0.6048480999997992,['n'],0.2796419999999671,2.0,1956.3150096000002,,,,,536,19,Woman,Right,
,,,,,,,,,,,,,,,,,536,19,Woman,Right,4,40,0.4,1,0,-,0,0.34342900000001464,['n'],0.9677551999998286,2.0,1959.6322692,,,,,536,19,Woman,Right,
,,,,,,,,,,,,,,,,,536,19,Woman,Right,4,1,1,2,0,180,180,0.3427897000001394,['y'],0.5674892000001819,2.0,1962.7987434,,,,,536,19,Woman,Right,
,,,,,,,,,,,,,,,,,536,19,Woman,Right,4,11,0.4,2,180,0,0,0.14642910000020493,['y'],0.8233169999998609,2.0,1965.7486393000001,,,,,536,19,Woman,Right,
,,,,,,,,,,,,,,,,,536,19,Woman,Right,4,70,0.15,1,180,-,180,0.39899370000011913,['n'],0.8506145999999717,2.0,1969.4658458000001,,,,,536,19,Woman,Right,
,,,,,,,,,,,,,,,,,536,19,Woman,Right,4,68,0.15,1,0,-,180,0.31185439999990194,['n'],0.5997104999996736,2.0,1972.3656736,,,,,536,19,Woman,Right,
,,,,,,,,,,,,,,,,,536,19,Woman,Right,4,5,1,2,0,180,180,0.1792475000002014,['y'],0.5995643999999629,2.0,1975.2647421,,,,,536,19,Woman,Right,
,,,,,,,,,,,,,,,,,536,19,Woman,Right,4,0,1,1,0,-,0,0.47032790000002933,['n'],0.7195582000003924,2.0,1978.5479133000001,,,,,536,19,Woman,Right,
,,,,,,,,,,,,,,,,,536,19,Woman,Right,4,38,0.4,1,180,-,180,0.4063765000000785,['n'],0.4556361999998444,2.0,1981.3986034000002,,,,,536,19,Woman,Right,
,,,,,,,,,,,,,,,,,536,19,Woman,Right,4,59,0.15,2,180,0,180,0.3970430999997916,['n'],0.9833481999999094,2.0,1984.7489328,,,,,536,19,Woman,Right,
,,,,,,,,,,,,,,,,,536,19,Woman,Right,4,72,0.15,1,0,-,180,0.2529395999999906,['n'],1.479544199999964,2.0,1988.4818715999997,,,,,536,19,Woman,Right,
,,,,,,,,,,,,,,,,,536,19,Woman,Right,4,76,0.15,1,0,-,0,1.0783403999998882,['n'],0.7912885999999162,2.0,1992.3985271999998,,,,,536,19,Woman,Right,
,,,,,,,,,,,,,,,,,536,19,Woman,Right,4,18,0.4,1,180,-,180,0.19513300000016898,['n'],0.591723699999875,2.0,1995.1987646,,,,,536,19,Woman,Right,
,,,,,,,,,,,,,,,,,536,19,Woman,Right,4,60,0.15,1,0,-,0,0.4991230999999061,['n'],1.2875920999999835,2.0,1999.0150602,,,,,536,19,Woman,Right,
,,,,,,,,,,,,,,,,,536,19,Woman,Right,4,54,0.15,1,180,-,180,0.13820160000022952,['n'],0.6636960999999246,2.0,2001.815781,,,,,536,19,Woman,Right,
,,,,,,,,,,,,,,,,,536,19,Woman,Right,4,44,0.15,1,0,-,0,0.5629718000000139,['n'],0.5915811000004396,2.0,2004.9814761,,,,,536,19,Woman,Right,
,,,,,,,,,,,,,,,,,536,19,Woman,Right,4,65,0.15,2,0,180,0,2.7571358999998665,['n'],2.095547599999918,1.744,2012.0816779,,,,,536,19,Woman,Right,
,,,,,,,,,,,,,,,,,536,19,Woman,Right,4,63,0.15,2,180,0,180,0.27863810000008016,['n'],1.2311733000001368,1.724,2015.6649650000002,,,,,536,19,Woman,Right,
,,,,,,,,,,,,,,,,,536,19,Woman,Right,4,53,0.15,2,0,180,0,0.031105200000183686,['n'],0.615623400000004,1.724,2018.3490509,,,,,536,19,Woman,Right,
,,,,,,,,,,,,,,,,,536,19,Woman,Right,4,6,1,1,180,-,180,0.5984319999997751,['n'],1.1115545000002385,1.994,2022.5488779,,,,,536,19,Woman,Right,
,,,,,,,,,,,,,,,,,536,19,Woman,Right,4,52,0.15,1,0,-,0,0.328137400000287,['n'],1.8714343999999983,1.994,2026.7486542,,,,,536,19,Woman,Right,
,,,,,,,,,,,,,,,,,536,19,Woman,Right,4,29,0.4,2,0,180,180,1.145097799999803,['y'],0.34356690000004164,1.996,2030.3153733000001,,,,,536,19,Woman,Right,
,,,,,,,,,,,,,,,,,536,19,Woman,Right,4,12,0.4,1,0,-,0,0.22305080000023736,['n'],0.7517116000003625,1.996,2033.3154868999998,,,,,536,19,Woman,Right,
,,,,,,,,,,,,,,,,,536,19,Woman,Right,4,50,0.15,1,180,-,180,0.4719068999997944,['n'],0.599258600000212,1.992,2036.2991724,,,,,536,19,Woman,Right,
,,,,,,,,,,,,,,,,,536,19,Woman,Right,4,47,0.15,2,180,0,180,0.8383892000001651,['n'],0.8877768000002106,1.392,2040.4653396,,,,,536,19,Woman,Right,
,,,,,,,,,,,,,,,,,536,19,Woman,Right,4,48,0.15,1,0,-,0,1.5439831000003323,['n'],0.7677177999999003,2.0,2045.0149559999998,,,,,536,19,Woman,Right,
,,,,,,,,,,,,,,,,,536,19,Woman,Right,4,43,0.4,2,180,0,0,1.1039111999998568,['y'],0.6395529000001261,2.0,2050.2478315,,,,,536,19,Woman,Right,
,,,,,,,,,,,,,,,,,536,19,Woman,Right,4,58,0.15,1,180,-,180,0.29904239999996207,['n'],0.671648500000174,2.0,2053.3816346000003,,,,,536,19,Woman,Right,
,,,,,,,,,,,,,,,,,536,19,Woman,Right,4,27,0.4,2,180,0,0,0.28846489999978076,['y'],0.8076519000001099,2.0,2056.5988025999995,,,,,536,19,Woman,Right,
,,,,,,,,,,,,,,,,,536,19,Woman,Right,4,36,0.4,1,0,-,0,0.3323493999996572,['n'],0.8340758999997888,2.0,2059.898892,,,,,536,19,Woman,Right,
,,,,,,,,,,,,,,,,,536,19,Woman,Right,4,19,0.4,2,180,0,0,1.0478303999998388,['y'],0.8316726000002745,2.0,2064.6331737,,,,,536,19,Woman,Right,
,,,,,,,,,,,,,,,,,536,19,Woman,Right,4,23,0.4,2,180,0,0,0.9172108999996453,['y'],1.2144453999999314,1.964,2068.9990715000004,,,,,536,19,Woman,Right,
,,,,,,,,,,,,,,,,,536,19,Woman,Right,4,67,0.15,2,180,0,180,0.3288612999999714,['n'],1.4315698000000339,1.964,2072.8151750999996,,,,,536,19,Woman,Right,
,,,,,,,,,,,,,,,,,536,19,Woman,Right,4,45,0.15,2,0,180,180,0.14321079999990616,['n'],1.2477748999999676,1.964,2076.7151235,,,,,536,19,Woman,Right,
,,,,,,,,,,,,,,,,,536,19,Woman,Right,4,16,0.4,1,0,-,0,0.5045517999997173,['n'],0.6236470999997437,1.964,2079.7823957,,,,,536,19,Woman,Right,
,,,,,,,,,,,,,,,,,536,19,Woman,Right,4,4,1,1,0,-,0,0.35611199999993914,['n'],0.4233718999998928,1.964,2082.5831023,,,,,536,19,Woman,Right,
,,,,,,,,,,,,,,,,,536,19,Woman,Right,4,17,0.4,2,0,180,180,0.6606286000001091,['y'],0.831617499999993,1.964,2086.0324066000003,,,,,536,19,Woman,Right,
,,,,,,,,,,,,,,,,,536,19,Woman,Right,4,2,1,1,180,-,180,0.3491119999998773,['n'],0.4987932999997611,1.964,2088.8821097,,,,,536,19,Woman,Right,
,,,,,,,,,,,,,,,,,536,19,Woman,Right,4,69,0.15,2,0,180,0,0.19918830000005983,['n'],1.9436971000000085,1.964,2093.0150839999997,,,,,536,19,Woman,Right,
,,,,,,,,,,,,,,,,,536,19,Woman,Right,4,41,0.4,2,0,180,180,0.3232453999999052,['y'],0.6075984999997672,1.964,2095.9651501,,,,,536,19,Woman,Right,
,,,,,,,,,,,,,,,,,536,19,Woman,Right,4,46,0.15,1,180,-,180,1.4405324999997902,['n'],0.8479757999998583,1.964,2100.4317432,,,,,536,19,Woman,Right,
,,,,,,,,,,,,,,,,,536,19,Woman,Right,4,10,0.4,1,180,-,180,0.26574200000004566,['n'],0.49304090000032375,1.964,2103.2650032,,,,,536,19,Woman,Right,
,,,,,,,,,,,,,,,,,536,19,Woman,Right,4,24,0.4,1,0,-,0,0.4869890999998461,['n'],0.759294200000113,1.952,2106.9655575999996,,,,,536,19,Woman,Right,
,,,,,,,,,,,,,,,,,536,19,Woman,Right,4,33,0.4,2,0,180,0,0.13643389999970168,['n'],0.7430257000000893,1.986,2109.9832036,,,,,536,19,Woman,Right,
,,,,,,,,,,,,,,,,,536,19,Woman,Right,4,30,0.4,1,180,-,180,0.24487859999999273,['n'],0.43125659999986965,1.986,2112.632538,,,,,536,19,Woman,Right,
,,,,,,,,,,,,,,,,,536,19,Woman,Right,4,32,0.4,1,0,-,0,0.32275609999987864,['n'],0.8075636000003215,1.986,2115.7490933,,,,,536,19,Woman,Right,
,,,,,,,,,,,,,,,,,536,19,Woman,Right,4,78,0.15,1,180,-,180,0.18253069999991567,['n'],0.5592228000000432,1.986,2118.5149075,,,,,536,19,Woman,Right,
,,,,,,,,,,,,,,,,,536,19,Woman,Right,4,74,0.15,1,180,-,180,0.8469458999998096,['n'],0.8874774999999318,1.8679999999999999,2122.3324636999996,,,,,536,19,Woman,Right,
,,,,,,,,,,,,,,,,,536,19,Woman,Right,4,13,0.4,2,0,180,180,2.919426399999793,['y'],0.4313619999998082,1.982,2128.3324125,,,,,536,19,Woman,Right,
,,,,,,,,,,,,,,,,,536,19,Woman,Right,4,64,0.15,1,0,-,0,1.5703444000000673,['n'],0.9193836000004012,1.6680000000000001,2133.2322961,,,,,536,19,Woman,Right,
,,,,,,,,,,,,,,,,,536,19,Woman,Right,4,26,0.4,1,180,-,180,0.4126755000002049,['n'],1.4072571000001517,1.97,2137.8813842,,,,,536,19,Woman,Right,
,,,,,,,,,,,,,,,,,536,19,Woman,Right,4,75,0.15,2,180,0,0,1.3154350999998314,['n'],0.6155198999999811,1.972,2142.0155569999997,,,,,536,19,Woman,Right,
,,,,,,,,,,,,,,,,,536,19,Woman,Right,4,25,0.4,2,0,180,180,0.5526424999998198,['y'],0.9035202000000027,1.972,2145.6156291999996,,,,,536,19,Woman,Right,
,,,,,,,,,,,,,,,,,536,19,Woman,Right,4,57,0.15,2,0,180,0,0.16596209999988787,['n'],0.9062408000004325,1.972,2148.8478173000003,,,,,536,19,Woman,Right,
,,,,,,,,,,,,,,,,,536,19,Woman,Right,4,14,0.4,1,180,-,180,0.48179149999987203,['n'],0.7514694999999847,1.972,2152.1319905,,,,,536,19,Woman,Right,
,,,,,,,,,,,,,,,,,536,19,Woman,Right,4,15,0.4,2,180,0,0,1.9433407000001353,['y'],0.3194684000000052,1.972,2156.6664954999997,,,,,536,19,Woman,Right,
,,,,,,,,,,,,,,,,,536,19,Woman,Right,4,22,0.4,1,180,-,180,0.3302539999999681,['n'],0.31941139999980805,1.972,2159.2812750000003,,,,,536,19,Woman,Right,
,,,,,,,,,,,,,,,,,536,19,Woman,Right,4,62,0.15,1,180,-,180,0.4153169999999591,['n'],0.17572580000023663,1.972,2162.0486148,,,,,536,19,Woman,Right,
,,,,,,,,,,,,,,,,,536,19,Woman,Right,4,21,0.4,2,0,180,180,1.2393591000000015,['y'],0.27196730000014213,1.972,2165.7148770000003,,,,,536,19,Woman,Right,
,,,,,,,,,,,,,,,,,536,19,Woman,Right,4,31,0.4,2,180,0,0,0.25618660000009186,['y'],1.1513460000001032,1.972,2171.1154533999998,,,,,536,19,Woman,Right,
,,,,,,,,,,,,,,,,,536,19,Woman,Right,4,9,0.4,2,0,180,180,0.2968636999999035,['y'],0.7594441999999617,1.972,2174.3652548,,,,,536,19,Woman,Right,
,,,,,,,,,,,,,,,,,536,19,Woman,Right,5,18,0.4,1,180,-,180,1.8191980000001422,['n'],0.27113569999983156,1.924,2181.5316942,77.5,100.0,52.5,,536,19,Woman,Right,
,,,,,,,,,,,,,,,,,536,19,Woman,Right,5,3,1,2,180,0,0,0.3287614000000758,['y'],1.6072340000000622,1.968,2185.4983463999997,,,,,536,19,Woman,Right,
,,,,,,,,,,,,,,,,,536,19,Woman,Right,5,43,0.4,2,180,0,0,0.48577620000014576,['y'],0.30361619999985123,1.968,2188.4157567,,,,,536,19,Woman,Right,
,,,,,,,,,,,,,,,,,536,19,Woman,Right,5,9,0.4,2,0,180,0,2.068714700000328,['y'],2.1517642999997406,1.968,2194.5984677999995,,,,,536,19,Woman,Right,
,,,,,,,,,,,,,,,,,536,19,Woman,Right,5,54,0.15,1,180,-,180,1.2993733000002976,['n'],0.46362619999990784,1.968,2198.3835566,,,,,536,19,Woman,Right,
,,,,,,,,,,,,,,,,,536,19,Woman,Right,5,32,0.4,1,0,-,180,0.2907358000002205,['n'],3.0237489999999525,1.968,2203.6979423000002,,,,,536,19,Woman,Right,
,,,,,,,,,,,,,,,,,536,19,Woman,Right,5,77,0.15,2,0,180,180,0.5903950999995686,['n'],0.2313216999996257,1.968,2206.7317606999995,,,,,536,19,Woman,Right,
,,,,,,,,,,,,,,,,,536,19,Woman,Right,5,74,0.15,1,180,-,180,1.028660200000104,['n'],2.583506700000271,1.968,2212.3148963000003,,,,,536,19,Woman,Right,
,,,,,,,,,,,,,,,,,536,19,Woman,Right,5,36,0.4,1,0,-,180,0.6247737000003326,['n'],1.8717670999999427,1.968,2218.0155064,,,,,536,19,Woman,Right,
,,,,,,,,,,,,,,,,,536,19,Woman,Right,5,47,0.15,2,180,0,0,1.2815739000002395,['n'],0.5115504999998848,1.712,2221.9815224000004,,,,,536,19,Woman,Right,
,,,,,,,,,,,,,,,,,536,19,Woman,Right,5,67,0.15,2,180,0,0,0.027484799999911047,['n'],0.5435391000000891,1.712,2224.7147453,,,,,536,19,Woman,Right,
,,,,,,,,,,,,,,,,,536,19,Woman,Right,5,53,0.15,2,0,180,0,0.2789926000000378,['n'],0.4869187000003876,1.706,2227.548544,,,,,536,19,Woman,Right,
,,,,,,,,,,,,,,,,,536,19,Woman,Right,5,28,0.4,1,0,-,180,1.109436100000039,['n'],0.2557107999996333,1.706,2231.0319013999997,,,,,536,19,Woman,Right,
,,,,,,,,,,,,,,,,,536,19,Woman,Right,5,60,0.15,1,0,-,180,0.3103115999997499,['n'],0.47132590000001073,1.706,2234.0983059,,,,,536,19,Woman,Right,
,,,,,,,,,,,,,,,,,536,19,Woman,Right,5,10,0.4,1,180,-,180,0.3674897000000783,['n'],1.0713981999997486,1.99,2237.9810472,,,,,536,19,Woman,Right,
,,,,,,,,,,,,,,,,,536,19,Woman,Right,5,38,0.4,1,180,-,180,1.1106088999999884,['n'],0.9672692999997707,2.0,2241.9808438,,,,,536,19,Woman,Right,
,,,,,,,,,,,,,,,,,536,19,Woman,Right,5,76,0.15,1,0,-,180,2.5574273999995967,['n'],0.43083419999993566,1.814,2247.1153492000003,,,,,536,19,Woman,Right,
,,,,,,,,,,,,,,,,,536,19,Woman,Right,5,17,0.4,2,0,180,180,0.853443000000425,['y'],0.45564150000018344,1.972,2250.7653509,,,,,536,19,Woman,Right,
,,,,,,,,,,,,,,,,,536,19,Woman,Right,5,68,0.15,1,0,-,180,1.1523600000000442,['n'],0.5429682000003595,1.956,2254.5644241,,,,,536,19,Woman,Right,
,,,,,,,,,,,,,,,,,536,19,Woman,Right,5,63,0.15,2,180,0,180,0.7666877999999997,['n'],0.4074910999997883,1.956,2257.9146536999997,,,,,536,19,Woman,Right,
,,,,,,,,,,,,,,,,,536,19,Woman,Right,5,33,0.4,2,0,180,180,0.3749007999999776,['y'],0.5114884999998139,2.0,2261.0324106999997,,,,,536,19,Woman,Right,
,,,,,,,,,,,,,,,,,536,19,Woman,Right,5,52,0.15,1,0,-,180,0.42093349999959173,['n'],1.0159365999998045,2.0,2264.4154249000003,,,,,536,19,Woman,Right,
,,,,,,,,,,,,,,,,,536,19,Woman,Right,5,8,0.4,1,0,-,0,0.724532199999885,['n'],0.4315678000002663,2.0,2267.6983391000003,,,,,536,19,Woman,Right,
,,,,,,,,,,,,,,,,,536,19,Woman,Right,5,16,0.4,1,0,-,0,0.22625509999988935,['n'],0.5036598000001504,2.0,2270.5657316999996,,,,,536,19,Woman,Right,
,,,,,,,,,,,,,,,,,536,19,Woman,Right,5,71,0.15,2,180,0,180,1.6747513999998773,['n'],0.7354286999998294,2.0,2274.9990355,,,,,536,19,Woman,Right,
,,,,,,,,,,,,,,,,,536,19,Woman,Right,5,4,1,1,0,-,0,0.3636714999997821,['n'],0.3193827999998575,2.0,2277.7147655999997,,,,,536,19,Woman,Right,
,,,,,,,,,,,,,,,,,536,19,Woman,Right,5,40,0.4,1,0,-,0,0.35092960000019957,['n'],0.26357499999994616,2.0,2280.3484145,,,,,536,19,Woman,Right,
,,,,,,,,,,,,,,,,,536,19,Woman,Right,5,48,0.15,1,0,-,0,0.6818391000001611,['n'],0.29537170000003243,2.0,2283.4488161,,,,,536,19,Woman,Right,
,,,,,,,,,,,,,,,,,536,19,Woman,Right,5,1,1,2,0,180,180,0.9848265000000538,['y'],1.1195708999998715,2.0,2287.5654774000004,,,,,536,19,Woman,Right,
,,,,,,,,,,,,,,,,,536,19,Woman,Right,5,25,0.4,2,0,180,180,0.4855606999999509,['y'],0.28758760000027905,2.0,2290.9318325000004,,,,,536,19,Woman,Right,
,,,,,,,,,,,,,,,,,536,19,Woman,Right,5,26,0.4,1,180,-,180,0.41104500000028565,['n'],0.4554284999999254,1.992,2293.8656469,,,,,536,19,Woman,Right,
,,,,,,,,,,,,,,,,,536,19,Woman,Right,5,70,0.15,1,180,-,180,1.1362029000001712,['n'],0.2638672999996743,1.992,2297.2980829999997,,,,,536,19,Woman,Right,
,,,,,,,,,,,,,,,,,536,19,Woman,Right,5,51,0.15,2,180,0,180,0.4249156999999286,['n'],1.2238271999999597,1.992,2300.8655115,,,,,536,19,Woman,Right,
,,,,,,,,,,,,,,,,,536,19,Woman,Right,5,44,0.15,1,0,-,180,0.15273860000024797,['n'],0.30307040000025154,1.99,2303.3978948000004,,,,,536,19,Woman,Right,
,,,,,,,,,,,,,,,,,536,19,Woman,Right,5,57,0.15,2,0,180,0,0.831670099999883,['n'],0.2553302999999687,1.99,2306.6317339999996,,,,,536,19,Woman,Right,
,,,,,,,,,,,,,,,,,536,19,Woman,Right,5,29,0.4,2,0,180,180,0.952941600000031,['y'],0.3356595999998717,1.99,2311.1316340000003,,,,,536,19,Woman,Right,
,,,,,,,,,,,,,,,,,536,19,Woman,Right,5,58,0.15,1,180,-,180,0.3339332000000468,['n'],0.7356890000000931,1.99,2315.0323022000002,,,,,536,19,Woman,Right,
,,,,,,,,,,,,,,,,,536,19,Woman,Right,5,34,0.4,1,180,-,180,0.3275799000002735,['n'],0.5436964999998963,1.99,2318.3820028,,,,,536,19,Woman,Right,
,,,,,,,,,,,,,,,,,536,19,Woman,Right,5,46,0.15,1,180,-,180,0.2918435000001409,['n'],1.0557480000002215,1.99,2322.0648310999995,,,,,536,19,Woman,Right,
,,,,,,,,,,,,,,,,,536,19,Woman,Right,5,50,0.15,1,180,-,180,0.7836284999998497,['n'],2.4557027000000744,1.736,2327.6987898999996,,,,,536,19,Woman,Right,
,,,,,,,,,,,,,,,,,536,19,Woman,Right,5,72,0.15,1,0,-,180,0.13798629999973855,['n'],0.5911823000001277,1.926,2330.649297,,,,,536,19,Woman,Right,
,,,,,,,,,,,,,,,,,536,19,Woman,Right,5,55,0.15,2,180,0,180,0.6743851999999606,['n'],0.34361829999988913,1.968,2333.7653216999997,,,,,536,19,Woman,Right,
,,,,,,,,,,,,,,,,,536,19,Woman,Right,5,12,0.4,1,0,-,0,0.9434260000002723,['n'],0.35144350000018676,1.968,2337.0311149,,,,,536,19,Woman,Right,
,,,,,,,,,,,,,,,,,536,19,Woman,Right,5,11,0.4,2,180,0,0,1.0357171999999082,['y'],0.5032904999998209,2.0,2340.9481582,,,,,536,19,Woman,Right,
,,,,,,,,,,,,,,,,,536,19,Woman,Right,5,45,0.15,2,0,180,180,0.6800135000003138,['y'],0.36700399999972433,1.6440000000000001,2344.9144656999997,,,,,536,19,Woman,Right,
,,,,,,,,,,,,,,,,,536,19,Woman,Right,5,69,0.15,2,0,180,180,0.28729950000024473,['n'],0.5433186000000205,1.944,2347.8314855,,,,,536,19,Woman,Right,
,,,,,,,,,,,,,,,,,536,19,Woman,Right,5,73,0.15,2,0,180,180,0.5484187000001839,['y'],1.079580700000406,1.69,2351.6649973000003,,,,,536,19,Woman,Right,
,,,,,,,,,,,,,,,,,536,19,Woman,Right,5,19,0.4,2,180,0,0,0.492421099999774,['y'],0.9513630999999805,1.95,2355.1654528,,,,,536,19,Woman,Right,
,,,,,,,,,,,,,,,,,536,19,Woman,Right,5,13,0.4,2,0,180,180,0.2881419000000278,['y'],0.807028100000025,1.95,2358.1820131000004,,,,,536,19,Woman,Right,
,,,,,,,,,,,,,,,,,536,19,Woman,Right,5,59,0.15,2,180,0,0,0.5324487999996563,['n'],0.855044700000235,1.95,2361.5654701000003,,,,,536,19,Woman,Right,
,,,,,,,,,,,,,,,,,536,19,Woman,Right,5,79,0.15,2,180,0,180,1.0771107000000484,['n'],0.2476360000000568,1.95,2364.8807593,,,,,536,19,Woman,Right,
,,,,,,,,,,,,,,,,,536,19,Woman,Right,5,62,0.15,1,180,-,180,0.43849749999981213,['n'],0.7115595000000212,1.95,2368.0489383000004,,,,,536,19,Woman,Right,
,,,,,,,,,,,,,,,,,536,19,Woman,Right,5,0,1,1,0,-,0,0.4260215999997854,['n'],0.7193130000000565,1.98,2371.4987972,,,,,536,19,Woman,Right,
,,,,,,,,,,,,,,,,,536,19,Woman,Right,5,75,0.15,2,180,0,180,0.15048309999974663,['n'],0.37573810000003505,1.98,2374.0641640000003,,,,,536,19,Woman,Right,
,,,,,,,,,,,,,,,,,536,19,Woman,Right,5,14,0.4,1,180,-,0,0.37703279999959705,['n'],1.3440703000001122,1.98,2377.747351,,,,,536,19,Woman,Right,
,,,,,,,,,,,,,,,,,536,19,Woman,Right,5,78,0.15,1,180,-,180,0.6297154999997474,['n'],1.0235155000000304,1.982,2381.3987743999996,,,,,536,19,Woman,Right,
,,,,,,,,,,,,,,,,,536,19,Woman,Right,5,66,0.15,1,180,-,180,0.3231463000001895,['n'],0.559492599999885,1.982,2384.2819898999996,,,,,536,19,Woman,Right,
,,,,,,,,,,,,,,,,,536,19,Woman,Right,5,49,0.15,2,0,180,0,0.21444729999984702,['n'],0.4718257999998059,1.982,2387.0987052,,,,,536,19,Woman,Right,
,,,,,,,,,,,,,,,,,536,19,Woman,Right,5,27,0.4,2,180,0,0,0.38315190000002985,['y'],1.015574900000047,1.982,2390.6984151999995,,,,,536,19,Woman,Right,
,,,,,,,,,,,,,,,,,536,19,Woman,Right,5,21,0.4,2,0,180,180,0.5675784000000021,['y'],0.8954983999997239,1.982,2394.1657293,,,,,536,19,Woman,Right,
,,,,,,,,,,,,,,,,,536,19,Woman,Right,5,56,0.15,1,0,-,0,0.45839410000007774,['n'],1.063586899999791,1.982,2397.7819185,,,,,536,19,Woman,Right,
,,,,,,,,,,,,,,,,,536,19,Woman,Right,5,30,0.4,1,180,-,180,0.27701410000008764,['n'],0.4395571000000018,1.982,2400.4321545000003,,,,,536,19,Woman,Right,
,,,,,,,,,,,,,,,,,536,19,Woman,Right,5,61,0.15,2,0,180,0,0.6494356999996853,['n'],0.4160329000001184,1.982,2403.4650123,,,,,536,19,Woman,Right,
,,,,,,,,,,,,,,,,,536,19,Woman,Right,5,64,0.15,1,0,-,0,0.23988660000031814,['n'],0.31939680000004955,1.982,2406.0644098000002,,,,,536,19,Woman,Right,
,,,,,,,,,,,,,,,,,536,19,Woman,Right,5,31,0.4,2,180,0,0,1.1551653999999871,['y'],0.9759309999999459,1.982,2410.7986614,,,,,536,19,Woman,Right,
,,,,,,,,,,,,,,,,,536,19,Woman,Right,5,37,0.4,2,0,180,180,0.33722790000001623,['y'],0.5994064999999864,1.982,2413.8153504,,,,,536,19,Woman,Right,
,,,,,,,,,,,,,,,,,536,19,Woman,Right,5,5,1,2,0,180,180,0.2256465999998909,['y'],0.5995816999998169,1.982,2416.6813183000004,,,,,536,19,Woman,Right,
,,,,,,,,,,,,,,,,,536,19,Woman,Right,5,23,0.4,2,180,0,0,0.4831970000000183,['y'],0.6750582999998187,1.97,2420.9654275000003,,,,,536,19,Woman,Right,
,,,,,,,,,,,,,,,,,536,19,Woman,Right,5,15,0.4,2,180,0,0,0.2897840000000542,['y'],1.8635901000002377,2.0,2425.2146534000003,,,,,536,19,Woman,Right,
,,,,,,,,,,,,,,,,,536,19,Woman,Right,5,24,0.4,1,0,-,0,0.3912844000001314,['n'],0.7358125999999174,2.0,2428.4646387000003,,,,,536,19,Woman,Right,
,,,,,,,,,,,,,,,,,536,19,Woman,Right,5,6,1,1,180,-,180,0.582066400000258,['n'],0.3751929999998538,1.998,2431.4980649999998,,,,,536,19,Woman,Right,
,,,,,,,,,,,,,,,,,536,19,Woman,Right,5,41,0.4,2,0,180,180,0.607271800000035,['y'],0.8716402000000016,1.998,2435.0307454000003,,,,,536,19,Woman,Right,
,,,,,,,,,,,,,,,,,536,19,Woman,Right,5,7,1,2,180,0,0,0.609953200000291,['n'],0.4956417999997029,1.536,2439.8481214000003,,,,,536,19,Woman,Right,
,,,,,,,,,,,,,,,,,536,19,Woman,Right,5,22,0.4,1,180,-,180,0.9089202000000114,['n'],0.9113842000001569,1.99,2443.5651602,,,,,536,19,Woman,Right,
,,,,,,,,,,,,,,,,,536,19,Woman,Right,5,2,1,1,180,-,180,0.33886030000030587,['n'],0.41555830000015703,1.99,2446.3811771,,,,,536,19,Woman,Right,
,,,,,,,,,,,,,,,,,536,19,Woman,Right,5,65,0.15,2,0,180,180,0.3991246999999021,['n'],0.41423260000010487,1.99,2449.2151931999997,,,,,536,19,Woman,Right,
,,,,,,,,,,,,,,,,,536,19,Woman,Right,5,39,0.4,2,180,0,0,0.6359555000003638,['y'],0.6157312999998794,1.99,2452.4824872,,,,,536,19,Woman,Right,
,,,,,,,,,,,,,,,,,536,19,Woman,Right,5,42,0.4,1,180,-,180,0.5361765000002379,['n'],0.44711050000023533,1.988,2455.4986952,,,,,536,19,Woman,Right,
,,,,,,,,,,,,,,,,,536,19,Woman,Right,5,35,0.4,2,180,0,0,0.3271585000002233,['y'],1.0956260000002658,1.988,2458.9482673,,,,,536,19,Woman,Right,
,,,,,,,,,,,,,,,,,536,19,Woman,Right,5,20,0.4,1,0,-,0,0.2866812000002028,['n'],0.407584699999461,1.988,2461.8484987,,,,,536,19,Woman,Right,
,,,,,,,,,,,,,,,,,,,,,,,,,,,,,,,,,73.75,100.0,57.5,2044.737939,,,,,
