p_block,p_section,p_coherence,p_direction1,p_direction2,p_direction_response,p_direction_RT,p_change_response,p_change_RT,p_confidence,p_full_correct,p_without5_correct,p_full_total,p_without5_total,p_full_avg,p_witout5_avg,p_total_time,sub,age,sex,handedness,loop,trial randomization,coherence,condition,direction1,direction2,direction_response,direction_RT,change_response,change_RT,change_confidence,change_confidence_RT,block_direction_avg,block_stable_avg,block_change_avg,total_time,sub,age,sex,handedness,
1,1,1.0,0,-,180,1.1448568000000705,-,-,-,,,,,,,,524,20,Woman,Right,,,,,,,,,,,,,,,,,524,20,Woman,Right,
1,1,1.0,180,-,180,0.305685799999992,-,-,-,,,,,,,,524,20,Woman,Right,,,,,,,,,,,,,,,,,524,20,Woman,Right,
1,1,1.0,180,-,0,1.4444888000000446,-,-,-,,,,,,,,524,20,Woman,Right,,,,,,,,,,,,,,,,,524,20,Woman,Right,
1,1,1.0,180,-,180,0.3378853000001527,-,-,-,,,,,,,,524,20,Woman,Right,,,,,,,,,,,,,,,,,524,20,Woman,Right,
1,1,1.0,180,-,180,0.32293939999999566,-,-,-,,,,,,,,524,20,Woman,Right,,,,,,,,,,,,,,,,,524,20,Woman,Right,
1,1,1.0,180,-,180,0.8674291999998331,-,-,-,,,,,,,,524,20,Woman,Right,,,,,,,,,,,,,,,,,524,20,Woman,Right,
1,1,1.0,0,-,0,0.3936074999999164,-,-,-,,,,,,,,524,20,Woman,Right,,,,,,,,,,,,,,,,,524,20,Woman,Right,
1,1,1.0,180,-,180,0.3379661000001306,-,-,-,,,,,,,,524,20,Woman,Right,,,,,,,,,,,,,,,,,524,20,Woman,Right,
1,1,1.0,180,-,180,0.29966510000008384,-,-,-,,,,,,,,524,20,Woman,Right,,,,,,,,,,,,,,,,,524,20,Woman,Right,
1,1,1.0,180,-,180,0.2789788000000044,-,-,-,8,8,10,10,0.8,0.8,,524,20,Woman,Right,,,,,,,,,,,,,,,,,524,20,Woman,Right,
2,1,0.4,180,-,180,0.7390837000000374,-,-,-,,,,,,,,524,20,Woman,Right,,,,,,,,,,,,,,,,,524,20,Woman,Right,
2,1,0.15,0,-,0,0.41205250000007254,-,-,-,,,,,,,,524,20,Woman,Right,,,,,,,,,,,,,,,,,524,20,Woman,Right,
2,1,0.15,180,-,0,1.7949736000000485,-,-,-,,,,,,,,524,20,Woman,Right,,,,,,,,,,,,,,,,,524,20,Woman,Right,
2,1,0.4,180,-,180,0.033598999999867374,-,-,-,,,,,,,,524,20,Woman,Right,,,,,,,,,,,,,,,,,524,20,Woman,Right,
2,1,0.15,180,-,0,0.016613900000038484,-,-,-,,,,,,,,524,20,Woman,Right,,,,,,,,,,,,,,,,,524,20,Woman,Right,
2,1,0.4,0,-,0,0.3828048000000308,-,-,-,,,,,,,,524,20,Woman,Right,,,,,,,,,,,,,,,,,524,20,Woman,Right,
2,1,0.15,180,-,180,0.27779400000008536,-,-,-,,,,,,,,524,20,Woman,Right,,,,,,,,,,,,,,,,,524,20,Woman,Right,
2,1,0.15,180,-,180,0.3872870000000148,-,-,-,,,,,,,,524,20,Woman,Right,,,,,,,,,,,,,,,,,524,20,Woman,Right,
2,1,0.15,0,-,0,0.41687019999994845,-,-,-,,,,,,,,524,20,Woman,Right,,,,,,,,,,,,,,,,,524,20,Woman,Right,
2,1,0.4,0,-,0,0.5292947000000368,-,-,-,8,4,10,4,0.8,1.0,,524,20,Woman,Right,,,,,,,,,,,,,,,,,524,20,Woman,Right,
3,2,1.0,180,0,0,1.7825566999999864,['y'],2.8086874000000535,1.998,,,,,,,,524,20,Woman,Right,,,,,,,,,,,,,,,,,524,20,Woman,Right,
3,2,1.0,180,0,0,1.6133697000000211,['y'],2.4062914000001,1.988,,,,,,,,524,20,Woman,Right,,,,,,,,,,,,,,,,,524,20,Woman,Right,
3,2,1.0,180,0,0,1.498243499999944,['y'],1.4956302999999025,1.998,,,,,,,,524,20,Woman,Right,,,,,,,,,,,,,,,,,524,20,Woman,Right,
3,2,1.0,180,0,0,1.3849288000001252,['y'],1.864254800000026,1.996,,,,,,,,524,20,Woman,Right,,,,,,,,,,,,,,,,,524,20,Woman,Right,
3,2,1.0,180,0,0,0.9161093999998684,['y'],1.5127249999998185,2.0,,,,,,,,524,20,Woman,Right,,,,,,,,,,,,,,,,,524,20,Woman,Right,
3,2,1.0,180,0,0,0.8015963999998803,['y'],4.497490599999992,1.99,,,,,,,,524,20,Woman,Right,,,,,,,,,,,,,,,,,524,20,Woman,Right,
3,2,1.0,0,180,180,0.41222930000003544,['y'],1.0460410999999112,1.988,,,,,,,,524,20,Woman,Right,,,,,,,,,,,,,,,,,524,20,Woman,Right,
3,2,1.0,180,0,0,0.33407839999995304,['y'],1.8261778999999478,2.0,,,,,,,,524,20,Woman,Right,,,,,,,,,,,,,,,,,524,20,Woman,Right,
3,2,1.0,180,0,0,0.6521664999997938,['y'],1.0442471999999725,1.978,,,,,,,,524,20,Woman,Right,,,,,,,,,,,,,,,,,524,20,Woman,Right,
3,2,1.0,180,0,0,1.008145999999897,['y'],0.9136723999999958,1.99,10,10,10,10,1.0,1.0,,524,20,Woman,Right,,,,,,,,,,,,,,,,,524,20,Woman,Right,
4,2,0.15,180,0,180,1.3359373999999207,['n'],2.523612299999968,1.896,,,,,,,,524,20,Woman,Right,,,,,,,,,,,,,,,,,524,20,Woman,Right,
4,2,0.15,0,180,180,4.02911610000001,['y'],4.714791399999967,1.568,,,,,,,,524,20,Woman,Right,,,,,,,,,,,,,,,,,524,20,Woman,Right,
4,2,0.15,180,0,0,0.8630366999998387,['y'],1.5021064000000024,2.0,,,,,,,,524,20,Woman,Right,,,,,,,,,,,,,,,,,524,20,Woman,Right,
4,2,0.15,180,0,0,0.7829661999999189,['y'],1.033602399999836,1.93,,,,,,,,524,20,Woman,Right,,,,,,,,,,,,,,,,,524,20,Woman,Right,
4,2,0.15,180,0,0,0.559854200000018,['y'],1.9715042000000267,1.998,,,,,,,,524,20,Woman,Right,,,,,,,,,,,,,,,,,524,20,Woman,Right,
4,2,0.4,0,180,180,0.5372708999998395,['y'],1.2043021000001772,2.0,,,,,,,,524,20,Woman,Right,,,,,,,,,,,,,,,,,524,20,Woman,Right,
4,2,0.4,0,180,180,0.5583983999999873,['y'],1.457579399999986,2.0,,,,,,,,524,20,Woman,Right,,,,,,,,,,,,,,,,,524,20,Woman,Right,
4,2,0.15,0,180,180,0.3356989999999769,['y'],1.363655799999833,2.0,,,,,,,,524,20,Woman,Right,,,,,,,,,,,,,,,,,524,20,Woman,Right,
4,2,0.4,0,180,180,0.52049820000002,['y'],1.0702603999998246,2.0,,,,,,,,524,20,Woman,Right,,,,,,,,,,,,,,,,,524,20,Woman,Right,
4,2,0.4,0,180,180,0.35772190000011506,['y'],0.9927903000000242,1.99,9,4,10,4,0.9,1.0,,524,20,Woman,Right,,,,,,,,,,,,,,,,,524,20,Woman,Right,
5,3,0.4,0,-,180,0.7788671999999224,['y'],1.2780135999998947,1.998,,,,,,,,524,20,Woman,Right,,,,,,,,,,,,,,,,,524,20,Woman,Right,
5,3,1.0,180,-,180,0.5841664000001856,['n'],1.8344222000000627,2.0,,,,,,,,524,20,Woman,Right,,,,,,,,,,,,,,,,,524,20,Woman,Right,
5,3,0.15,0,180,0,2.3448289000000386,['n'],1.2351851000000806,2.0,,,,,,,,524,20,Woman,Right,,,,,,,,,,,,,,,,,524,20,Woman,Right,
5,3,1.0,0,180,180,0.5869930999999724,['y'],1.9255287000000862,1.99,,,,,,,,524,20,Woman,Right,,,,,,,,,,,,,,,,,524,20,Woman,Right,
5,3,0.15,180,-,0,2.5366252999999688,['y'],0.4589541000000281,1.986,,,,,,,,524,20,Woman,Right,,,,,,,,,,,,,,,,,524,20,Woman,Right,
5,3,0.4,180,-,180,0.5141611999999895,['n'],2.1039109999999255,1.998,,,,,,,,524,20,Woman,Right,,,,,,,,,,,,,,,,,524,20,Woman,Right,
5,3,1.0,0,-,0,1.5424714999999196,['n'],1.22584310000002,2.0,,,,,,,,524,20,Woman,Right,,,,,,,,,,,,,,,,,524,20,Woman,Right,
5,3,1.0,180,-,180,0.3307158000000072,['n'],0.36046490000012454,2.0,,,,,,,,524,20,Woman,Right,,,,,,,,,,,,,,,,,524,20,Woman,Right,
5,3,0.15,0,180,180,0.9771994000000177,['y'],2.0115811999999096,2.0,,,,,,,,524,20,Woman,Right,,,,,,,,,,,,,,,,,524,20,Woman,Right,
5,3,0.4,180,0,0,0.7433952999999747,['y'],0.8755181999999877,2.0,7,6,10,7,0.7,0.8571428571428571,,524,20,Woman,Right,,,,,,,,,,,,,,,,,524,20,Woman,Right,
,,,,,,,,,,,,,,,,4.300000000512227e-06,524,20,Woman,Right,,,,,,,,,,,,,,,,,524,20,Woman,Right,
,,,,,,,,,,,,,,,,,524,20,Woman,Right,0,64,0.15,1,0,-,180,2.0812556999999288,['n'],3.798707400000012,1.498,383.0318256999999,,,,,524,20,Woman,Right,
,,,,,,,,,,,,,,,,,524,20,Woman,Right,0,21,0.4,2,0,180,180,0.6882702000000336,['y'],1.8791092999999819,1.996,389.2053389,,,,,524,20,Woman,Right,
,,,,,,,,,,,,,,,,,524,20,Woman,Right,0,62,0.15,1,180,-,0,1.8438512000000173,['y'],1.095516699999962,1.786,395.8619128999999,,,,,524,20,Woman,Right,
,,,,,,,,,,,,,,,,,524,20,Woman,Right,0,37,0.4,2,0,180,0,2.2616407000000436,['y'],1.0149920000001202,1.388,402.5510950999999,,,,,524,20,Woman,Right,
,,,,,,,,,,,,,,,,,524,20,Woman,Right,0,13,0.4,2,0,180,180,0.4596930000000157,['y'],1.0396018000001277,2.0,407.79044299999987,,,,,524,20,Woman,Right,
,,,,,,,,,,,,,,,,,524,20,Woman,Right,0,46,0.15,1,180,-,0,3.504214999999931,['y'],2.5561173999999482,1.446,418.5670579,,,,,524,20,Woman,Right,
,,,,,,,,,,,,,,,,,524,20,Woman,Right,0,78,0.15,1,180,-,180,2.921425700000327,['y'],1.5429376999995839,1.27,426.275574,,,,,524,20,Woman,Right,
,,,,,,,,,,,,,,,,,524,20,Woman,Right,0,57,0.15,2,0,180,180,6.165058500000214,['n'],2.0232664000000113,1.83,441.8735656000001,,,,,524,20,Woman,Right,
,,,,,,,,,,,,,,,,,524,20,Woman,Right,0,56,0.15,1,0,-,0,1.3325822000001608,['n'],1.670921499999622,1.6360000000000001,448.4311946999999,,,,,524,20,Woman,Right,
,,,,,,,,,,,,,,,,,524,20,Woman,Right,0,0,1,1,0,-,0,1.0964966000001368,['n'],2.103784700000233,1.992,455.10418760000016,,,,,524,20,Woman,Right,
,,,,,,,,,,,,,,,,,524,20,Woman,Right,0,2,1,1,180,-,180,0.31800909999992655,['n'],1.9921391999996558,2.0,461.8769153999999,,,,,524,20,Woman,Right,
,,,,,,,,,,,,,,,,,524,20,Woman,Right,0,70,0.15,1,180,-,180,4.004808099999991,['n'],1.255732199999784,1.472,471.0861103,,,,,524,20,Woman,Right,
,,,,,,,,,,,,,,,,,524,20,Woman,Right,0,61,0.15,2,0,180,180,1.5508365999999114,['y'],1.2635512000001654,1.966,477.3598155000002,,,,,524,20,Woman,Right,
,,,,,,,,,,,,,,,,,524,20,Woman,Right,0,51,0.15,2,180,0,0,0.7986512999996194,['y'],1.5588121000000683,1.914,483.41531469999995,,,,,524,20,Woman,Right,
,,,,,,,,,,,,,,,,,524,20,Woman,Right,0,27,0.4,2,180,0,0,1.343906699999934,['y'],1.1193657999997413,2.0,489.571154,,,,,524,20,Woman,Right,
,,,,,,,,,,,,,,,,,524,20,Woman,Right,0,43,0.4,2,180,0,0,0.4795589000000291,['y'],1.2231477000000268,1.992,494.1924958000002,,,,,524,20,Woman,Right,
,,,,,,,,,,,,,,,,,524,20,Woman,Right,0,23,0.4,2,180,0,0,0.5063402999999198,['y'],2.5193202999998903,1.998,501.2336165999998,,,,,524,20,Woman,Right,
,,,,,,,,,,,,,,,,,524,20,Woman,Right,0,34,0.4,1,180,-,180,3.4485380999999506,['n'],1.7274569000001065,1.024,509.29143039999985,,,,,524,20,Woman,Right,
,,,,,,,,,,,,,,,,,524,20,Woman,Right,0,58,0.15,1,180,-,180,3.044805600000018,['n'],2.063701300000048,1.0,518.6668244,,,,,524,20,Woman,Right,
,,,,,,,,,,,,,,,,,524,20,Woman,Right,0,18,0.4,1,180,-,0,0.9241704999999456,['y'],1.4159891999997853,1.0,526.1575384,,,,,524,20,Woman,Right,
,,,,,,,,,,,,,,,,,524,20,Woman,Right,0,22,0.4,1,180,-,0,4.142513100000087,['n'],3.495292999999947,1.0,537.2694134000001,,,,,524,20,Woman,Right,
,,,,,,,,,,,,,,,,,524,20,Woman,Right,0,76,0.15,1,0,-,180,3.8549646000001303,['n'],5.423548199999914,1.0,549.4147429000002,,,,,524,20,Woman,Right,
,,,,,,,,,,,,,,,,,524,20,Woman,Right,0,59,0.15,2,180,0,180,5.571949199999835,['n'],3.439734000000044,1.002,563.4947248000001,,,,,524,20,Woman,Right,
,,,,,,,,,,,,,,,,,524,20,Woman,Right,0,53,0.15,2,0,180,180,0.6237947999998141,['y'],2.2793635000002723,1.996,572.1199057000001,,,,,524,20,Woman,Right,
,,,,,,,,,,,,,,,,,524,20,Woman,Right,0,30,0.4,1,180,-,180,5.123406100000011,['n'],1.8314307999999073,1.424,582.4309326,,,,,524,20,Woman,Right,
,,,,,,,,,,,,,,,,,524,20,Woman,Right,0,71,0.15,2,180,0,0,3.2934878999999455,['n'],1.3674501999998938,1.0,590.2389205000002,,,,,524,20,Woman,Right,
,,,,,,,,,,,,,,,,,524,20,Woman,Right,0,66,0.15,1,180,-,0,3.2556546999999227,['n'],3.175485199999912,1.0,599.8317927999999,,,,,524,20,Woman,Right,
,,,,,,,,,,,,,,,,,524,20,Woman,Right,0,39,0.4,2,180,0,0,1.4291069999999308,['y'],1.8878430999998272,1.932,606.0872529999999,,,,,524,20,Woman,Right,
,,,,,,,,,,,,,,,,,524,20,Woman,Right,0,15,0.4,2,180,0,0,2.8144177999997737,['y'],1.087629300000117,1.764,612.6942249000001,,,,,524,20,Woman,Right,
,,,,,,,,,,,,,,,,,524,20,Woman,Right,0,69,0.15,2,0,180,180,0.8201334999998835,['y'],1.1353079000000434,1.764,618.6829043,,,,,524,20,Woman,Right,
,,,,,,,,,,,,,,,,,524,20,Woman,Right,0,40,0.4,1,0,-,180,5.530329900000197,['y'],2.223240999999689,1.5979999999999999,629.7940752000002,,,,,524,20,Woman,Right,
,,,,,,,,,,,,,,,,,524,20,Woman,Right,0,24,0.4,1,0,-,180,2.9241643000000295,['y'],1.375342400000136,1.5819999999999999,637.0353337999998,,,,,524,20,Woman,Right,
,,,,,,,,,,,,,,,,,524,20,Woman,Right,0,29,0.4,2,0,180,180,0.6576696000001903,['y'],1.431321200000184,2.0,643.4075934,,,,,524,20,Woman,Right,
,,,,,,,,,,,,,,,,,524,20,Woman,Right,0,26,0.4,1,180,-,180,2.3169596000002457,['n'],1.7433709000001727,1.952,652.1329733,,,,,524,20,Woman,Right,
,,,,,,,,,,,,,,,,,524,20,Woman,Right,0,16,0.4,1,0,-,0,1.961914500000148,['n'],1.111388899999838,1.27,658.5560121000001,,,,,524,20,Woman,Right,
,,,,,,,,,,,,,,,,,524,20,Woman,Right,0,79,0.15,2,180,0,180,1.8015881999999692,['y'],1.0793337000000065,2.0,664.4285520000001,,,,,524,20,Woman,Right,
,,,,,,,,,,,,,,,,,524,20,Woman,Right,0,10,0.4,1,180,-,180,0.9648766000000251,['n'],2.134755700000369,1.838,671.269998,,,,,524,20,Woman,Right,
,,,,,,,,,,,,,,,,,524,20,Woman,Right,0,65,0.15,2,0,180,180,2.1783662999996523,['y'],1.1994673999997758,2.0,677.8251186,,,,,524,20,Woman,Right,
,,,,,,,,,,,,,,,,,524,20,Woman,Right,0,36,0.4,1,0,-,0,0.9899667999998201,['n'],0.9919124999996711,2.0,683.1479763,,,,,524,20,Woman,Right,
,,,,,,,,,,,,,,,,,524,20,Woman,Right,0,3,1,2,180,0,0,0.9048189999998613,['y'],1.159683800000039,2.0,688.2858395999999,,,,,524,20,Woman,Right,
,,,,,,,,,,,,,,,,,524,20,Woman,Right,0,54,0.15,1,180,-,180,1.051863400000002,['n'],0.9515316000001803,2.0,693.8420087000002,,,,,524,20,Woman,Right,
,,,,,,,,,,,,,,,,,524,20,Woman,Right,0,63,0.15,2,180,0,180,1.2457644000000982,['n'],0.9516763999999966,2.0,701.9158728,,,,,524,20,Woman,Right,
,,,,,,,,,,,,,,,,,524,20,Woman,Right,0,41,0.4,2,0,180,180,1.9288715000002412,['y'],1.0317568999998912,2.0,707.905508,,,,,524,20,Woman,Right,
,,,,,,,,,,,,,,,,,524,20,Woman,Right,0,33,0.4,2,0,180,180,0.40104870000004667,['y'],0.9310829999999441,2.0,712.2428575000001,,,,,524,20,Woman,Right,
,,,,,,,,,,,,,,,,,524,20,Woman,Right,0,17,0.4,2,0,180,180,0.3804426000001513,['y'],1.119430100000045,2.0,716.6138929000001,,,,,524,20,Woman,Right,
,,,,,,,,,,,,,,,,,524,20,Woman,Right,0,1,1,2,0,180,180,0.47953199999983553,['y'],0.9270198999997774,2.0,720.9182405999998,,,,,524,20,Woman,Right,
,,,,,,,,,,,,,,,,,524,20,Woman,Right,0,19,0.4,2,180,0,0,0.3665813999996317,['y'],0.9592145999999957,2.0,725.5234517000001,,,,,524,20,Woman,Right,
,,,,,,,,,,,,,,,,,524,20,Woman,Right,0,9,0.4,2,0,180,180,0.4017468000001827,['y'],1.0791033000000425,2.0,733.0143163999999,,,,,524,20,Woman,Right,
,,,,,,,,,,,,,,,,,524,20,Woman,Right,0,47,0.15,2,180,0,0,0.3549540999997589,['y'],2.400009200000113,2.0,738.7199558,,,,,524,20,Woman,Right,
,,,,,,,,,,,,,,,,,524,20,Woman,Right,0,35,0.4,2,180,0,0,0.29347669999970094,['y'],1.287755500000003,2.0,743.4739972999998,,,,,524,20,Woman,Right,
,,,,,,,,,,,,,,,,,524,20,Woman,Right,0,4,1,1,0,-,0,1.0928920999999718,['n'],0.9112230999999156,1.5819999999999999,749.7468686999998,,,,,524,20,Woman,Right,
,,,,,,,,,,,,,,,,,524,20,Woman,Right,0,60,0.15,1,0,-,180,2.5359519999997246,['n'],2.64649959999997,1.6,758.7232283999999,,,,,524,20,Woman,Right,
,,,,,,,,,,,,,,,,,524,20,Woman,Right,0,67,0.15,2,180,0,0,1.2526957000000039,['y'],1.0714459000000716,2.0,764.4288693999999,,,,,524,20,Woman,Right,
,,,,,,,,,,,,,,,,,524,20,Woman,Right,0,20,0.4,1,0,-,180,3.9041964000002736,['n'],1.281660600000123,1.782,772.7530287000002,,,,,524,20,Woman,Right,
,,,,,,,,,,,,,,,,,524,20,Woman,Right,0,12,0.4,1,0,-,180,0.9242100000001301,['y'],1.0557222999996156,1.756,778.1093862,,,,,524,20,Woman,Right,
,,,,,,,,,,,,,,,,,524,20,Woman,Right,0,74,0.15,1,180,-,180,0.8223494999997456,['n'],1.055394499999693,2.0,783.2803065,,,,,524,20,Woman,Right,
,,,,,,,,,,,,,,,,,524,20,Woman,Right,0,73,0.15,2,0,180,180,3.860978800000339,['y'],0.8793349000002308,1.6,790.9212744999998,,,,,524,20,Woman,Right,
,,,,,,,,,,,,,,,,,524,20,Woman,Right,0,8,0.4,1,0,-,180,3.3918158000001313,['y'],1.536065199999939,1.6480000000000001,800.2304579999998,,,,,524,20,Woman,Right,
,,,,,,,,,,,,,,,,,524,20,Woman,Right,0,55,0.15,2,180,0,180,1.7188888999999108,['n'],0.8479065999999875,1.438,806.9046154999999,,,,,524,20,Woman,Right,
,,,,,,,,,,,,,,,,,524,20,Woman,Right,0,75,0.15,2,180,0,0,0.7282824999997501,['y'],1.4876174000000901,2.0,813.2101820999999,,,,,524,20,Woman,Right,
,,,,,,,,,,,,,,,,,524,20,Woman,Right,0,7,1,2,180,0,0,0.4646060000000034,['y'],1.0316116999997575,2.0,817.5811317999999,,,,,524,20,Woman,Right,
,,,,,,,,,,,,,,,,,524,20,Woman,Right,0,32,0.4,1,0,-,180,2.841713399999662,['y'],0.9434661999998752,2.0,824.4721357999999,,,,,524,20,Woman,Right,
,,,,,,,,,,,,,,,,,524,20,Woman,Right,0,49,0.15,2,0,180,180,0.6346277000002374,['y'],1.0159087000001819,2.0,829.2927901999999,,,,,524,20,Woman,Right,
,,,,,,,,,,,,,,,,,524,20,Woman,Right,0,38,0.4,1,180,-,180,2.5858275000000503,['n'],1.4952113999997891,2.0,836.4504983999998,,,,,524,20,Woman,Right,
,,,,,,,,,,,,,,,,,524,20,Woman,Right,0,5,1,2,0,180,180,0.4710315000002083,['y'],0.9673757999998998,2.0,841.0219488,,,,,524,20,Woman,Right,
,,,,,,,,,,,,,,,,,524,20,Woman,Right,0,48,0.15,1,0,-,0,3.1056063000000904,['n'],1.1917180000000371,1.308,848.8122399000001,,,,,524,20,Woman,Right,
,,,,,,,,,,,,,,,,,524,20,Woman,Right,0,14,0.4,1,180,-,0,3.618374600000152,['n'],1.0793915000003835,1.1320000000000001,857.4548447999998,,,,,524,20,Woman,Right,
,,,,,,,,,,,,,,,,,524,20,Woman,Right,0,45,0.15,2,0,180,180,4.471066499999779,['y'],1.1356894000000466,1.85,866.5297588000001,,,,,524,20,Woman,Right,
,,,,,,,,,,,,,,,,,524,20,Woman,Right,0,50,0.15,1,180,-,180,0.5649892000001273,['n'],1.5839074000000437,1.776,872.9864346000002,,,,,524,20,Woman,Right,
,,,,,,,,,,,,,,,,,524,20,Woman,Right,0,52,0.15,1,0,-,0,0.8442666000000827,['n'],1.0637845999999627,1.8479999999999999,879.2932794000001,,,,,524,20,Woman,Right,
,,,,,,,,,,,,,,,,,524,20,Woman,Right,0,28,0.4,1,0,-,180,2.1954126000000542,['n'],1.0078371999998126,1.396,886.6665310999999,,,,,524,20,Woman,Right,
,,,,,,,,,,,,,,,,,524,20,Woman,Right,0,44,0.15,1,0,-,180,1.4997720999999729,['y'],0.9680026999999427,1.928,893.8903658000002,,,,,524,20,Woman,Right,
,,,,,,,,,,,,,,,,,524,20,Woman,Right,0,72,0.15,1,0,-,0,3.311884299999747,['n'],3.5351990999997724,1.18,903.9847432999998,,,,,524,20,Woman,Right,
,,,,,,,,,,,,,,,,,524,20,Woman,Right,0,6,1,1,180,-,180,0.5779030999997303,['n'],0.9513649999998961,2.0,908.8233260999998,,,,,524,20,Woman,Right,
,,,,,,,,,,,,,,,,,524,20,Woman,Right,0,11,0.4,2,180,0,0,0.4938918999996531,['y'],0.9357073999999557,2.0,913.3764011000001,,,,,524,20,Woman,Right,
,,,,,,,,,,,,,,,,,524,20,Woman,Right,0,68,0.15,1,0,-,0,2.2330292999999983,['n'],2.3913336000000527,1.27,921.0173735000001,,,,,524,20,Woman,Right,
,,,,,,,,,,,,,,,,,524,20,Woman,Right,0,77,0.15,2,0,180,180,0.5371743000000606,['y'],1.0152977000002466,2.0,925.7220859000001,,,,,524,20,Woman,Right,
,,,,,,,,,,,,,,,,,524,20,Woman,Right,0,25,0.4,2,0,180,180,0.2905172999999195,['y'],0.8713355000004412,2.0,930.4435274,,,,,524,20,Woman,Right,
,,,,,,,,,,,,,,,,,524,20,Woman,Right,0,31,0.4,2,180,0,0,0.33407139999962965,['y'],0.9318424000002778,2.0,936.5504982,,,,,524,20,Woman,Right,
,,,,,,,,,,,,,,,,,524,20,Woman,Right,0,42,0.4,1,180,-,0,1.0979849000000286,['y'],0.8552920000001905,1.52,941.7880435999998,,,,,524,20,Woman,Right,
,,,,,,,,,,,,,,,,,524,20,Woman,Right,1,26,0.4,1,180,-,180,0.9524788999997327,['n'],2.023533099999895,1.842,990.1694768999998,71.25,72.5,87.5,,524,20,Woman,Right,
,,,,,,,,,,,,,,,,,524,20,Woman,Right,1,62,0.15,1,180,-,180,1.0796866000000591,['n'],2.4390957999999046,1.782,996.9262517999998,,,,,524,20,Woman,Right,
,,,,,,,,,,,,,,,,,524,20,Woman,Right,1,21,0.4,2,0,180,180,0.4574995000002673,['y'],1.7355594000000565,2.0,1002.3827318000001,,,,,524,20,Woman,Right,
,,,,,,,,,,,,,,,,,524,20,Woman,Right,1,30,0.4,1,180,-,0,1.24832379999998,['y'],0.9032403000001068,1.354,1007.3206419,,,,,524,20,Woman,Right,
,,,,,,,,,,,,,,,,,524,20,Woman,Right,1,41,0.4,2,0,180,180,0.30241500000011,['y'],0.9911438999997699,2.0,1011.7417560000001,,,,,524,20,Woman,Right,
,,,,,,,,,,,,,,,,,524,20,Woman,Right,1,76,0.15,1,0,-,180,6.74130359999981,['y'],1.9350798999998915,1.06,1023.3858352,,,,,524,20,Woman,Right,
,,,,,,,,,,,,,,,,,524,20,Woman,Right,1,4,1,1,0,-,0,0.846448099999634,['n'],1.175817900000311,1.72,1029.8589779000001,,,,,524,20,Woman,Right,
,,,,,,,,,,,,,,,,,524,20,Woman,Right,1,78,0.15,1,180,-,180,1.1087125999997625,['n'],2.1189543000000413,1.678,1036.950185,,,,,524,20,Woman,Right,
,,,,,,,,,,,,,,,,,524,20,Woman,Right,1,36,0.4,1,0,-,180,3.731935899999826,['y'],1.0792084999998224,1.55,1045.1916465000002,,,,,524,20,Woman,Right,
,,,,,,,,,,,,,,,,,524,20,Woman,Right,1,43,0.4,2,180,0,0,1.9802535999997417,['y'],0.9514589000000342,1.966,1050.8465337999999,,,,,524,20,Woman,Right,
,,,,,,,,,,,,,,,,,524,20,Woman,Right,1,25,0.4,2,0,180,180,0.15849580000030983,['y'],0.8633542000002308,2.0,1055.7684992000002,,,,,524,20,Woman,Right,
,,,,,,,,,,,,,,,,,524,20,Woman,Right,1,38,0.4,1,180,-,180,1.2264529999997649,['n'],3.8870130000000245,1.994,1063.993781,,,,,524,20,Woman,Right,
,,,,,,,,,,,,,,,,,524,20,Woman,Right,1,45,0.15,2,0,180,180,1.7572070000001077,['y'],1.1028456999997616,1.744,1069.7828175000002,,,,,524,20,Woman,Right,
,,,,,,,,,,,,,,,,,524,20,Woman,Right,1,2,1,1,180,-,180,0.4012821999999687,['n'],1.1350209000001996,1.994,1074.4869316000002,,,,,524,20,Woman,Right,
,,,,,,,,,,,,,,,,,524,20,Woman,Right,1,35,0.4,2,180,0,0,0.3347969000001285,['y'],0.9430688999996164,1.986,1078.5908235,,,,,524,20,Woman,Right,
,,,,,,,,,,,,,,,,,524,20,Woman,Right,1,1,1,2,0,180,180,0.26784319999978834,['y'],0.8474685999999565,2.0,1082.7290939000002,,,,,524,20,Woman,Right,
,,,,,,,,,,,,,,,,,524,20,Woman,Right,1,50,0.15,1,180,-,180,0.5296413000000939,['n'],1.0795524999998634,1.3439999999999999,1087.4496793,,,,,524,20,Woman,Right,
,,,,,,,,,,,,,,,,,524,20,Woman,Right,1,19,0.4,2,180,0,0,0.2776718999998593,['y'],0.9036796000000322,2.0,1091.470435,,,,,524,20,Woman,Right,
,,,,,,,,,,,,,,,,,524,20,Woman,Right,1,57,0.15,2,0,180,180,0.8098128000001452,['y'],0.9597020999999586,1.43,1096.0923601000002,,,,,524,20,Woman,Right,
,,,,,,,,,,,,,,,,,524,20,Woman,Right,1,72,0.15,1,0,-,0,3.3257054999999127,['n'],0.990871199999674,1.3780000000000001,1103.3155005,,,,,524,20,Woman,Right,
,,,,,,,,,,,,,,,,,524,20,Woman,Right,1,58,0.15,1,180,-,180,0.4595619000001534,['n'],1.4715541000000485,1.772,1108.3216795,,,,,524,20,Woman,Right,
,,,,,,,,,,,,,,,,,524,20,Woman,Right,1,51,0.15,2,180,0,0,0.9951238000003286,['n'],0.919349499999953,1.362,1113.5757030000002,,,,,524,20,Woman,Right,
,,,,,,,,,,,,,,,,,524,20,Woman,Right,1,14,0.4,1,180,-,180,0.31670479999957024,['n'],3.7148667000001296,1.996,1120.6503409999998,,,,,524,20,Woman,Right,
,,,,,,,,,,,,,,,,,524,20,Woman,Right,1,47,0.15,2,180,0,0,0.4871678999998039,['y'],1.1357364000000416,1.974,1125.1539639,,,,,524,20,Woman,Right,
,,,,,,,,,,,,,,,,,524,20,Woman,Right,1,46,0.15,1,180,-,180,1.1202456000000893,['n'],0.8948445000000902,2.0,1130.6102936999998,,,,,524,20,Woman,Right,
,,,,,,,,,,,,,,,,,524,20,Woman,Right,1,3,1,2,180,0,0,0.39075980000006894,['y'],1.6233304000002136,2.0,1135.5150037,,,,,524,20,Woman,Right,
,,,,,,,,,,,,,,,,,524,20,Woman,Right,1,5,1,2,0,180,180,0.2162554999999884,['y'],0.9036655999998402,2.0,1139.7350451999998,,,,,524,20,Woman,Right,
,,,,,,,,,,,,,,,,,524,20,Woman,Right,1,79,0.15,2,180,0,180,1.9031059000003552,['n'],1.415451600000324,1.1320000000000001,1145.8077764000002,,,,,524,20,Woman,Right,
,,,,,,,,,,,,,,,,,524,20,Woman,Right,1,56,0.15,1,0,-,180,1.418390900000304,['n'],1.1991973999997754,1.46,1152.0649043,,,,,524,20,Woman,Right,
,,,,,,,,,,,,,,,,,524,20,Woman,Right,1,59,0.15,2,180,0,0,1.3410286000002998,['y'],0.9836819000001924,1.69,1157.1356346999999,,,,,524,20,Woman,Right,
,,,,,,,,,,,,,,,,,524,20,Woman,Right,1,18,0.4,1,180,-,180,0.5049406000002818,['n'],0.9910259999996924,1.748,1161.2740239000002,,,,,524,20,Woman,Right,
,,,,,,,,,,,,,,,,,524,20,Woman,Right,1,67,0.15,2,180,0,0,0.6291956000000027,['y'],0.8872513999999683,1.6640000000000001,1165.5273894999998,,,,,524,20,Woman,Right,
,,,,,,,,,,,,,,,,,524,20,Woman,Right,1,31,0.4,2,180,0,0,0.4103642000000036,['y'],1.0872629000000416,1.6,1169.4146400000002,,,,,524,20,Woman,Right,
,,,,,,,,,,,,,,,,,524,20,Woman,Right,1,15,0.4,2,180,0,0,0.3466131999998652,['y'],0.9351440000000366,1.65,1173.8356789000002,,,,,524,20,Woman,Right,
,,,,,,,,,,,,,,,,,524,20,Woman,Right,1,48,0.15,1,0,-,0,1.3853734000003897,['n'],2.197458900000129,1.282,1180.8603537000001,,,,,524,20,Woman,Right,
,,,,,,,,,,,,,,,,,524,20,Woman,Right,1,9,0.4,2,0,180,180,0.2769634000001133,['y'],1.0712916000002224,1.982,1184.5964437999999,,,,,524,20,Woman,Right,
,,,,,,,,,,,,,,,,,524,20,Woman,Right,1,73,0.15,2,0,180,0,3.553386000000046,['n'],1.4614864999998645,1.338,1192.7211881,,,,,524,20,Woman,Right,
,,,,,,,,,,,,,,,,,524,20,Woman,Right,1,23,0.4,2,180,0,0,4.161158599999908,['y'],2.6395009000002574,2.0,1202.5649640999998,,,,,524,20,Woman,Right,
,,,,,,,,,,,,,,,,,524,20,Woman,Right,1,0,1,1,0,-,0,0.8190657999998621,['n'],1.327323399999841,2.0,1207.6694043999998,,,,,524,20,Woman,Right,
,,,,,,,,,,,,,,,,,524,20,Woman,Right,1,68,0.15,1,0,-,0,0.5613859000000048,['n'],0.7516706999999769,1.99,1211.8903192999999,,,,,524,20,Woman,Right,
,,,,,,,,,,,,,,,,,524,20,Woman,Right,1,24,0.4,1,0,-,0,2.1803295999998227,['n'],1.05528140000024,1.746,1218.5301760999998,,,,,524,20,Woman,Right,
,,,,,,,,,,,,,,,,,524,20,Woman,Right,1,7,1,2,180,0,0,0.9356023000000278,['y'],1.1211480000001757,2.0,1222.9520513999998,,,,,524,20,Woman,Right,
,,,,,,,,,,,,,,,,,524,20,Woman,Right,1,70,0.15,1,180,-,180,0.7119981999999254,['n'],0.8550823000000491,1.846,1227.3056218,,,,,524,20,Woman,Right,
,,,,,,,,,,,,,,,,,524,20,Woman,Right,1,28,0.4,1,0,-,0,0.9308768000000782,['n'],0.9276542000002337,1.5779999999999998,1232.6950267,,,,,524,20,Woman,Right,
,,,,,,,,,,,,,,,,,524,20,Woman,Right,1,39,0.4,2,180,0,0,0.9179885999997168,['y'],0.8517775000000256,1.986,1237.2989131000002,,,,,524,20,Woman,Right,
,,,,,,,,,,,,,,,,,524,20,Woman,Right,1,64,0.15,1,0,-,0,1.1202777000003152,['n'],0.9753860000000714,1.642,1242.0536952999998,,,,,524,20,Woman,Right,
,,,,,,,,,,,,,,,,,524,20,Woman,Right,1,32,0.4,1,0,-,0,0.8630598999998256,['n'],0.7675193000000036,1.998,1247.3255219,,,,,524,20,Woman,Right,
,,,,,,,,,,,,,,,,,524,20,Woman,Right,1,13,0.4,2,0,180,180,0.7177927999996427,['y'],0.8678500000000895,1.984,1251.2795012999998,,,,,524,20,Woman,Right,
,,,,,,,,,,,,,,,,,524,20,Woman,Right,1,11,0.4,2,180,0,0,0.36681689999977607,['y'],0.8318154999997205,2.0,1254.9839408,,,,,524,20,Woman,Right,
,,,,,,,,,,,,,,,,,524,20,Woman,Right,1,44,0.15,1,0,-,0,0.6550575999999637,['n'],1.0635670000001483,2.0,1259.1039472999998,,,,,524,20,Woman,Right,
,,,,,,,,,,,,,,,,,524,20,Woman,Right,1,69,0.15,2,0,180,180,2.3218645000001743,['n'],0.911602899999707,1.984,1265.8105076,,,,,524,20,Woman,Right,
,,,,,,,,,,,,,,,,,524,20,Woman,Right,1,10,0.4,1,180,-,180,2.8408024000000296,['n'],1.4793069999996078,1.662,1273.0355305,,,,,524,20,Woman,Right,
,,,,,,,,,,,,,,,,,524,20,Woman,Right,1,37,0.4,2,0,180,180,0.27417400000013004,['y'],0.8953172999999879,2.0,1277.0884282999998,,,,,524,20,Woman,Right,
,,,,,,,,,,,,,,,,,524,20,Woman,Right,1,52,0.15,1,0,-,0,0.28364079999983005,['n'],1.2709282000000712,1.926,1282.0267436000001,,,,,524,20,Woman,Right,
,,,,,,,,,,,,,,,,,524,20,Woman,Right,1,60,0.15,1,0,-,180,0.42780720000018846,['y'],0.8791896000002453,2.0,1285.9314283,,,,,524,20,Woman,Right,
,,,,,,,,,,,,,,,,,524,20,Woman,Right,1,53,0.15,2,0,180,180,0.5902875000001586,['y'],0.8073560000002544,1.98,1289.8178596,,,,,524,20,Woman,Right,
,,,,,,,,,,,,,,,,,524,20,Woman,Right,1,71,0.15,2,180,0,0,1.3339791999997033,['y'],0.8317053999999189,1.976,1294.5399494,,,,,524,20,Woman,Right,
,,,,,,,,,,,,,,,,,524,20,Woman,Right,1,65,0.15,2,0,180,180,0.3341964999999618,['y'],1.199396699999852,2.0,1298.8935067,,,,,524,20,Woman,Right,
,,,,,,,,,,,,,,,,,524,20,Woman,Right,1,42,0.4,1,180,-,0,1.5779042999997728,['y'],0.9991853000001356,1.62,1304.5994727999998,,,,,524,20,Woman,Right,
,,,,,,,,,,,,,,,,,524,20,Woman,Right,1,54,0.15,1,180,-,0,3.9206614999998237,['y'],1.1873136999997769,1.0,1312.7073146999999,,,,,524,20,Woman,Right,
,,,,,,,,,,,,,,,,,524,20,Woman,Right,1,12,0.4,1,0,-,180,1.0471658999999818,['y'],0.9995043999997506,1.6280000000000001,1317.3618989999998,,,,,524,20,Woman,Right,
,,,,,,,,,,,,,,,,,524,20,Woman,Right,1,55,0.15,2,180,0,0,0.46516380000002755,['y'],0.9431845999997677,1.616,1321.4001879,,,,,524,20,Woman,Right,
,,,,,,,,,,,,,,,,,524,20,Woman,Right,1,75,0.15,2,180,0,0,0.38274840000030963,['n'],0.9434542000003603,1.988,1325.8712070999998,,,,,524,20,Woman,Right,
,,,,,,,,,,,,,,,,,524,20,Woman,Right,1,29,0.4,2,0,180,180,0.36894630000006146,['y'],1.6717729000001782,1.994,1330.3757813,,,,,524,20,Woman,Right,
,,,,,,,,,,,,,,,,,524,20,Woman,Right,1,34,0.4,1,180,-,180,3.112681900000098,['y'],3.2313731000003827,1.23,1339.7008776999999,,,,,524,20,Woman,Right,
,,,,,,,,,,,,,,,,,524,20,Woman,Right,1,20,0.4,1,0,-,180,1.9704634999998234,['y'],1.3832374000003256,1.63,1345.5402129000001,,,,,524,20,Woman,Right,
,,,,,,,,,,,,,,,,,524,20,Woman,Right,1,74,0.15,1,180,-,180,0.7713843000001361,['n'],1.4396096000000398,1.992,1350.8954523999998,,,,,524,20,Woman,Right,
,,,,,,,,,,,,,,,,,524,20,Woman,Right,1,33,0.4,2,0,180,180,5.489141500000187,['y'],1.501017900000079,1.744,1360.5048823,,,,,524,20,Woman,Right,
,,,,,,,,,,,,,,,,,524,20,Woman,Right,1,17,0.4,2,0,180,180,0.2681658999999854,['y'],0.9356862999998157,1.982,1363.9924359,,,,,524,20,Woman,Right,
,,,,,,,,,,,,,,,,,524,20,Woman,Right,1,61,0.15,2,0,180,180,1.9349607000003743,['y'],1.0080450999998902,1.988,1369.5138842,,,,,524,20,Woman,Right,
,,,,,,,,,,,,,,,,,524,20,Woman,Right,1,8,0.4,1,0,-,0,2.000307899999825,['y'],1.6403047999997398,1.4060000000000001,1379.5412625000001,,,,,524,20,Woman,Right,
,,,,,,,,,,,,,,,,,524,20,Woman,Right,1,16,0.4,1,0,-,0,1.2269467000000986,['n'],1.087697400000252,1.552,1385.3306417000001,,,,,524,20,Woman,Right,
,,,,,,,,,,,,,,,,,524,20,Woman,Right,1,6,1,1,180,-,180,0.41765209999994113,['n'],1.1678526000000602,2.0,1390.1010720000002,,,,,524,20,Woman,Right,
,,,,,,,,,,,,,,,,,524,20,Woman,Right,1,27,0.4,2,180,0,0,0.33795039999995424,['y'],0.8796959999999672,2.0,1394.3895427999998,,,,,524,20,Woman,Right,
,,,,,,,,,,,,,,,,,524,20,Woman,Right,1,49,0.15,2,0,180,180,0.42186519999995653,['n'],2.1835489000000052,2.0,1400.9955303,,,,,524,20,Woman,Right,
,,,,,,,,,,,,,,,,,524,20,Woman,Right,1,63,0.15,2,180,0,0,2.5105303999998796,['y'],0.9045501000000513,1.5859999999999999,1407.5693453000001,,,,,524,20,Woman,Right,
,,,,,,,,,,,,,,,,,524,20,Woman,Right,1,40,0.4,1,0,-,0,0.7705335999999079,['n'],0.8798464000001331,1.596,1411.9227781000002,,,,,524,20,Woman,Right,
,,,,,,,,,,,,,,,,,524,20,Woman,Right,1,66,0.15,1,180,-,180,1.0242921999997634,['n'],1.335921700000199,1.774,1417.3782084000002,,,,,524,20,Woman,Right,
,,,,,,,,,,,,,,,,,524,20,Woman,Right,1,22,0.4,1,180,-,180,1.9116841000000022,['n'],0.959263799999917,1.464,1424.5855711000002,,,,,524,20,Woman,Right,
,,,,,,,,,,,,,,,,,524,20,Woman,Right,1,77,0.15,2,0,180,180,2.618077000000085,['y'],1.063360300000113,1.708,1431.0752501,,,,,524,20,Woman,Right,
,,,,,,,,,,,,,,,,,524,20,Woman,Right,2,66,0.15,1,180,-,0,1.156421500000306,['y'],0.8471933000000718,1.99,1439.1165008,86.25,75.0,85.0,,524,20,Woman,Right,
,,,,,,,,,,,,,,,,,524,20,Woman,Right,2,52,0.15,1,0,-,0,0.7555649000000813,['n'],0.8634930000002896,1.754,1444.7891023,,,,,524,20,Woman,Right,
,,,,,,,,,,,,,,,,,524,20,Woman,Right,2,69,0.15,2,0,180,180,0.30941459999985454,['n'],1.0314951000000292,2.0,1449.0430559,,,,,524,20,Woman,Right,
,,,,,,,,,,,,,,,,,524,20,Woman,Right,2,11,0.4,2,180,0,0,0.37110279999978957,['y'],0.7912904999998318,2.0,1453.1972899,,,,,524,20,Woman,Right,
,,,,,,,,,,,,,,,,,524,20,Woman,Right,2,10,0.4,1,180,-,0,2.271741199999724,['y'],1.008052100000441,1.392,1459.5709248,,,,,524,20,Woman,Right,
,,,,,,,,,,,,,,,,,524,20,Woman,Right,2,6,1,1,180,-,180,1.0265048000001116,['n'],1.199126299999989,2.0,1464.7587452999999,,,,,524,20,Woman,Right,
,,,,,,,,,,,,,,,,,524,20,Woman,Right,2,24,0.4,1,0,-,180,2.0844507000001613,['y'],1.2635701999997764,1.558,1470.7820499000002,,,,,524,20,Woman,Right,
,,,,,,,,,,,,,,,,,524,20,Woman,Right,2,41,0.4,2,0,180,180,0.2639862999999423,['y'],0.9750143000001117,2.0,1474.8020299000002,,,,,524,20,Woman,Right,
,,,,,,,,,,,,,,,,,524,20,Woman,Right,2,72,0.15,1,0,-,180,3.6871338999999352,['n'],1.427900900000168,1.604,1482.7940012000001,,,,,524,20,Woman,Right,
,,,,,,,,,,,,,,,,,524,20,Woman,Right,2,60,0.15,1,0,-,180,1.9316288999998505,['n'],1.567757900000288,1.8860000000000001,1488.615763,,,,,524,20,Woman,Right,
,,,,,,,,,,,,,,,,,524,20,Woman,Right,2,37,0.4,2,0,180,180,0.18368150000014793,['y'],0.7927557000002707,1.8860000000000001,1488.615763,,,,,524,20,Woman,Right,
,,,,,,,,,,,,,,,,,524,20,Woman,Right,2,3,1,2,180,0,0,0.5045605000000251,['y'],1.7432950000002165,2.0,1497.0743163,,,,,524,20,Woman,Right,
,,,,,,,,,,,,,,,,,524,20,Woman,Right,2,35,0.4,2,180,0,0,0.10595569999986765,['y'],0.8070444999998472,2.0,1501.0615332,,,,,524,20,Woman,Right,
,,,,,,,,,,,,,,,,,524,20,Woman,Right,2,19,0.4,2,180,0,0,1.8151380999997855,['y'],1.7274192999998377,2.0,1508.0021728,,,,,524,20,Woman,Right,
,,,,,,,,,,,,,,,,,524,20,Woman,Right,2,43,0.4,2,180,0,0,0.0850495999998202,['y'],0.8555569000000105,2.0,1511.6728460000002,,,,,524,20,Woman,Right,
,,,,,,,,,,,,,,,,,524,20,Woman,Right,2,55,0.15,2,180,0,0,1.5971434000002773,['y'],0.8314496999996663,1.608,1516.5614443000002,,,,,524,20,Woman,Right,
,,,,,,,,,,,,,,,,,524,20,Woman,Right,2,36,0.4,1,0,-,180,1.7683939000003193,['y'],1.3832446999999775,1.6400000000000001,1522.4499720000001,,,,,524,20,Woman,Right,
,,,,,,,,,,,,,,,,,524,20,Woman,Right,2,74,0.15,1,180,-,180,0.7975912999995671,['n'],1.6388892999998461,1.722,1527.4544434000002,,,,,524,20,Woman,Right,
,,,,,,,,,,,,,,,,,524,20,Woman,Right,2,0,1,1,0,-,0,0.2236935999999332,['n'],1.2634817999996812,2.0,1531.6752952999998,,,,,524,20,Woman,Right,
,,,,,,,,,,,,,,,,,524,20,Woman,Right,2,15,0.4,2,180,0,0,0.3061880000000201,['y'],1.0319402000000082,2.0,1536.3299765,,,,,524,20,Woman,Right,
,,,,,,,,,,,,,,,,,524,20,Woman,Right,2,32,0.4,1,0,-,180,0.8678180000001703,['n'],0.9987479999999778,1.938,1541.0016652000002,,,,,524,20,Woman,Right,
,,,,,,,,,,,,,,,,,524,20,Woman,Right,2,53,0.15,2,0,180,180,0.3407353000002331,['n'],0.8794711000000461,1.996,1544.8718677,,,,,524,20,Woman,Right,
,,,,,,,,,,,,,,,,,524,20,Woman,Right,2,67,0.15,2,180,0,0,1.3098534000000654,['y'],0.9358379000000241,1.624,1549.4096499999998,,,,,524,20,Woman,Right,
,,,,,,,,,,,,,,,,,524,20,Woman,Right,2,7,1,2,180,0,0,0.2675611999998182,['y'],1.7363085000001774,2.0,1554.0476489,,,,,524,20,Woman,Right,
,,,,,,,,,,,,,,,,,524,20,Woman,Right,2,5,1,2,0,180,180,0.2632223000000522,['y'],3.9435779000000366,2.0,1561.1052394,,,,,524,20,Woman,Right,
,,,,,,,,,,,,,,,,,524,20,Woman,Right,2,42,0.4,1,180,-,180,0.678219800000079,['n'],0.8398166000001765,2.0,1565.1420298,,,,,524,20,Woman,Right,
,,,,,,,,,,,,,,,,,524,20,Woman,Right,2,73,0.15,2,0,180,180,0.7415813999996317,['n'],0.9518418999996356,2.0,1569.6805548,,,,,524,20,Woman,Right,
,,,,,,,,,,,,,,,,,524,20,Woman,Right,2,8,0.4,1,0,-,180,0.9329459999999017,['y'],1.103943099999924,1.5939999999999999,1574.451264,,,,,524,20,Woman,Right,
,,,,,,,,,,,,,,,,,524,20,Woman,Right,2,31,0.4,2,180,0,0,0.30681460000005245,['y'],0.7917674000000261,2.0,1578.1049151,,,,,524,20,Woman,Right,
,,,,,,,,,,,,,,,,,524,20,Woman,Right,2,57,0.15,2,0,180,180,0.5579612999999881,['n'],1.1115891999997984,1.708,1582.4933806000001,,,,,524,20,Woman,Right,
,,,,,,,,,,,,,,,,,524,20,Woman,Right,2,54,0.15,1,180,-,180,0.7612997999999607,['n'],1.39134439999998,1.93,1587.7311698,,,,,524,20,Woman,Right,
,,,,,,,,,,,,,,,,,524,20,Woman,Right,2,65,0.15,2,0,180,180,2.160588100000041,['y'],1.4712718000000677,1.584,1593.8212541999999,,,,,524,20,Woman,Right,
,,,,,,,,,,,,,,,,,524,20,Woman,Right,2,18,0.4,1,180,-,180,0.36914729999989504,['n'],0.7753324999998767,2.0,1597.5242798000002,,,,,524,20,Woman,Right,
,,,,,,,,,,,,,,,,,524,20,Woman,Right,2,2,1,1,180,-,180,0.36261930000000575,['n'],1.6554910999998356,2.0,1602.7302318999998,,,,,524,20,Woman,Right,
,,,,,,,,,,,,,,,,,524,20,Woman,Right,2,20,0.4,1,0,-,0,0.43825569999989966,['n'],3.471474699999817,2.0,1609.3028089000002,,,,,524,20,Woman,Right,
,,,,,,,,,,,,,,,,,524,20,Woman,Right,2,62,0.15,1,180,-,180,4.024614399999791,['n'],1.2711899000000813,2.0,1617.0938198000001,,,,,524,20,Woman,Right,
,,,,,,,,,,,,,,,,,524,20,Woman,Right,2,38,0.4,1,180,-,180,2.1361393999995926,['n'],0.8238205999996353,1.774,1623.1497287999998,,,,,524,20,Woman,Right,
,,,,,,,,,,,,,,,,,524,20,Woman,Right,2,50,0.15,1,180,-,0,2.9093276000003243,['n'],1.1834549000000152,1.974,1629.8563726,,,,,524,20,Woman,Right,
,,,,,,,,,,,,,,,,,524,20,Woman,Right,2,14,0.4,1,180,-,180,0.42211170000018683,['n'],0.9751223000002938,2.0,1634.2275158,,,,,524,20,Woman,Right,
,,,,,,,,,,,,,,,,,524,20,Woman,Right,2,9,0.4,2,0,180,180,0.4300081000001228,['y'],0.935613099999955,2.0,1638.1821432999998,,,,,524,20,Woman,Right,
,,,,,,,,,,,,,,,,,524,20,Woman,Right,2,61,0.15,2,0,180,180,0.5843379999996614,['y'],0.799721899999895,1.424,1642.5531505000001,,,,,524,20,Woman,Right,
,,,,,,,,,,,,,,,,,524,20,Woman,Right,2,75,0.15,2,180,0,0,2.9380965999998807,['n'],1.2155029999998987,1.3719999999999999,1649.3925224000002,,,,,524,20,Woman,Right,
,,,,,,,,,,,,,,,,,524,20,Woman,Right,2,39,0.4,2,180,0,0,0.5884522000001198,['y'],0.8150749999999789,1.716,1653.3302322000002,,,,,524,20,Woman,Right,
,,,,,,,,,,,,,,,,,524,20,Woman,Right,2,22,0.4,1,180,-,180,1.123877099999845,['n'],1.360206400000152,1.716,1658.3016670999998,,,,,524,20,Woman,Right,
,,,,,,,,,,,,,,,,,524,20,Woman,Right,2,4,1,1,0,-,0,0.7981564000001526,['n'],0.9756690999997772,1.836,1662.9561083,,,,,524,20,Woman,Right,
,,,,,,,,,,,,,,,,,524,20,Woman,Right,2,56,0.15,1,0,-,180,2.0895872000000963,['n'],0.8392542000001413,1.384,1668.8955319999998,,,,,524,20,Woman,Right,
,,,,,,,,,,,,,,,,,524,20,Woman,Right,2,79,0.15,2,180,0,0,0.7486527000000933,['y'],0.9916862999998557,1.762,1672.8825825000001,,,,,524,20,Woman,Right,
,,,,,,,,,,,,,,,,,524,20,Woman,Right,2,77,0.15,2,0,180,180,0.6939781999999468,['y'],1.2878029000003153,1.562,1677.7382196,,,,,524,20,Woman,Right,
,,,,,,,,,,,,,,,,,524,20,Woman,Right,2,33,0.4,2,0,180,180,0.6004170000001068,['y'],1.0312214000000495,1.8719999999999999,1682.2596078999998,,,,,524,20,Woman,Right,
,,,,,,,,,,,,,,,,,524,20,Woman,Right,2,27,0.4,2,180,0,0,0.24168310000004567,['y'],0.903565399999934,2.0,1687.7809493000002,,,,,524,20,Woman,Right,
,,,,,,,,,,,,,,,,,524,20,Woman,Right,2,78,0.15,1,180,-,180,3.1349239000001035,['n'],0.9916269999998804,1.048,1694.6377897,,,,,524,20,Woman,Right,
,,,,,,,,,,,,,,,,,524,20,Woman,Right,2,23,0.4,2,180,0,0,0.19969200000014098,['y'],1.80820199999971,2.0,1699.2589255,,,,,524,20,Woman,Right,
,,,,,,,,,,,,,,,,,524,20,Woman,Right,2,44,0.15,1,0,-,180,2.521416600000066,['n'],0.9756618999999773,2.0,1705.3656944000002,,,,,524,20,Woman,Right,
,,,,,,,,,,,,,,,,,524,20,Woman,Right,2,68,0.15,1,0,-,180,3.358907999999701,['y'],1.712016500000118,1.608,1713.3230299,,,,,524,20,Woman,Right,
,,,,,,,,,,,,,,,,,524,20,Woman,Right,2,26,0.4,1,180,-,0,3.187193599999773,['y'],1.7915113000003657,1.0,1722.2826994,,,,,524,20,Woman,Right,
,,,,,,,,,,,,,,,,,524,20,Woman,Right,2,40,0.4,1,0,-,0,0.5181268999999702,['n'],1.1272571000004064,2.0,1727.0198877,,,,,524,20,Woman,Right,
,,,,,,,,,,,,,,,,,524,20,Woman,Right,2,16,0.4,1,0,-,0,2.786380999999892,['n'],1.0463788000001841,1.804,1733.2760584,,,,,524,20,Woman,Right,
,,,,,,,,,,,,,,,,,524,20,Woman,Right,2,58,0.15,1,180,-,180,0.3534421999997903,['n'],1.2710782999997718,2.0,1737.7146077,,,,,524,20,Woman,Right,
,,,,,,,,,,,,,,,,,524,20,Woman,Right,2,28,0.4,1,0,-,0,0.5409915999998702,['n'],0.9271849000001566,1.828,1743.3861703,,,,,524,20,Woman,Right,
,,,,,,,,,,,,,,,,,524,20,Woman,Right,2,48,0.15,1,0,-,180,0.9636780999999246,['y'],0.8233483000003616,1.704,1748.0584416999998,,,,,524,20,Woman,Right,
,,,,,,,,,,,,,,,,,524,20,Woman,Right,2,63,0.15,2,180,0,180,3.169893400000092,['n'],1.2158667000003334,1.1560000000000001,1755.248675,,,,,524,20,Woman,Right,
,,,,,,,,,,,,,,,,,524,20,Woman,Right,2,64,0.15,1,0,-,0,0.5279703999999583,['n'],1.1034198000002107,2.0,1760.0711250000002,,,,,524,20,Woman,Right,
,,,,,,,,,,,,,,,,,524,20,Woman,Right,2,30,0.4,1,180,-,180,0.27738689999978305,['n'],0.8710218000001078,2.0,1764.4071780000002,,,,,524,20,Woman,Right,
,,,,,,,,,,,,,,,,,524,20,Woman,Right,2,34,0.4,1,180,-,180,0.3028964999998607,['n'],2.3196262999999817,2.0,1769.7792419999998,,,,,524,20,Woman,Right,
,,,,,,,,,,,,,,,,,524,20,Woman,Right,2,17,0.4,2,0,180,180,0.29973310000013953,['y'],0.9833452999996553,2.0,1773.7505718999998,,,,,524,20,Woman,Right,
,,,,,,,,,,,,,,,,,524,20,Woman,Right,2,45,0.15,2,0,180,180,0.19166750000022148,['y'],0.8791701000000103,2.0,1777.4546048999998,,,,,524,20,Woman,Right,
,,,,,,,,,,,,,,,,,524,20,Woman,Right,2,71,0.15,2,180,0,0,0.21713279999994484,['y'],0.9828087000000778,2.0,1781.1906059,,,,,524,20,Woman,Right,
,,,,,,,,,,,,,,,,,524,20,Woman,Right,2,46,0.15,1,180,-,180,1.01342620000014,['y'],2.926969100000406,1.384,1787.8645835,,,,,524,20,Woman,Right,
,,,,,,,,,,,,,,,,,524,20,Woman,Right,2,13,0.4,2,0,180,180,0.09506949999968128,['y'],0.862874500000089,2.0,1791.6509023,,,,,524,20,Woman,Right,
,,,,,,,,,,,,,,,,,524,20,Woman,Right,2,1,1,2,0,180,180,0.06063769999991564,['y'],3.0955564000000777,2.0,1797.3899862,,,,,524,20,Woman,Right,
,,,,,,,,,,,,,,,,,524,20,Woman,Right,2,21,0.4,2,0,180,180,0.08847549999973126,['y'],2.3030475999999,2.0,1802.2282484,,,,,524,20,Woman,Right,
,,,,,,,,,,,,,,,,,524,20,Woman,Right,2,25,0.4,2,0,180,180,0.7868147999997746,['y'],1.1354108000000451,2.0,1806.8663109000001,,,,,524,20,Woman,Right,
,,,,,,,,,,,,,,,,,524,20,Woman,Right,2,76,0.15,1,0,-,0,2.2458879000000707,['n'],1.3834028999999646,1.178,1813.0888739,,,,,524,20,Woman,Right,
,,,,,,,,,,,,,,,,,524,20,Woman,Right,2,47,0.15,2,180,0,180,0.5319837000001826,['n'],1.2872887999997147,1.748,1817.5607168,,,,,524,20,Woman,Right,
,,,,,,,,,,,,,,,,,524,20,Woman,Right,2,12,0.4,1,0,-,180,0.34604269999999815,['y'],1.1593598999997994,1.58,1822.5150609999998,,,,,524,20,Woman,Right,
,,,,,,,,,,,,,,,,,524,20,Woman,Right,2,70,0.15,1,180,-,180,0.9211160999998356,['y'],0.8551904999999351,1.3599999999999999,1829.1048183,,,,,524,20,Woman,Right,
,,,,,,,,,,,,,,,,,524,20,Woman,Right,2,59,0.15,2,180,0,180,1.8708568000001833,['n'],2.8153674999998657,1.0,1836.7957083,,,,,524,20,Woman,Right,
,,,,,,,,,,,,,,,,,524,20,Woman,Right,2,49,0.15,2,0,180,180,0.6701859999998305,['n'],1.1032451000000947,1.674,1841.9175856,,,,,524,20,Woman,Right,
,,,,,,,,,,,,,,,,,524,20,Woman,Right,2,51,0.15,2,180,0,0,0.7838117999999668,['n'],1.3516015000000152,1.8820000000000001,1847.9735822999999,,,,,524,20,Woman,Right,
,,,,,,,,,,,,,,,,,524,20,Woman,Right,2,29,0.4,2,0,180,180,0.4575222999997095,['y'],0.8957805000000008,1.968,1852.5782983000001,,,,,524,20,Woman,Right,
,,,,,,,,,,,,,,,,,524,20,Woman,Right,3,22,0.4,1,180,-,180,0.4028355999998894,['n'],1.2233123000000887,1.812,1861.8373712,77.5,72.5,75.0,,524,20,Woman,Right,
,,,,,,,,,,,,,,,,,524,20,Woman,Right,3,73,0.15,2,0,180,180,0.5917918999998619,['y'],0.8316357000003336,1.976,1865.8246293999998,,,,,524,20,Woman,Right,
,,,,,,,,,,,,,,,,,524,20,Woman,Right,3,31,0.4,2,180,0,0,0.2611434999998892,['y'],0.7998446999999942,1.984,1869.4116302999998,,,,,524,20,Woman,Right,
,,,,,,,,,,,,,,,,,524,20,Woman,Right,3,58,0.15,1,180,-,180,1.3653684999999314,['n'],1.0550857000002907,1.626,1875.0671635,,,,,524,20,Woman,Right,
,,,,,,,,,,,,,,,,,524,20,Woman,Right,3,79,0.15,2,180,0,0,0.3187192000000323,['y'],0.7912406999998893,1.754,1879.3389009,,,,,524,20,Woman,Right,
,,,,,,,,,,,,,,,,,524,20,Woman,Right,3,6,1,1,180,-,180,0.4309917000000496,['n'],1.1278522999996312,2.0,1883.8593432,,,,,524,20,Woman,Right,
,,,,,,,,,,,,,,,,,524,20,Woman,Right,3,7,1,2,180,0,0,0.34739970000009635,['y'],2.0475225999998656,2.0,1889.215372,,,,,524,20,Woman,Right,
,,,,,,,,,,,,,,,,,524,20,Woman,Right,3,41,0.4,2,0,180,180,0.1760153000000173,['y'],1.351464599999872,2.0,1893.3854398,,,,,524,20,Woman,Right,
,,,,,,,,,,,,,,,,,524,20,Woman,Right,3,50,0.15,1,180,-,180,2.6510120000002644,['y'],1.335850599999958,1.426,1901.3607795,,,,,524,20,Woman,Right,
,,,,,,,,,,,,,,,,,524,20,Woman,Right,3,54,0.15,1,180,-,180,0.7671216000003369,['n'],1.319604000000254,1.6059999999999999,1906.8988751,,,,,524,20,Woman,Right,
,,,,,,,,,,,,,,,,,524,20,Woman,Right,3,10,0.4,1,180,-,180,0.5983298999999533,['n'],0.9356238000000303,1.802,1911.319972,,,,,524,20,Woman,Right,
,,,,,,,,,,,,,,,,,524,20,Woman,Right,3,18,0.4,1,180,-,180,0.6365885000000162,['n'],1.7118255000000318,1.688,1917.8431742999999,,,,,524,20,Woman,Right,
,,,,,,,,,,,,,,,,,524,20,Woman,Right,3,56,0.15,1,0,-,180,0.6166756000002351,['y'],1.1916034000000764,1.564,1922.1809151,,,,,524,20,Woman,Right,
,,,,,,,,,,,,,,,,,524,20,Woman,Right,3,36,0.4,1,0,-,0,1.1643858000002183,['n'],0.9673836999995729,1.5739999999999998,1927.6704849999999,,,,,524,20,Woman,Right,
,,,,,,,,,,,,,,,,,524,20,Woman,Right,3,43,0.4,2,180,0,0,0.3193111000000499,['y'],0.8635506999999052,2.0,1932.3409831000001,,,,,524,20,Woman,Right,
,,,,,,,,,,,,,,,,,524,20,Woman,Right,3,47,0.15,2,180,0,0,0.7490671000000475,['y'],0.9835567000000083,1.626,1936.9120879999998,,,,,524,20,Woman,Right,
,,,,,,,,,,,,,,,,,524,20,Woman,Right,3,65,0.15,2,0,180,180,0.15180800000007366,['y'],0.9199189999999362,1.772,1940.9828074999998,,,,,524,20,Woman,Right,
,,,,,,,,,,,,,,,,,524,20,Woman,Right,3,3,1,2,180,0,0,0.33332319999999527,['y'],0.8635795000000144,2.0,1945.3053644,,,,,524,20,Woman,Right,
,,,,,,,,,,,,,,,,,524,20,Woman,Right,3,59,0.15,2,180,0,180,0.66879229999995,['n'],0.8394926000000851,1.718,1949.5748686999998,,,,,524,20,Woman,Right,
,,,,,,,,,,,,,,,,,524,20,Woman,Right,3,15,0.4,2,180,0,0,0.13352450000002136,['y'],0.8234996000001047,2.0,1954.6972671,,,,,524,20,Woman,Right,
,,,,,,,,,,,,,,,,,524,20,Woman,Right,3,60,0.15,1,0,-,180,1.3160598999998,['n'],1.3352813000001333,1.4060000000000001,1960.2523316,,,,,524,20,Woman,Right,
,,,,,,,,,,,,,,,,,524,20,Woman,Right,3,39,0.4,2,180,0,0,0.7373095999996622,['y'],0.9195420999999442,1.85,1966.7251975000001,,,,,524,20,Woman,Right,
,,,,,,,,,,,,,,,,,524,20,Woman,Right,3,13,0.4,2,0,180,180,0.12573470000006637,['y'],1.0313710999998875,2.0,1970.963641,,,,,524,20,Woman,Right,
,,,,,,,,,,,,,,,,,524,20,Woman,Right,3,61,0.15,2,0,180,180,0.45515579999982947,['n'],5.119279099999858,1.6680000000000001,1980.3225406,,,,,524,20,Woman,Right,
,,,,,,,,,,,,,,,,,524,20,Woman,Right,3,77,0.15,2,0,180,180,0.4030738999999812,['y'],0.9599302999999964,1.976,1984.2927123000002,,,,,524,20,Woman,Right,
,,,,,,,,,,,,,,,,,524,20,Woman,Right,3,63,0.15,2,180,0,0,0.5267056999996385,['y'],0.7596994999998969,1.726,1988.8471437,,,,,524,20,Woman,Right,
,,,,,,,,,,,,,,,,,524,20,Woman,Right,3,33,0.4,2,0,180,180,0.1307213000000047,['y'],0.8475729000001593,1.916,1994.20258,,,,,524,20,Woman,Right,
,,,,,,,,,,,,,,,,,524,20,Woman,Right,3,19,0.4,2,180,0,0,0.1574126000000433,['y'],4.751694500000212,2.0,2002.2439142,,,,,524,20,Woman,Right,
,,,,,,,,,,,,,,,,,524,20,Woman,Right,3,21,0.4,2,0,180,180,0.11375210000005609,['y'],1.8395547000000079,2.0,2007.4324327000002,,,,,524,20,Woman,Right,
,,,,,,,,,,,,,,,,,524,20,Woman,Right,3,78,0.15,1,180,-,180,3.1562119999998686,['n'],0.9514924000000065,1.392,2016.141077,,,,,524,20,Woman,Right,
,,,,,,,,,,,,,,,,,524,20,Woman,Right,3,30,0.4,1,180,-,180,0.5605106000002706,['n'],0.7998911000004227,1.828,2020.5958180999999,,,,,524,20,Woman,Right,
,,,,,,,,,,,,,,,,,524,20,Woman,Right,3,76,0.15,1,0,-,180,0.7183405999999195,['n'],1.3429573000003074,1.8,2025.2509511,,,,,524,20,Woman,Right,
,,,,,,,,,,,,,,,,,524,20,Woman,Right,3,42,0.4,1,180,-,180,0.8253065999997489,['n'],1.0788397999999688,1.37,2030.1049633999999,,,,,524,20,Woman,Right,
,,,,,,,,,,,,,,,,,524,20,Woman,Right,3,14,0.4,1,180,-,180,1.5191746000000421,['n'],0.9030423999997765,1.334,2037.4956636999998,,,,,524,20,Woman,Right,
,,,,,,,,,,,,,,,,,524,20,Woman,Right,3,49,0.15,2,0,180,0,3.9675207999998747,['n'],2.1588818999998693,1.0939999999999999,2049.6752344999995,,,,,524,20,Woman,Right,
,,,,,,,,,,,,,,,,,524,20,Woman,Right,3,12,0.4,1,0,-,0,0.7633194999998523,['n'],0.9278229000001375,1.99,2053.9786384999998,,,,,524,20,Woman,Right,
,,,,,,,,,,,,,,,,,524,20,Woman,Right,3,27,0.4,2,180,0,0,1.2879367999998976,['y'],0.959825500000079,1.874,2058.9680050999996,,,,,524,20,Woman,Right,
,,,,,,,,,,,,,,,,,524,20,Woman,Right,3,70,0.15,1,180,-,180,3.9914976000000024,['n'],2.1349230000000716,1.418,2068.310418,,,,,524,20,Woman,Right,
,,,,,,,,,,,,,,,,,524,20,Woman,Right,3,68,0.15,1,0,-,0,0.5148629999998775,['y'],0.7994587999996838,1.6440000000000001,2072.5482754000004,,,,,524,20,Woman,Right,
,,,,,,,,,,,,,,,,,524,20,Woman,Right,3,52,0.15,1,0,-,180,5.34780819999969,['n'],1.8957383000001755,1.226,2082.6746234,,,,,524,20,Woman,Right,
,,,,,,,,,,,,,,,,,524,20,Woman,Right,3,29,0.4,2,0,180,180,0.6390271000000212,['y'],0.8713054999998349,1.8559999999999999,2087.2786140999997,,,,,524,20,Woman,Right,
,,,,,,,,,,,,,,,,,524,20,Woman,Right,3,32,0.4,1,0,-,0,2.001828800000112,['n'],3.2299150999997437,1.37,2095.3871796000003,,,,,524,20,Woman,Right,
,,,,,,,,,,,,,,,,,524,20,Woman,Right,3,40,0.4,1,0,-,0,0.6188301999995929,['n'],1.3834522000001925,2.0,2100.1586398,,,,,524,20,Woman,Right,
,,,,,,,,,,,,,,,,,524,20,Woman,Right,3,69,0.15,2,0,180,180,0.7416662000000542,['y'],1.0718612000000576,1.3820000000000001,2105.0462564,,,,,524,20,Woman,Right,
,,,,,,,,,,,,,,,,,524,20,Woman,Right,3,8,0.4,1,0,-,0,0.818952999999965,['n'],0.9669448999998167,1.5819999999999999,2109.5514402999997,,,,,524,20,Woman,Right,
,,,,,,,,,,,,,,,,,524,20,Woman,Right,3,51,0.15,2,180,0,0,0.5619760999998107,['y'],0.703277000000071,1.8719999999999999,2113.1715298,,,,,524,20,Woman,Right,
,,,,,,,,,,,,,,,,,524,20,Woman,Right,3,53,0.15,2,0,180,180,3.2545208999999886,['y'],1.951158299999861,1.38,2121.2792971999997,,,,,524,20,Woman,Right,
,,,,,,,,,,,,,,,,,524,20,Woman,Right,3,35,0.4,2,180,0,0,0.20809150000013688,['y'],0.8714266000001771,1.93,2124.8332658,,,,,524,20,Woman,Right,
,,,,,,,,,,,,,,,,,524,20,Woman,Right,3,48,0.15,1,0,-,180,1.7462390999999116,['y'],0.9111824000001434,1.376,2130.3882452,,,,,524,20,Woman,Right,
,,,,,,,,,,,,,,,,,524,20,Woman,Right,3,38,0.4,1,180,-,0,0.348728100000244,['y'],0.9592460999997456,1.674,2134.2591538999995,,,,,524,20,Woman,Right,
,,,,,,,,,,,,,,,,,524,20,Woman,Right,3,16,0.4,1,0,-,0,1.0521224000003713,['n'],0.9111410000000433,1.358,2138.9967794000004,,,,,524,20,Woman,Right,
,,,,,,,,,,,,,,,,,524,20,Woman,Right,3,75,0.15,2,180,0,180,2.5768975000000864,['y'],1.510950800000046,1.366,2146.8711814,,,,,524,20,Woman,Right,
,,,,,,,,,,,,,,,,,524,20,Woman,Right,3,23,0.4,2,180,0,0,0.1674009999996997,['y'],2.0950152999998863,1.818,2153.0442961999997,,,,,524,20,Woman,Right,
,,,,,,,,,,,,,,,,,524,20,Woman,Right,3,26,0.4,1,180,-,180,1.4846200000001772,['n'],0.8716344999998,1.324,2157.8829062000004,,,,,524,20,Woman,Right,
,,,,,,,,,,,,,,,,,524,20,Woman,Right,3,1,1,2,0,180,180,0.5792316999995819,['y'],1.1996218000003864,2.0,2162.1539843,,,,,524,20,Woman,Right,
,,,,,,,,,,,,,,,,,524,20,Woman,Right,3,5,1,2,0,180,180,0.27570669999977326,['y'],1.071905499999957,2.0,2166.7423723,,,,,524,20,Woman,Right,
,,,,,,,,,,,,,,,,,524,20,Woman,Right,3,28,0.4,1,0,-,0,0.7419466999999713,['n'],0.8556180999999015,1.596,2170.6958889999996,,,,,524,20,Woman,Right,
,,,,,,,,,,,,,,,,,524,20,Woman,Right,3,71,0.15,2,180,0,0,0.9356887000003553,['y'],1.1756540999999743,1.43,2176.2011165000004,,,,,524,20,Woman,Right,
,,,,,,,,,,,,,,,,,524,20,Woman,Right,3,74,0.15,1,180,-,0,0.7259045999999216,['y'],0.9116437999996378,1.662,2180.5051433999997,,,,,524,20,Woman,Right,
,,,,,,,,,,,,,,,,,524,20,Woman,Right,3,67,0.15,2,180,0,0,0.7569835000003877,['y'],0.8869081000002552,1.3679999999999999,2184.8596748,,,,,524,20,Woman,Right,
,,,,,,,,,,,,,,,,,524,20,Woman,Right,3,24,0.4,1,0,-,0,0.5317313000000468,['n'],0.8316558000001351,1.6320000000000001,2188.6461533,,,,,524,20,Woman,Right,
,,,,,,,,,,,,,,,,,524,20,Woman,Right,3,72,0.15,1,0,-,0,1.7038164000000506,['n'],0.9434003000001212,1.416,2194.3692869999995,,,,,524,20,Woman,Right,
,,,,,,,,,,,,,,,,,524,20,Woman,Right,3,0,1,1,0,-,0,0.27846069999986867,['n'],0.9512288000000808,2.0,2199.1407701999997,,,,,524,20,Woman,Right,
,,,,,,,,,,,,,,,,,524,20,Woman,Right,3,45,0.15,2,0,180,180,0.8906870999999228,['n'],0.7997377000001507,2.0,2203.3610666000004,,,,,524,20,Woman,Right,
,,,,,,,,,,,,,,,,,524,20,Woman,Right,3,57,0.15,2,0,180,180,0.9731469000003017,['n'],2.904356800000187,2.0,2209.8340024999998,,,,,524,20,Woman,Right,
,,,,,,,,,,,,,,,,,524,20,Woman,Right,3,25,0.4,2,0,180,180,0.5984346000000187,['y'],0.831230400000095,2.0,2214.1223125999995,,,,,524,20,Woman,Right,
,,,,,,,,,,,,,,,,,524,20,Woman,Right,3,11,0.4,2,180,0,0,0.5743084999999155,['n'],0.9750435999999354,1.5859999999999999,2218.2089041,,,,,524,20,Woman,Right,
,,,,,,,,,,,,,,,,,524,20,Woman,Right,3,17,0.4,2,0,180,180,0.31032760000016424,['y'],0.8798880999997891,2.0,2222.0795644,,,,,524,20,Woman,Right,
,,,,,,,,,,,,,,,,,524,20,Woman,Right,3,4,1,1,0,-,0,0.5363906999996289,['n'],0.9995302000002084,2.0,2222.0795644,,,,,524,20,Woman,Right,
,,,,,,,,,,,,,,,,,524,20,Woman,Right,3,62,0.15,1,180,-,180,0.7990700999998808,['n'],1.3196019000001797,1.396,2230.8721968,,,,,524,20,Woman,Right,
,,,,,,,,,,,,,,,,,524,20,Woman,Right,3,20,0.4,1,0,-,0,1.9422074000003704,['n'],0.8391419999998107,1.842,2236.7785157999997,,,,,524,20,Woman,Right,
,,,,,,,,,,,,,,,,,524,20,Woman,Right,3,55,0.15,2,180,0,0,0.43622940000022936,['y'],0.8236928999999691,2.0,2241.2157042,,,,,524,20,Woman,Right,
,,,,,,,,,,,,,,,,,524,20,Woman,Right,3,34,0.4,1,180,-,180,1.2288298000003124,['n'],0.879823899999792,1.408,2246.9040996000003,,,,,524,20,Woman,Right,
,,,,,,,,,,,,,,,,,524,20,Woman,Right,3,66,0.15,1,180,-,0,3.7683265999999094,['y'],0.9597862000000532,1.072,2254.362284,,,,,524,20,Woman,Right,
,,,,,,,,,,,,,,,,,524,20,Woman,Right,3,64,0.15,1,0,-,180,0.40105620000031195,['y'],0.8389959000000999,1.68,2258.3157094,,,,,524,20,Woman,Right,
,,,,,,,,,,,,,,,,,524,20,Woman,Right,3,9,0.4,2,0,180,180,0.2423580999998194,['y'],0.9514153000000078,2.0,2262.6364084999996,,,,,524,20,Woman,Right,
,,,,,,,,,,,,,,,,,524,20,Woman,Right,3,2,1,1,180,-,180,0.39738089999991644,['n'],0.8554395999999542,2.0,2266.9575881,,,,,524,20,Woman,Right,
,,,,,,,,,,,,,,,,,524,20,Woman,Right,3,46,0.15,1,180,-,0,0.7054293000001053,['y'],0.8394771000002947,1.5979999999999999,2271.5120080999995,,,,,524,20,Woman,Right,
,,,,,,,,,,,,,,,,,524,20,Woman,Right,3,37,0.4,2,0,180,180,0.40629530000023806,['y'],2.992381000000023,2.0,2277.5347184,,,,,524,20,Woman,Right,
,,,,,,,,,,,,,,,,,524,20,Woman,Right,3,44,0.15,1,0,-,180,3.03381249999984,['y'],1.7992478000001029,1.138,2285.4099656,,,,,524,20,Woman,Right,
,,,,,,,,,,,,,,,,,524,20,Woman,Right,4,16,0.4,1,0,-,0,0.6143558000003395,['n'],0.9117667000000438,2.0,2292.9005115,82.5,75.0,85.0,,524,20,Woman,Right,
,,,,,,,,,,,,,,,,,524,20,Woman,Right,4,39,0.4,2,180,0,0,0.3335065000001123,['y'],0.89559220000001,2.0,2296.6369905,,,,,524,20,Woman,Right,
,,,,,,,,,,,,,,,,,524,20,Woman,Right,4,50,0.15,1,180,-,180,2.1342601000001196,['n'],1.1908053000001928,1.146,2303.0266543,,,,,524,20,Woman,Right,
,,,,,,,,,,,,,,,,,524,20,Woman,Right,4,2,1,1,180,-,180,0.53992130000006,['n'],3.0231269999999313,2.0,2309.1327701,,,,,524,20,Woman,Right,
,,,,,,,,,,,,,,,,,524,20,Woman,Right,4,18,0.4,1,180,-,0,0.516631899999993,['y'],1.0156771000001754,1.8439999999999999,2313.5379554,,,,,524,20,Woman,Right,
,,,,,,,,,,,,,,,,,524,20,Woman,Right,4,46,0.15,1,180,-,180,0.5998295999997936,['n'],0.9678589000000102,1.9060000000000001,2317.6579564000003,,,,,524,20,Woman,Right,
,,,,,,,,,,,,,,,,,524,20,Woman,Right,4,41,0.4,2,0,180,180,0.19920890000003055,['y'],1.0312877999999728,2.0,2321.5955008,,,,,524,20,Woman,Right,
,,,,,,,,,,,,,,,,,524,20,Woman,Right,4,70,0.15,1,180,-,0,0.6841964999998709,['y'],0.9133898999998564,1.8940000000000001,2325.7831122999996,,,,,524,20,Woman,Right,
,,,,,,,,,,,,,,,,,524,20,Woman,Right,4,31,0.4,2,180,0,0,1.4819877000004453,['y'],0.8793699000002562,2.0,2331.1546547999997,,,,,524,20,Woman,Right,
,,,,,,,,,,,,,,,,,524,20,Woman,Right,4,36,0.4,1,0,-,180,2.7516584999998486,['y'],1.3838190000001305,1.054,2338.1783156,,,,,524,20,Woman,Right,
,,,,,,,,,,,,,,,,,524,20,Woman,Right,4,13,0.4,2,0,180,180,0.18015220000006593,['y'],1.1119628999999804,2.0,2342.4659475999997,,,,,524,20,Woman,Right,
,,,,,,,,,,,,,,,,,524,20,Woman,Right,4,37,0.4,2,0,180,180,2.055395200000021,['y'],1.0397324999999,1.188,2348.5054259999997,,,,,524,20,Woman,Right,
,,,,,,,,,,,,,,,,,524,20,Woman,Right,4,25,0.4,2,0,180,180,0.13964820000001055,['y'],1.223801199999798,2.0,2352.9263573999997,,,,,524,20,Woman,Right,
,,,,,,,,,,,,,,,,,524,20,Woman,Right,4,5,1,2,0,180,180,0.2430751000001692,['y'],1.0152180000000044,2.0,2352.9263573999997,,,,,524,20,Woman,Right,
,,,,,,,,,,,,,,,,,524,20,Woman,Right,4,22,0.4,1,180,-,180,0.6466470999998819,['n'],0.8314269000002241,1.6219999999999999,2361.0187075000003,,,,,524,20,Woman,Right,
,,,,,,,,,,,,,,,,,524,20,Woman,Right,4,67,0.15,2,180,0,0,0.24172340000041004,['n'],1.9037742999998954,2.0,2366.0902391,,,,,524,20,Woman,Right,
,,,,,,,,,,,,,,,,,524,20,Woman,Right,4,33,0.4,2,0,180,180,0.3660891999998057,['y'],0.9112364999996316,2.0,2370.1936189,,,,,524,20,Woman,Right,
,,,,,,,,,,,,,,,,,524,20,Woman,Right,4,24,0.4,1,0,-,0,2.3672537999996166,['n'],0.9915410000003249,1.04,2376.2836660000003,,,,,524,20,Woman,Right,
,,,,,,,,,,,,,,,,,524,20,Woman,Right,4,15,0.4,2,180,0,0,0.1380842000003213,['y'],0.8870986000001722,2.0,2380.0708907,,,,,524,20,Woman,Right,
,,,,,,,,,,,,,,,,,524,20,Woman,Right,4,71,0.15,2,180,0,0,0.13836049999963507,['y'],1.9593684999999823,1.94,2384.7580930000004,,,,,524,20,Woman,Right,
,,,,,,,,,,,,,,,,,524,20,Woman,Right,4,1,1,2,0,180,180,0.12661329999991722,['y'],1.1915678000000298,1.94,2384.7580930000004,,,,,524,20,Woman,Right,
,,,,,,,,,,,,,,,,,524,20,Woman,Right,4,79,0.15,2,180,0,180,0.5957413999999517,['n'],1.143373700000211,1.76,2392.8001021,,,,,524,20,Woman,Right,
,,,,,,,,,,,,,,,,,524,20,Woman,Right,4,52,0.15,1,0,-,0,1.7764594999998735,['n'],1.5192308999999113,1.0,2398.8727556000003,,,,,524,20,Woman,Right,
,,,,,,,,,,,,,,,,,524,20,Woman,Right,4,11,0.4,2,180,0,0,0.26956319999999323,['y'],0.8955080999999154,1.0,2398.8727556000003,,,,,524,20,Woman,Right,
,,,,,,,,,,,,,,,,,524,20,Woman,Right,4,59,0.15,2,180,0,0,0.48294239999995625,['y'],0.8558448999997381,1.662,2406.8808445000004,,,,,524,20,Woman,Right,
,,,,,,,,,,,,,,,,,524,20,Woman,Right,4,6,1,1,180,-,180,0.528472999999849,['n'],1.1272224000003916,2.0,2411.3012927,,,,,524,20,Woman,Right,
,,,,,,,,,,,,,,,,,524,20,Woman,Right,4,73,0.15,2,0,180,0,0.8923365000000558,['n'],0.992175099999713,1.374,2416.3730944,,,,,524,20,Woman,Right,
,,,,,,,,,,,,,,,,,524,20,Woman,Right,4,30,0.4,1,180,-,180,0.7318269000002147,['n'],1.0074641999999585,2.0,2420.7773338999996,,,,,524,20,Woman,Right,
,,,,,,,,,,,,,,,,,524,20,Woman,Right,4,58,0.15,1,180,-,0,2.894016499999907,['y'],1.0958237999998346,1.376,2427.9677505,,,,,524,20,Woman,Right,
,,,,,,,,,,,,,,,,,524,20,Woman,Right,4,54,0.15,1,180,-,180,0.3506708999998409,['n'],1.2389529000001858,2.0,2432.1887539,,,,,524,20,Woman,Right,
,,,,,,,,,,,,,,,,,524,20,Woman,Right,4,40,0.4,1,0,-,0,0.6005998999999065,['n'],0.9434902999996666,2.0,2436.5437776,,,,,524,20,Woman,Right,
,,,,,,,,,,,,,,,,,524,20,Woman,Right,4,34,0.4,1,180,-,180,0.45653870000023744,['n'],0.983929800000169,2.0,2436.5437776,,,,,524,20,Woman,Right,
,,,,,,,,,,,,,,,,,524,20,Woman,Right,4,29,0.4,2,0,180,180,0.48211700000001656,['y'],0.8312426999996205,2.0,2444.7178882999997,,,,,524,20,Woman,Right,
,,,,,,,,,,,,,,,,,524,20,Woman,Right,4,51,0.15,2,180,0,0,0.5793227999997725,['y'],1.1200223999999253,1.792,2448.9890799000004,,,,,524,20,Woman,Right,
,,,,,,,,,,,,,,,,,524,20,Woman,Right,4,38,0.4,1,180,-,180,1.251198199999635,['n'],0.98351619999994,1.432,2454.5776060999997,,,,,524,20,Woman,Right,
,,,,,,,,,,,,,,,,,524,20,Woman,Right,4,14,0.4,1,180,-,180,1.1913736999999855,['n'],1.3835165000000416,1.3559999999999999,2459.9662129999997,,,,,524,20,Woman,Right,
,,,,,,,,,,,,,,,,,524,20,Woman,Right,4,19,0.4,2,180,0,0,0.41555949999974473,['y'],0.9674251999999797,2.0,2464.3050272,,,,,524,20,Woman,Right,
,,,,,,,,,,,,,,,,,524,20,Woman,Right,4,12,0.4,1,0,-,0,0.729244799999833,['y'],1.2557114999999612,1.566,2469.2095998000004,,,,,524,20,Woman,Right,
,,,,,,,,,,,,,,,,,524,20,Woman,Right,4,4,1,1,0,-,0,0.3734805999993114,['n'],1.247270099999696,1.566,2469.2095998000004,,,,,524,20,Woman,Right,
,,,,,,,,,,,,,,,,,524,20,Woman,Right,4,9,0.4,2,0,180,180,0.5239779999992606,['y'],0.9195265000007566,2.0,2478.467998,,,,,524,20,Woman,Right,
,,,,,,,,,,,,,,,,,524,20,Woman,Right,4,63,0.15,2,180,0,0,0.6752905000003011,['n'],1.1114178999996511,1.742,2483.1903896000003,,,,,524,20,Woman,Right,
,,,,,,,,,,,,,,,,,524,20,Woman,Right,4,49,0.15,2,0,180,180,0.7304810999994515,['y'],0.9112561000001733,1.94,2487.6272022000003,,,,,524,20,Woman,Right,
,,,,,,,,,,,,,,,,,524,20,Woman,Right,4,26,0.4,1,180,-,180,0.8114367000007405,['n'],1.127778699999908,1.288,2492.1650216,,,,,524,20,Woman,Right,
,,,,,,,,,,,,,,,,,524,20,Woman,Right,4,68,0.15,1,0,-,0,0.5207500999995318,['n'],1.0234826999994766,1.87,2496.8529749,,,,,524,20,Woman,Right,
,,,,,,,,,,,,,,,,,524,20,Woman,Right,4,28,0.4,1,0,-,0,0.5210580000002665,['n'],0.9834604000006948,1.938,2500.9737506,,,,,524,20,Woman,Right,
,,,,,,,,,,,,,,,,,524,20,Woman,Right,4,3,1,2,180,0,0,0.31932469999992463,['y'],0.9111160000002201,1.938,2500.9737506,,,,,524,20,Woman,Right,
,,,,,,,,,,,,,,,,,524,20,Woman,Right,4,66,0.15,1,180,-,180,0.7010730000001786,['n'],1.6290644000000611,1.392,2509.849999,,,,,524,20,Woman,Right,
,,,,,,,,,,,,,,,,,524,20,Woman,Right,4,55,0.15,2,180,0,0,0.5156581000001097,['y'],0.9676870999992389,1.558,2514.3212510000003,,,,,524,20,Woman,Right,
,,,,,,,,,,,,,,,,,524,20,Woman,Right,4,43,0.4,2,180,0,0,0.269808699999885,['y'],0.863886499999353,2.0,2518.0916873000006,,,,,524,20,Woman,Right,
,,,,,,,,,,,,,,,,,524,20,Woman,Right,4,17,0.4,2,0,180,180,3.697585099999742,['y'],2.167768299999807,1.992,2528.2515739,,,,,524,20,Woman,Right,
,,,,,,,,,,,,,,,,,524,20,Woman,Right,4,23,0.4,2,180,0,0,0.25791579999986425,['y'],1.0714439999992464,1.99,2531.9379856000005,,,,,524,20,Woman,Right,
,,,,,,,,,,,,,,,,,524,20,Woman,Right,4,65,0.15,2,0,180,180,0.5566851000003226,['y'],1.0395888999992167,1.794,2535.9085306000006,,,,,524,20,Woman,Right,
,,,,,,,,,,,,,,,,,524,20,Woman,Right,4,76,0.15,1,0,-,180,0.6837074000004577,['n'],0.9755298999998558,2.0,2540.0460239000004,,,,,524,20,Woman,Right,
,,,,,,,,,,,,,,,,,524,20,Woman,Right,4,21,0.4,2,0,180,180,0.2313570999995136,['y'],2.191711899999973,2.0,2545.5014574000006,,,,,524,20,Woman,Right,
,,,,,,,,,,,,,,,,,524,20,Woman,Right,4,20,0.4,1,0,-,0,0.6518188999998529,['n'],0.9990367999998853,1.662,2549.6557577000003,,,,,524,20,Woman,Right,
,,,,,,,,,,,,,,,,,524,20,Woman,Right,4,62,0.15,1,180,-,180,1.1618824999995923,['n'],1.111258199999611,1.218,2554.1444307,,,,,524,20,Woman,Right,
,,,,,,,,,,,,,,,,,524,20,Woman,Right,4,35,0.4,2,180,0,0,0.2323578000005,['y'],0.8553945000003296,2.0,2558.1313251,,,,,524,20,Woman,Right,
,,,,,,,,,,,,,,,,,524,20,Woman,Right,4,56,0.15,1,0,-,180,0.5178931999998895,['n'],0.999160600000323,1.198,2562.5524549,,,,,524,20,Woman,Right,
,,,,,,,,,,,,,,,,,524,20,Woman,Right,4,0,1,1,0,-,0,0.3674111999998786,['n'],0.9114435000001322,2.0,2566.4397459,,,,,524,20,Woman,Right,
,,,,,,,,,,,,,,,,,524,20,Woman,Right,4,27,0.4,2,180,0,0,0.3384845000000496,['y'],1.0472518000005948,2.0,2570.7099808000003,,,,,524,20,Woman,Right,
,,,,,,,,,,,,,,,,,524,20,Woman,Right,4,60,0.15,1,0,-,180,1.8275649000006524,['n'],1.727210200000627,1.338,2577.2663757,,,,,524,20,Woman,Right,
,,,,,,,,,,,,,,,,,524,20,Woman,Right,4,77,0.15,2,0,180,0,1.8833893999999418,['y'],1.2796613000000434,1.056,2583.1722733000006,,,,,524,20,Woman,Right,
,,,,,,,,,,,,,,,,,524,20,Woman,Right,4,48,0.15,1,0,-,0,3.179912100000365,['n'],1.1198115999995935,1.19,2590.5139567000006,,,,,524,20,Woman,Right,
,,,,,,,,,,,,,,,,,524,20,Woman,Right,4,69,0.15,2,0,180,180,0.38222810000024765,['y'],0.8714369999997871,1.884,2594.7009740000003,,,,,524,20,Woman,Right,
,,,,,,,,,,,,,,,,,524,20,Woman,Right,4,8,0.4,1,0,-,0,0.2591769000000568,['n'],1.0241494000001694,2.0,2598.6215781,,,,,524,20,Woman,Right,
,,,,,,,,,,,,,,,,,524,20,Woman,Right,4,72,0.15,1,0,-,180,1.5928345000002082,['n'],1.199549400000251,1.254,2604.4434429000003,,,,,524,20,Woman,Right,
,,,,,,,,,,,,,,,,,524,20,Woman,Right,4,74,0.15,1,180,-,180,0.8742018000002645,['n'],1.047491700000137,1.12,2608.8318066,,,,,524,20,Woman,Right,
,,,,,,,,,,,,,,,,,524,20,Woman,Right,4,7,1,2,180,0,0,0.31072450000010576,['y'],1.8394559999997,2.0,2613.6200913000002,,,,,524,20,Woman,Right,
,,,,,,,,,,,,,,,,,524,20,Woman,Right,4,61,0.15,2,0,180,180,1.8707039999999324,['y'],0.8635178000004089,1.042,2618.8916993000003,,,,,524,20,Woman,Right,
,,,,,,,,,,,,,,,,,524,20,Woman,Right,4,32,0.4,1,0,-,0,0.2082682999998724,['n'],0.9111751999998887,2.0,2622.8127890000005,,,,,524,20,Woman,Right,
,,,,,,,,,,,,,,,,,524,20,Woman,Right,4,10,0.4,1,180,-,180,1.1880222999998296,['n'],0.8873711999995066,1.686,2627.3163272,,,,,524,20,Woman,Right,
,,,,,,,,,,,,,,,,,524,20,Woman,Right,4,47,0.15,2,180,0,0,1.4515734999995402,['n'],2.063217399999303,1.108,2633.8569626,,,,,524,20,Woman,Right,
,,,,,,,,,,,,,,,,,524,20,Woman,Right,4,53,0.15,2,0,180,180,0.2716491999999562,['y'],0.8871928000007756,1.6440000000000001,2637.9434082,,,,,524,20,Woman,Right,
,,,,,,,,,,,,,,,,,524,20,Woman,Right,4,44,0.15,1,0,-,180,1.0829492000002574,['y'],0.9995015000004059,1.034,2642.6148343000004,,,,,524,20,Woman,Right,
,,,,,,,,,,,,,,,,,524,20,Woman,Right,4,45,0.15,2,0,180,180,2.293513599999642,['y'],1.4875340999997206,1.0,2649.3882715,,,,,524,20,Woman,Right,
,,,,,,,,,,,,,,,,,524,20,Woman,Right,4,75,0.15,2,180,0,0,4.73663900000065,['y'],2.543846100000337,1.166,2659.6992697000005,,,,,524,20,Woman,Right,
,,,,,,,,,,,,,,,,,524,20,Woman,Right,4,42,0.4,1,180,-,0,0.40416000000004715,['y'],0.8960199999992255,1.654,2663.9700966,,,,,524,20,Woman,Right,
,,,,,,,,,,,,,,,,,524,20,Woman,Right,4,57,0.15,2,0,180,180,0.2867227999995521,['n'],1.1671799000005194,1.234,2668.3405718000004,,,,,524,20,Woman,Right,
,,,,,,,,,,,,,,,,,524,20,Woman,Right,4,78,0.15,1,180,-,180,0.7275328999994599,['n'],0.8722321999994165,1.162,2672.5287633,,,,,524,20,Woman,Right,
,,,,,,,,,,,,,,,,,524,20,Woman,Right,4,64,0.15,1,0,-,0,0.3756268999995882,['n'],1.7191369000001941,1.182,2677.7003615000003,,,,,524,20,Woman,Right,
,,,,,,,,,,,,,,,,,524,20,Woman,Right,5,35,0.4,2,180,0,0,0.6502285999995365,['y'],1.0872976999999082,2.0,2694.0161332,83.75,82.5,85.0,,524,20,Woman,Right,
,,,,,,,,,,,,,,,,,524,20,Woman,Right,5,45,0.15,2,0,180,180,0.22396420000040962,['y'],0.7674716999999873,1.778,2697.9866026,,,,,524,20,Woman,Right,
,,,,,,,,,,,,,,,,,524,20,Woman,Right,5,22,0.4,1,180,-,180,0.8748956999997972,['n'],0.9915756999998848,1.3900000000000001,2702.6920662,,,,,524,20,Woman,Right,
,,,,,,,,,,,,,,,,,524,20,Woman,Right,5,13,0.4,2,0,180,180,0.22894540000015695,['y'],0.8398168000003352,2.0,2706.3625254,,,,,524,20,Woman,Right,
,,,,,,,,,,,,,,,,,524,20,Woman,Right,5,48,0.15,1,0,-,0,0.595808400000351,['n'],1.0959450999998808,1.43,2711.1997441000003,,,,,524,20,Woman,Right,
,,,,,,,,,,,,,,,,,524,20,Woman,Right,5,44,0.15,1,0,-,0,1.0566480999996202,['n'],0.9115857999995569,1.238,2715.7215768000005,,,,,524,20,Woman,Right,
,,,,,,,,,,,,,,,,,524,20,Woman,Right,5,9,0.4,2,0,180,180,0.15055889999985084,['y'],0.8152388999997129,1.794,2718.9576114,,,,,524,20,Woman,Right,
,,,,,,,,,,,,,,,,,524,20,Woman,Right,5,21,0.4,2,0,180,180,0.154313899999579,['y'],1.0160443999993731,1.8679999999999999,2722.8783987000006,,,,,524,20,Woman,Right,
,,,,,,,,,,,,,,,,,524,20,Woman,Right,5,56,0.15,1,0,-,0,0.7355154000006223,['n'],4.639282799999819,2.0,2730.9862537,,,,,524,20,Woman,Right,
,,,,,,,,,,,,,,,,,524,20,Woman,Right,5,65,0.15,2,0,180,0,0.8615425000007235,['n'],0.8396106999998665,1.204,2735.5413889,,,,,524,20,Woman,Right,
,,,,,,,,,,,,,,,,,524,20,Woman,Right,5,71,0.15,2,180,0,0,0.442783700000291,['y'],0.8312987999997858,1.588,2739.5781888,,,,,524,20,Woman,Right,
,,,,,,,,,,,,,,,,,524,20,Woman,Right,5,32,0.4,1,0,-,0,0.5580515000001469,['n'],1.1913924999998926,1.346,2743.8155401000004,,,,,524,20,Woman,Right,
,,,,,,,,,,,,,,,,,524,20,Woman,Right,5,60,0.15,1,0,-,180,0.3505903999994189,['y'],0.8234198000000106,1.546,2747.4532328000005,,,,,524,20,Woman,Right,
,,,,,,,,,,,,,,,,,524,20,Woman,Right,5,25,0.4,2,0,180,180,0.21659420000014507,['y'],0.8264374999998836,2.0,2750.9726672000006,,,,,524,20,Woman,Right,
,,,,,,,,,,,,,,,,,524,20,Woman,Right,5,74,0.15,1,180,-,180,2.165043500000138,['n'],1.5118358999998236,1.712,2757.4131802,,,,,524,20,Woman,Right,
,,,,,,,,,,,,,,,,,524,20,Woman,Right,5,1,1,2,0,180,180,0.12203049999970972,['y'],0.8714663000000655,2.0,2761.3338490000006,,,,,524,20,Woman,Right,
,,,,,,,,,,,,,,,,,524,20,Woman,Right,5,24,0.4,1,0,-,0,0.6680261999999857,['n'],0.9034916999999041,2.0,2766.0878626000003,,,,,524,20,Woman,Right,
,,,,,,,,,,,,,,,,,524,20,Woman,Right,5,40,0.4,1,0,-,0,0.7199503000001641,['n'],0.9589326000004803,2.0,2770.7431257,,,,,524,20,Woman,Right,
,,,,,,,,,,,,,,,,,524,20,Woman,Right,5,17,0.4,2,0,180,180,0.45710930000041117,['n'],1.5035759000002145,2.0,2775.6984485000003,,,,,524,20,Woman,Right,
,,,,,,,,,,,,,,,,,524,20,Woman,Right,5,6,1,1,180,-,180,0.33395000000018626,['n'],0.7518106999996235,2.0,2779.5511731000006,,,,,524,20,Woman,Right,
,,,,,,,,,,,,,,,,,524,20,Woman,Right,5,29,0.4,2,0,180,180,0.2719271999994817,['y'],0.8791872000001604,2.0,2779.5511731000006,,,,,524,20,Woman,Right,
,,,,,,,,,,,,,,,,,524,20,Woman,Right,5,7,1,2,180,0,0,0.21807210000042687,['y'],1.9512254000001121,2.0,2788.4768577000004,,,,,524,20,Woman,Right,
,,,,,,,,,,,,,,,,,524,20,Woman,Right,5,66,0.15,1,180,-,180,0.6610159000001659,['n'],0.7672615999999834,1.6320000000000001,2792.4140682000007,,,,,524,20,Woman,Right,
,,,,,,,,,,,,,,,,,524,20,Woman,Right,5,20,0.4,1,0,-,0,0.5379998000007618,['n'],0.9112622000002375,1.764,2796.4859348,,,,,524,20,Woman,Right,
,,,,,,,,,,,,,,,,,524,20,Woman,Right,5,61,0.15,2,0,180,180,1.0341480999995838,['n'],0.8641858999999386,1.342,2801.0401156,,,,,524,20,Woman,Right,
,,,,,,,,,,,,,,,,,524,20,Woman,Right,5,67,0.15,2,180,0,0,0.3052535999995598,['n'],1.3270111000001634,1.6019999999999999,2805.9609982,,,,,524,20,Woman,Right,
,,,,,,,,,,,,,,,,,524,20,Woman,Right,5,50,0.15,1,180,-,180,0.6278105000001233,['n'],0.7441272000005483,1.704,2809.8481405,,,,,524,20,Woman,Right,
,,,,,,,,,,,,,,,,,524,20,Woman,Right,5,78,0.15,1,180,-,180,0.5917098999998416,['n'],0.9431342999996559,1.286,2814.4032707000006,,,,,524,20,Woman,Right,
,,,,,,,,,,,,,,,,,524,20,Woman,Right,5,28,0.4,1,0,-,0,0.2462141000005431,['n'],0.8554783999998108,1.674,2818.1236404,,,,,524,20,Woman,Right,
,,,,,,,,,,,,,,,,,524,20,Woman,Right,5,53,0.15,2,0,180,180,0.4202486999993198,['n'],1.351365800000167,1.28,2822.2269891000005,,,,,524,20,Woman,Right,
,,,,,,,,,,,,,,,,,524,20,Woman,Right,5,47,0.15,2,180,0,180,2.0180224999994607,['n'],1.0314256999999998,1.326,2828.1003959,,,,,524,20,Woman,Right,
,,,,,,,,,,,,,,,,,524,20,Woman,Right,5,34,0.4,1,180,-,180,1.067974100000356,['n'],0.8397822999995697,1.854,2832.5207222999998,,,,,524,20,Woman,Right,
,,,,,,,,,,,,,,,,,524,20,Woman,Right,5,76,0.15,1,0,-,0,0.3676865999996153,['n'],0.7682034999997995,1.806,2836.1575435000004,,,,,524,20,Woman,Right,
,,,,,,,,,,,,,,,,,524,20,Woman,Right,5,49,0.15,2,0,180,180,0.308814899999561,['y'],0.775550000000294,2.0,2839.7618582000005,,,,,524,20,Woman,Right,
,,,,,,,,,,,,,,,,,524,20,Woman,Right,5,75,0.15,2,180,0,0,0.516335500000423,['n'],1.1514458999999988,1.85,2844.0152884999998,,,,,524,20,Woman,Right,
,,,,,,,,,,,,,,,,,524,20,Woman,Right,5,16,0.4,1,0,-,0,1.2164250999994692,['n'],0.8073272000001452,1.564,2849.6049713,,,,,524,20,Woman,Right,
,,,,,,,,,,,,,,,,,524,20,Woman,Right,5,63,0.15,2,180,0,0,0.2607034000002386,['y'],0.7268709999998464,1.93,2853.1095730000006,,,,,524,20,Woman,Right,
,,,,,,,,,,,,,,,,,524,20,Woman,Right,5,52,0.15,1,0,-,180,1.3623562000002494,['y'],0.8711969999994835,1.176,2858.1293134,,,,,524,20,Woman,Right,
,,,,,,,,,,,,,,,,,524,20,Woman,Right,5,19,0.4,2,180,0,0,0.41390640000008716,['y'],1.8471326999997473,2.0,2862.8507255000004,,,,,524,20,Woman,Right,
,,,,,,,,,,,,,,,,,524,20,Woman,Right,5,27,0.4,2,180,0,0,0.2455314000008002,['y'],0.7045670999996219,2.0,2866.6212110000006,,,,,524,20,Woman,Right,
,,,,,,,,,,,,,,,,,524,20,Woman,Right,5,54,0.15,1,180,-,180,0.6732781000000614,['n'],0.9272857999994812,1.376,2870.7587979,,,,,524,20,Woman,Right,
,,,,,,,,,,,,,,,,,524,20,Woman,Right,5,12,0.4,1,0,-,0,0.4560212999995201,['n'],0.8317022999999608,1.4,2874.5795135,,,,,524,20,Woman,Right,
,,,,,,,,,,,,,,,,,524,20,Woman,Right,5,36,0.4,1,0,-,0,1.2364285000003292,['n'],1.12775800000054,1.87,2879.4840159000005,,,,,524,20,Woman,Right,
,,,,,,,,,,,,,,,,,524,20,Woman,Right,5,11,0.4,2,180,0,0,0.18763790000048175,['y'],0.8157456000008096,1.96,2883.1211062,,,,,524,20,Woman,Right,
,,,,,,,,,,,,,,,,,524,20,Woman,Right,5,68,0.15,1,0,-,0,2.799377600000298,['n'],1.0795792999997502,1.276,2889.6942714000006,,,,,524,20,Woman,Right,
,,,,,,,,,,,,,,,,,524,20,Woman,Right,5,79,0.15,2,180,0,0,0.41083530000014434,['y'],0.6632552999999461,1.84,2892.9978716000005,,,,,524,20,Woman,Right,
,,,,,,,,,,,,,,,,,524,20,Woman,Right,5,77,0.15,2,0,180,180,1.1202899999998408,['y'],1.0556986999999936,1.3780000000000001,2898.6697975000006,,,,,524,20,Woman,Right,
,,,,,,,,,,,,,,,,,524,20,Woman,Right,5,14,0.4,1,180,-,180,0.9896048000000519,['n'],0.872052600000643,1.4140000000000001,2903.3581359,,,,,524,20,Woman,Right,
,,,,,,,,,,,,,,,,,524,20,Woman,Right,5,10,0.4,1,180,-,180,0.585753599999407,['n'],0.8399703000004592,1.8980000000000001,2907.7454176,,,,,524,20,Woman,Right,
,,,,,,,,,,,,,,,,,524,20,Woman,Right,5,31,0.4,2,180,0,0,0.4786799000003157,['y'],0.8314376999996966,2.0,2911.6835746000006,,,,,524,20,Woman,Right,
,,,,,,,,,,,,,,,,,524,20,Woman,Right,5,43,0.4,2,180,0,0,0.19706940000014583,['y'],0.751893999999993,2.0,2915.3530834000003,,,,,524,20,Woman,Right,
,,,,,,,,,,,,,,,,,524,20,Woman,Right,5,2,1,1,180,-,180,0.3928954999992129,['n'],1.7277439999998023,2.0,2920.1580458,,,,,524,20,Woman,Right,
,,,,,,,,,,,,,,,,,524,20,Woman,Right,5,37,0.4,2,0,180,180,0.2818355999997948,['y'],2.559724300000198,2.0,2925.6967035,,,,,524,20,Woman,Right,
,,,,,,,,,,,,,,,,,524,20,Woman,Right,5,3,1,2,180,0,0,0.13394779999998718,['y'],0.7060375999999451,2.0,2929.1501573000005,,,,,524,20,Woman,Right,
,,,,,,,,,,,,,,,,,524,20,Woman,Right,5,70,0.15,1,180,-,0,1.5544089000004533,['n'],0.8319269999992684,1.3599999999999999,2934.0384015,,,,,524,20,Woman,Right,
,,,,,,,,,,,,,,,,,524,20,Woman,Right,5,5,1,2,0,180,180,0.22516470000027766,['y'],1.151949400000376,2.0,2937.9093956000006,,,,,524,20,Woman,Right,
,,,,,,,,,,,,,,,,,524,20,Woman,Right,5,8,0.4,1,0,-,0,0.4688890999996147,['n'],0.8473534000004292,1.6400000000000001,2941.5634565,,,,,524,20,Woman,Right,
,,,,,,,,,,,,,,,,,524,20,Woman,Right,5,42,0.4,1,180,-,180,0.6619689999997718,['n'],0.766736900000069,1.3900000000000001,2945.4663084000003,,,,,524,20,Woman,Right,
,,,,,,,,,,,,,,,,,524,20,Woman,Right,5,51,0.15,2,180,0,0,3.5986489999995683,['y'],0.959811499999887,1.4140000000000001,2953.1747805000005,,,,,524,20,Woman,Right,
,,,,,,,,,,,,,,,,,524,20,Woman,Right,5,4,1,1,0,-,0,0.28125549999913346,['n'],1.0470407000002524,1.93,2957.4125568,,,,,524,20,Woman,Right,
,,,,,,,,,,,,,,,,,524,20,Woman,Right,5,18,0.4,1,180,-,180,1.8620984999997745,['n'],1.128023100000064,1.3479999999999999,2963.1848375,,,,,524,20,Woman,Right,
,,,,,,,,,,,,,,,,,524,20,Woman,Right,5,64,0.15,1,0,-,0,0.48061739999957354,['n'],0.8074050999994142,1.624,2967.0713137000002,,,,,524,20,Woman,Right,
,,,,,,,,,,,,,,,,,524,20,Woman,Right,5,59,0.15,2,180,0,0,2.6709093999998004,['n'],0.5990262000004805,1.1099999999999999,2973.9787043000006,,,,,524,20,Woman,Right,
,,,,,,,,,,,,,,,,,524,20,Woman,Right,5,15,0.4,2,180,0,0,0.22881299999971816,['y'],0.9751390999999785,1.924,2977.6317123,,,,,524,20,Woman,Right,
,,,,,,,,,,,,,,,,,524,20,Woman,Right,5,55,0.15,2,180,0,0,0.3763386000000537,['y'],1.5041082999996434,1.3780000000000001,2982.1529497,,,,,524,20,Woman,Right,
,,,,,,,,,,,,,,,,,524,20,Woman,Right,5,57,0.15,2,0,180,180,1.294286800000009,['y'],1.1595107999992251,1.354,2987.1415907,,,,,524,20,Woman,Right,
,,,,,,,,,,,,,,,,,524,20,Woman,Right,5,62,0.15,1,180,-,0,2.2181738999997833,['y'],2.405422300000282,1.4100000000000001,2994.4817924999998,,,,,524,20,Woman,Right,
,,,,,,,,,,,,,,,,,524,20,Woman,Right,5,23,0.4,2,180,0,0,0.35026100000050064,['y'],0.8637937000003149,2.0,2997.985364,,,,,524,20,Woman,Right,
,,,,,,,,,,,,,,,,,524,20,Woman,Right,5,73,0.15,2,0,180,180,0.7740132999997513,['y'],0.7433184000001347,1.716,3002.2562399,,,,,524,20,Woman,Right,
,,,,,,,,,,,,,,,,,524,20,Woman,Right,5,46,0.15,1,180,-,180,2.3280899000001227,['y'],1.0796637000003102,1.146,3008.6296337000003,,,,,524,20,Woman,Right,
,,,,,,,,,,,,,,,,,524,20,Woman,Right,5,41,0.4,2,0,180,180,0.3008936000005633,['y'],0.7834038000000874,2.0,3012.1996443,,,,,524,20,Woman,Right,
,,,,,,,,,,,,,,,,,524,20,Woman,Right,5,38,0.4,1,180,-,0,0.2868617999993148,['y'],0.9121505000002799,1.76,3016.3536418000003,,,,,524,20,Woman,Right,
,,,,,,,,,,,,,,,,,524,20,Woman,Right,5,0,1,1,0,-,0,2.9589820999999574,['n'],3.15974819999974,1.922,3025.5464261000006,,,,,524,20,Woman,Right,
,,,,,,,,,,,,,,,,,524,20,Woman,Right,5,33,0.4,2,0,180,180,0.1257699000007051,['y'],0.815688699999555,1.956,3028.8660022000004,,,,,524,20,Woman,Right,
,,,,,,,,,,,,,,,,,524,20,Woman,Right,5,72,0.15,1,0,-,180,0.8163649000007354,['n'],0.8474385999998049,1.33,3033.2874586,,,,,524,20,Woman,Right,
,,,,,,,,,,,,,,,,,524,20,Woman,Right,5,39,0.4,2,180,0,0,0.2314472999996724,['y'],1.3595801999999821,1.8519999999999999,3037.3410991,,,,,524,20,Woman,Right,
,,,,,,,,,,,,,,,,,524,20,Woman,Right,5,26,0.4,1,180,-,0,1.3506545999998707,['y'],0.8797440000007555,1.104,3042.2795965000005,,,,,524,20,Woman,Right,
,,,,,,,,,,,,,,,,,524,20,Woman,Right,5,30,0.4,1,180,-,180,0.9140492000005906,['n'],0.8317929000004369,1.28,3046.5505837,,,,,524,20,Woman,Right,
,,,,,,,,,,,,,,,,,524,20,Woman,Right,5,58,0.15,1,180,-,180,0.35064670000065234,['y'],0.8419530000001032,1.71,3050.5879030000006,,,,,524,20,Woman,Right,
,,,,,,,,,,,,,,,,,524,20,Woman,Right,5,69,0.15,2,0,180,180,0.5969934000004287,['y'],1.2077060000001438,1.31,3054.8753952000006,,,,,524,20,Woman,Right,
,,,,,,,,,,,,,,,,,,,,,,,,,,,,,,,,,88.75,82.5,80.0,2690.1337728999997,,,,,
