p_block,p_section,p_coherence,p_direction1,p_direction2,p_direction_response,p_direction_RT,p_change_response,p_change_RT,p_confidence,p_full_correct,p_without5_correct,p_full_total,p_without5_total,p_full_avg,p_witout5_avg,p_total_time,sub,age,sex,handedness,loop,trial randomization,coherence,condition,direction1,direction2,direction_response,direction_RT,change_response,change_RT,change_confidence,change_confidence_RT,block_direction_avg,block_stable_avg,block_change_avg,total_time,sub,age,sex,handedness,
1,1,1.0,180,-,180,2.4747004999999263,-,-,-,,,,,,,,532,19,Woman,Right,,,,,,,,,,,,,,,,,532,19,Woman,Right,
1,1,1.0,180,-,180,0.016525200000160112,-,-,-,,,,,,,,532,19,Woman,Right,,,,,,,,,,,,,,,,,532,19,Woman,Right,
1,1,1.0,180,-,180,2.1326254000000517,-,-,-,,,,,,,,532,19,Woman,Right,,,,,,,,,,,,,,,,,532,19,Woman,Right,
1,1,1.0,0,-,0,0.01645250000001397,-,-,-,,,,,,,,532,19,Woman,Right,,,,,,,,,,,,,,,,,532,19,Woman,Right,
1,1,1.0,180,-,180,1.7235175000000709,-,-,-,,,,,,,,532,19,Woman,Right,,,,,,,,,,,,,,,,,532,19,Woman,Right,
1,1,1.0,0,-,0,0.5934867999999369,-,-,-,,,,,,,,532,19,Woman,Right,,,,,,,,,,,,,,,,,532,19,Woman,Right,
1,1,1.0,180,-,180,0.3406007999999474,-,-,-,,,,,,,,532,19,Woman,Right,,,,,,,,,,,,,,,,,532,19,Woman,Right,
1,1,1.0,0,-,0,0.016632300000082978,-,-,-,,,,,,,,532,19,Woman,Right,,,,,,,,,,,,,,,,,532,19,Woman,Right,
1,1,1.0,0,-,0,0.0511429999999109,-,-,-,,,,,,,,532,19,Woman,Right,,,,,,,,,,,,,,,,,532,19,Woman,Right,
1,1,1.0,180,-,180,0.8432466000001568,-,-,-,10,10,10,10,1.0,1.0,,532,19,Woman,Right,,,,,,,,,,,,,,,,,532,19,Woman,Right,
2,1,0.15,0,-,180,1.1921465999998873,-,-,-,,,,,,,,532,19,Woman,Right,,,,,,,,,,,,,,,,,532,19,Woman,Right,
2,1,0.4,0,-,0,0.49750959999983024,-,-,-,,,,,,,,532,19,Woman,Right,,,,,,,,,,,,,,,,,532,19,Woman,Right,
2,1,0.15,180,-,180,0.9531314999999267,-,-,-,,,,,,,,532,19,Woman,Right,,,,,,,,,,,,,,,,,532,19,Woman,Right,
2,1,0.4,0,-,0,0.3322425999999723,-,-,-,,,,,,,,532,19,Woman,Right,,,,,,,,,,,,,,,,,532,19,Woman,Right,
2,1,0.15,0,-,180,0.22632510000016737,-,-,-,,,,,,,,532,19,Woman,Right,,,,,,,,,,,,,,,,,532,19,Woman,Right,
2,1,0.4,0,-,0,0.6034643999998934,-,-,-,,,,,,,,532,19,Woman,Right,,,,,,,,,,,,,,,,,532,19,Woman,Right,
2,1,0.4,0,-,0,0.7172714999999243,-,-,-,,,,,,,,532,19,Woman,Right,,,,,,,,,,,,,,,,,532,19,Woman,Right,
2,1,0.15,180,-,180,0.8104974999998831,-,-,-,,,,,,,,532,19,Woman,Right,,,,,,,,,,,,,,,,,532,19,Woman,Right,
2,1,0.4,180,-,180,0.36522579999996196,-,-,-,,,,,,,,532,19,Woman,Right,,,,,,,,,,,,,,,,,532,19,Woman,Right,
2,1,0.4,0,-,0,0.2011417999999594,-,-,-,8,6,10,6,0.8,1.0,,532,19,Woman,Right,,,,,,,,,,,,,,,,,532,19,Woman,Right,
3,2,1.0,180,0,180,4.200513199999932,['y'],7.442023900000095,2.0,,,,,,,,532,19,Woman,Right,,,,,,,,,,,,,,,,,532,19,Woman,Right,
3,2,1.0,0,180,0,5.515274099999942,['y'],3.0642801999999847,2.0,,,,,,,,532,19,Woman,Right,,,,,,,,,,,,,,,,,532,19,Woman,Right,
3,2,1.0,180,0,0,2.2871939999999995,['y'],3.0318316000000323,2.0,,,,,,,,532,19,Woman,Right,,,,,,,,,,,,,,,,,532,19,Woman,Right,
3,2,1.0,180,0,0,2.1504569999999603,['y'],1.0088654000001043,1.984,,,,,,,,532,19,Woman,Right,,,,,,,,,,,,,,,,,532,19,Woman,Right,
3,2,1.0,180,0,0,3.569772499999999,['y'],4.738543499999878,2.0,,,,,,,,532,19,Woman,Right,,,,,,,,,,,,,,,,,532,19,Woman,Right,
3,2,1.0,0,180,180,1.5919008000000758,['y'],1.2094483999999284,2.0,,,,,,,,532,19,Woman,Right,,,,,,,,,,,,,,,,,532,19,Woman,Right,
3,2,1.0,180,0,0,1.4504521999999724,['y'],0.8819553999999243,1.996,,,,,,,,532,19,Woman,Right,,,,,,,,,,,,,,,,,532,19,Woman,Right,
3,2,1.0,180,0,0,1.7050430000001597,['y'],1.1455711999999494,1.994,,,,,,,,532,19,Woman,Right,,,,,,,,,,,,,,,,,532,19,Woman,Right,
3,2,1.0,0,180,180,1.0302732000000105,['y'],1.0987847000001238,1.99,,,,,,,,532,19,Woman,Right,,,,,,,,,,,,,,,,,532,19,Woman,Right,
3,2,1.0,180,0,0,1.0109753000001547,['y'],0.5842345000000932,1.99,8,8,10,10,0.8,0.8,,532,19,Woman,Right,,,,,,,,,,,,,,,,,532,19,Woman,Right,
4,2,0.4,180,0,180,2.194595000000163,['y'],2.7948189999999613,1.986,,,,,,,,532,19,Woman,Right,,,,,,,,,,,,,,,,,532,19,Woman,Right,
4,2,0.15,180,0,180,1.367364299999963,['n'],2.247601100000111,1.014,,,,,,,,532,19,Woman,Right,,,,,,,,,,,,,,,,,532,19,Woman,Right,
4,2,0.15,180,0,180,2.9908086000000367,['n'],2.0972872999998344,1.006,,,,,,,,532,19,Woman,Right,,,,,,,,,,,,,,,,,532,19,Woman,Right,
4,2,0.4,180,0,0,1.3395896000001812,['y'],1.7211261999998442,1.994,,,,,,,,532,19,Woman,Right,,,,,,,,,,,,,,,,,532,19,Woman,Right,
4,2,0.4,0,180,0,3.4213194999999814,['y'],1.3693458000000192,1.99,,,,,,,,532,19,Woman,Right,,,,,,,,,,,,,,,,,532,19,Woman,Right,
4,2,0.4,0,180,180,1.4006142999999156,['y'],3.871271500000148,1.998,,,,,,,,532,19,Woman,Right,,,,,,,,,,,,,,,,,532,19,Woman,Right,
4,2,0.4,180,0,0,0.8463387000001603,['y'],1.132161200000155,1.99,,,,,,,,532,19,Woman,Right,,,,,,,,,,,,,,,,,532,19,Woman,Right,
4,2,0.15,180,0,0,0.7854640000000472,['y'],1.2269513000001098,1.98,,,,,,,,532,19,Woman,Right,,,,,,,,,,,,,,,,,532,19,Woman,Right,
4,2,0.15,180,0,0,0.7047861999999441,['y'],2.1009411,1.994,,,,,,,,532,19,Woman,Right,,,,,,,,,,,,,,,,,532,19,Woman,Right,
4,2,0.15,180,0,0,1.143222200000082,['y'],3.245913400000063,1.992,,,,,,,,532,19,Woman,Right,,,,,,,,,,,,,,,,,532,19,Woman,Right,
4,2,0.15,0,180,0,0.5986497999999756,['y'],2.395143100000041,1.99,,,,,,,,532,19,Woman,Right,,,,,,,,,,,,,,,,,532,19,Woman,Right,
4,2,0.15,180,0,180,1.4037726000001385,['n'],0.4008939999998802,1.0,,,,,,,,532,19,Woman,Right,,,,,,,,,,,,,,,,,532,19,Woman,Right,
4,2,0.4,0,180,180,0.9781342999999652,['y'],1.9623208999998951,2.0,,,,,,,,532,19,Woman,Right,,,,,,,,,,,,,,,,,532,19,Woman,Right,
4,2,0.4,180,0,0,0.6837858999999753,['y'],1.1917636999999104,2.0,,,,,,,,532,19,Woman,Right,,,,,,,,,,,,,,,,,532,19,Woman,Right,
4,2,0.4,180,0,0,0.5383782999999767,['y'],1.1731265999999323,2.0,,,,,,,,532,19,Woman,Right,,,,,,,,,,,,,,,,,532,19,Woman,Right,
4,2,0.15,180,0,0,0.42854029999989507,['y'],0.9567382999998699,2.0,,,,,,,,532,19,Woman,Right,,,,,,,,,,,,,,,,,532,19,Woman,Right,
4,2,0.4,0,180,180,0.5198151999998117,['y'],0.7487469999998666,2.0,,,,,,,,532,19,Woman,Right,,,,,,,,,,,,,,,,,532,19,Woman,Right,
4,2,0.4,0,180,180,0.5659614999999576,['y'],0.7214568000001691,2.0,,,,,,,,532,19,Woman,Right,,,,,,,,,,,,,,,,,532,19,Woman,Right,
4,2,0.4,180,0,0,0.9485512999999628,['y'],0.8186733999998523,2.0,,,,,,,,532,19,Woman,Right,,,,,,,,,,,,,,,,,532,19,Woman,Right,
4,2,0.4,180,0,0,0.3471907000000556,['y'],0.7878739000000223,2.0,8,7,10,7,0.8,1.0,,532,19,Woman,Right,,,,,,,,,,,,,,,,,532,19,Woman,Right,
5,3,0.15,0,180,180,1.2005126999999902,['n'],0.7184105999999701,1.01,,,,,,,,532,19,Woman,Right,,,,,,,,,,,,,,,,,532,19,Woman,Right,
5,3,0.4,0,180,180,0.7273484999998345,['y'],0.2778563999997914,2.0,,,,,,,,532,19,Woman,Right,,,,,,,,,,,,,,,,,532,19,Woman,Right,
5,3,0.15,0,180,0,0.7983785999999782,['y'],1.2976102000000083,1.99,,,,,,,,532,19,Woman,Right,,,,,,,,,,,,,,,,,532,19,Woman,Right,
5,3,1.0,0,-,180,0.5079180000000179,['y'],1.1170193000000381,1.008,,,,,,,,532,19,Woman,Right,,,,,,,,,,,,,,,,,532,19,Woman,Right,
5,3,1.0,180,0,0,0.5303664000002755,['y'],1.435213300000214,1.994,,,,,,,,532,19,Woman,Right,,,,,,,,,,,,,,,,,532,19,Woman,Right,
5,3,0.15,180,-,0,0.5545673999999963,['y'],0.7941485999999713,1.0,,,,,,,,532,19,Woman,Right,,,,,,,,,,,,,,,,,532,19,Woman,Right,
5,3,0.15,0,180,0,0.429761100000178,['y'],1.660592799999904,1.98,,,,,,,,532,19,Woman,Right,,,,,,,,,,,,,,,,,532,19,Woman,Right,
5,3,0.15,0,-,0,0.4436902000002192,['y'],0.2583227000000079,1.0,,,,,,,,532,19,Woman,Right,,,,,,,,,,,,,,,,,532,19,Woman,Right,
5,3,1.0,180,0,0,0.5222342000001845,['y'],0.9516071000002739,1.984,,,,,,,,532,19,Woman,Right,,,,,,,,,,,,,,,,,532,19,Woman,Right,
5,3,1.0,0,-,180,0.9080300999999054,['y'],1.2885418999999274,1.044,,,,,,,,532,19,Woman,Right,,,,,,,,,,,,,,,,,532,19,Woman,Right,
5,3,0.15,180,-,180,1.732291400000122,['n'],0.33781450000014956,2.0,,,,,,,,532,19,Woman,Right,,,,,,,,,,,,,,,,,532,19,Woman,Right,
5,3,0.4,0,180,180,0.7074873999999909,['y'],1.0040725999997449,2.0,,,,,,,,532,19,Woman,Right,,,,,,,,,,,,,,,,,532,19,Woman,Right,
5,3,0.15,180,0,180,0.8510836999998901,['y'],1.110500299999785,1.986,,,,,,,,532,19,Woman,Right,,,,,,,,,,,,,,,,,532,19,Woman,Right,
5,3,1.0,180,-,180,0.8553071000001182,['y'],2.9799870000001647,1.0,,,,,,,,532,19,Woman,Right,,,,,,,,,,,,,,,,,532,19,Woman,Right,
5,3,0.15,180,-,180,0.7281583000003593,['y'],1.1307584000001043,1.008,,,,,,,,532,19,Woman,Right,,,,,,,,,,,,,,,,,532,19,Woman,Right,
5,3,0.4,180,-,180,2.3823278999998365,['n'],0.28735790000018824,2.0,,,,,,,,532,19,Woman,Right,,,,,,,,,,,,,,,,,532,19,Woman,Right,
5,3,0.4,0,180,180,2.0020792999998775,['y'],0.3326812999998765,2.0,,,,,,,,532,19,Woman,Right,,,,,,,,,,,,,,,,,532,19,Woman,Right,
5,3,1.0,180,0,0,1.5022963999999774,['y'],0.3499352999997427,1.994,,,,,,,,532,19,Woman,Right,,,,,,,,,,,,,,,,,532,19,Woman,Right,
5,3,0.15,180,0,180,2.219725599999947,['n'],3.015547500000139,1.004,,,,,,,,532,19,Woman,Right,,,,,,,,,,,,,,,,,532,19,Woman,Right,
5,3,0.4,180,0,0,0.6274985000000015,['y'],0.22469439999986207,1.99,8,6,10,6,0.8,1.0,,532,19,Woman,Right,,,,,,,,,,,,,,,,,532,19,Woman,Right,
,,,,,,,,,,,,,,,,4.4000003072142135e-06,532,19,Woman,Right,,,,,,,,,,,,,,,,,532,19,Woman,Right,
,,,,,,,,,,,,,,,,,532,19,Woman,Right,0,24,0.4,1,0,-,180,1.766549699999814,['n'],5.322498300000007,1.444,568.3168006000001,,,,,532,19,Woman,Right,
,,,,,,,,,,,,,,,,,532,19,Woman,Right,0,72,0.15,1,0,-,180,2.68293470000026,['n'],5.212230300000101,1.238,580.0659104000001,,,,,532,19,Woman,Right,
,,,,,,,,,,,,,,,,,532,19,Woman,Right,0,30,0.4,1,180,-,0,2.5777890000003936,['n'],4.438050299999759,1.304,590.0992002000003,,,,,532,19,Woman,Right,
,,,,,,,,,,,,,,,,,532,19,Woman,Right,0,59,0.15,2,180,0,180,2.824774300000172,['n'],2.174630900000011,1.02,598.4328368000001,,,,,532,19,Woman,Right,
,,,,,,,,,,,,,,,,,532,19,Woman,Right,0,44,0.15,1,0,-,0,8.673502199999803,['y'],2.128751999999622,1.254,614.1157338000003,,,,,532,19,Woman,Right,
,,,,,,,,,,,,,,,,,532,19,Woman,Right,0,0,1,1,0,-,0,1.0857813000002352,['n'],3.91430790000004,1.162,623.2330159000003,,,,,532,19,Woman,Right,
,,,,,,,,,,,,,,,,,532,19,Woman,Right,0,20,0.4,1,0,-,180,2.211712499999976,['n'],0.923369300000104,1.0,630.2832028000003,,,,,532,19,Woman,Right,
,,,,,,,,,,,,,,,,,532,19,Woman,Right,0,48,0.15,1,0,-,180,0.5749590999998873,['n'],1.363455199999862,1.016,635.2167616000002,,,,,532,19,Woman,Right,
,,,,,,,,,,,,,,,,,532,19,Woman,Right,0,68,0.15,1,0,-,180,3.148866200000157,['n'],1.6766735000001063,1.0,642.7991870000001,,,,,532,19,Woman,Right,
,,,,,,,,,,,,,,,,,532,19,Woman,Right,0,57,0.15,2,0,180,180,1.2429004999999052,['n'],1.0532779999998638,1.048,647.8834096999999,,,,,532,19,Woman,Right,
,,,,,,,,,,,,,,,,,532,19,Woman,Right,0,18,0.4,1,180,-,180,1.9761908999998923,['n'],1.773633400000108,1.038,654.4831015,,,,,532,19,Woman,Right,
,,,,,,,,,,,,,,,,,532,19,Woman,Right,0,6,1,1,180,-,180,1.1875285000000986,['n'],0.8545865999999478,1.0,660.2665365000003,,,,,532,19,Woman,Right,
,,,,,,,,,,,,,,,,,532,19,Woman,Right,0,61,0.15,2,0,180,180,1.2651392000002488,['n'],1.167685899999924,1.0,665.4328736000002,,,,,532,19,Woman,Right,
,,,,,,,,,,,,,,,,,532,19,Woman,Right,0,47,0.15,2,180,0,180,1.9086159999997108,['n'],0.8807556000001568,1.038,670.9832101000002,,,,,532,19,Woman,Right,
,,,,,,,,,,,,,,,,,532,19,Woman,Right,0,21,0.4,2,0,180,180,1.2385975000001963,['n'],1.0415585000000647,1.05,675.8992280000002,,,,,532,19,Woman,Right,
,,,,,,,,,,,,,,,,,532,19,Woman,Right,0,27,0.4,2,180,0,0,2.0438758999998754,['y'],2.0575496999999814,1.308,683.7156474000003,,,,,532,19,Woman,Right,
,,,,,,,,,,,,,,,,,532,19,Woman,Right,0,39,0.4,2,180,0,180,1.8667513000000326,['n'],4.674973499999851,1.088,694.4825585000003,,,,,532,19,Woman,Right,
,,,,,,,,,,,,,,,,,532,19,Woman,Right,0,77,0.15,2,0,180,0,1.0496038000001136,['n'],0.8444162000000688,1.02,699.4167931000002,,,,,532,19,Woman,Right,
,,,,,,,,,,,,,,,,,532,19,Woman,Right,0,65,0.15,2,0,180,180,1.7927279000000453,['y'],1.9643295999999282,1.126,706.36645,,,,,532,19,Woman,Right,
,,,,,,,,,,,,,,,,,532,19,Woman,Right,0,7,1,2,180,0,0,1.3442932000002656,['y'],1.6377547000001869,1.774,713.0990012000002,,,,,532,19,Woman,Right,
,,,,,,,,,,,,,,,,,532,19,Woman,Right,0,41,0.4,2,0,180,180,1.773078500000338,['y'],1.1101840000001175,1.782,719.3156586,,,,,532,19,Woman,Right,
,,,,,,,,,,,,,,,,,532,19,Woman,Right,0,58,0.15,1,180,-,180,1.696876699999848,['n'],1.2552175999999236,1.196,726.0822992000003,,,,,532,19,Woman,Right,
,,,,,,,,,,,,,,,,,532,19,Woman,Right,0,64,0.15,1,0,-,0,1.1358084999997118,['y'],2.200313599999845,1.176,732.2830346000001,,,,,532,19,Woman,Right,
,,,,,,,,,,,,,,,,,532,19,Woman,Right,0,49,0.15,2,0,180,180,1.4102384999996502,['n'],0.880784500000118,1.1320000000000001,737.6490206000003,,,,,532,19,Woman,Right,
,,,,,,,,,,,,,,,,,532,19,Woman,Right,0,17,0.4,2,0,180,180,1.0968094999998357,['y'],4.3454210999998395,1.694,747.1831923,,,,,532,19,Woman,Right,
,,,,,,,,,,,,,,,,,532,19,Woman,Right,0,1,1,2,0,180,180,0.6612840999996479,['y'],0.7543534999999792,1.702,751.6164287000001,,,,,532,19,Woman,Right,
,,,,,,,,,,,,,,,,,532,19,Woman,Right,0,36,0.4,1,0,-,180,1.3312756000000263,['y'],0.7140594000002238,1.708,756.5668104000001,,,,,532,19,Woman,Right,
,,,,,,,,,,,,,,,,,532,19,Woman,Right,0,43,0.4,2,180,0,0,0.5257232999997541,['y'],0.9317169999999351,1.718,760.8658532,,,,,532,19,Woman,Right,
,,,,,,,,,,,,,,,,,532,19,Woman,Right,0,66,0.15,1,180,-,180,2.3763647000000674,['n'],1.516166500000054,1.318,769.1329244000003,,,,,532,19,Woman,Right,
,,,,,,,,,,,,,,,,,532,19,Woman,Right,0,38,0.4,1,180,-,180,1.8917673999999352,['y'],1.469746799999939,1.006,775.6831963,,,,,532,19,Woman,Right,
,,,,,,,,,,,,,,,,,532,19,Woman,Right,0,22,0.4,1,180,-,180,1.64430799999991,['n'],2.0784630999996807,1.008,782.1329897999999,,,,,532,19,Woman,Right,
,,,,,,,,,,,,,,,,,532,19,Woman,Right,0,40,0.4,1,0,-,0,0.7664502000002358,['y'],1.4953502999997,1.2,788.6821723000003,,,,,532,19,Woman,Right,
,,,,,,,,,,,,,,,,,532,19,Woman,Right,0,63,0.15,2,180,0,180,2.270629099999951,['y'],1.0555718000000525,1.1099999999999999,794.9663380000002,,,,,532,19,Woman,Right,
,,,,,,,,,,,,,,,,,532,19,Woman,Right,0,25,0.4,2,0,180,180,0.6603326999997989,['n'],1.4329662000000098,1.174,800.2654408000003,,,,,532,19,Woman,Right,
,,,,,,,,,,,,,,,,,532,19,Woman,Right,0,8,0.4,1,0,-,0,1.3883971000000201,['n'],1.6654297999998562,1.0,807.5988256999999,,,,,532,19,Woman,Right,
,,,,,,,,,,,,,,,,,532,19,Woman,Right,0,50,0.15,1,180,-,180,2.22850040000003,['y'],4.562014099999942,1.0,816.9158812999999,,,,,532,19,Woman,Right,
,,,,,,,,,,,,,,,,,532,19,Woman,Right,0,3,1,2,180,0,0,0.8831608999998934,['y'],1.6669272999997702,1.782,824.6320338999999,,,,,532,19,Woman,Right,
,,,,,,,,,,,,,,,,,532,19,Woman,Right,0,32,0.4,1,0,-,0,0.6333668000002035,['y'],0.8088032999999086,1.782,824.6320338999999,,,,,532,19,Woman,Right,
,,,,,,,,,,,,,,,,,532,19,Woman,Right,0,62,0.15,1,180,-,180,3.123192100000324,['y'],2.3405179000001226,1.224,838.2988700000001,,,,,532,19,Woman,Right,
,,,,,,,,,,,,,,,,,532,19,Woman,Right,0,42,0.4,1,180,-,0,1.4811360000003333,['y'],1.038412899999912,1.222,845.0987193999999,,,,,532,19,Woman,Right,
,,,,,,,,,,,,,,,,,532,19,Woman,Right,0,15,0.4,2,180,0,180,0.9273685999996815,['y'],6.479182200000196,1.26,855.2653878000001,,,,,532,19,Woman,Right,
,,,,,,,,,,,,,,,,,532,19,Woman,Right,0,23,0.4,2,180,0,0,1.3453811999997924,['y'],0.7919572999999218,1.74,860.7322118000002,,,,,532,19,Woman,Right,
,,,,,,,,,,,,,,,,,532,19,Woman,Right,0,35,0.4,2,180,0,0,1.1434629999998833,['y'],1.000342499999988,1.162,866.8822103000002,,,,,532,19,Woman,Right,
,,,,,,,,,,,,,,,,,532,19,Woman,Right,0,73,0.15,2,0,180,180,1.118403599999965,['y'],3.1932724000002963,1.718,874.6159080000002,,,,,532,19,Woman,Right,
,,,,,,,,,,,,,,,,,532,19,Woman,Right,0,34,0.4,1,180,-,180,1.5002791000001707,['n'],1.039626799999951,1.206,881.0656706,,,,,532,19,Woman,Right,
,,,,,,,,,,,,,,,,,532,19,Woman,Right,0,78,0.15,1,180,-,0,1.2500903999998627,['y'],2.2753662000000077,1.244,887.2822478000003,,,,,532,19,Woman,Right,
,,,,,,,,,,,,,,,,,532,19,Woman,Right,0,29,0.4,2,0,180,180,3.7554043000000092,['n'],1.3563435000000936,1.246,894.9488888999999,,,,,532,19,Woman,Right,
,,,,,,,,,,,,,,,,,532,19,Woman,Right,0,74,0.15,1,180,-,0,0.8476043999999092,['n'],1.9409028999998554,1.296,900.7654963,,,,,532,19,Woman,Right,
,,,,,,,,,,,,,,,,,532,19,Woman,Right,0,70,0.15,1,180,-,180,0.4450034000001324,['n'],1.813800800000081,1.258,907.4489957000001,,,,,532,19,Woman,Right,
,,,,,,,,,,,,,,,,,532,19,Woman,Right,0,19,0.4,2,180,0,180,0.8893068000002131,['n'],2.4148260999995728,1.252,913.615432,,,,,532,19,Woman,Right,
,,,,,,,,,,,,,,,,,532,19,Woman,Right,0,45,0.15,2,0,180,180,0.7397994999996627,['y'],1.431628300000284,1.244,918.4322052000002,,,,,532,19,Woman,Right,
,,,,,,,,,,,,,,,,,532,19,Woman,Right,0,76,0.15,1,0,-,0,0.2881115000000136,['n'],3.4320997999998326,1.21,925.2323160999999,,,,,532,19,Woman,Right,
,,,,,,,,,,,,,,,,,532,19,Woman,Right,0,79,0.15,2,180,0,180,0.646896299999753,['n'],6.826180400000339,1.172,937.9655228000001,,,,,532,19,Woman,Right,
,,,,,,,,,,,,,,,,,532,19,Woman,Right,0,33,0.4,2,0,180,180,1.2259785999999622,['y'],3.242631699999947,1.158,946.0988768000002,,,,,532,19,Woman,Right,
,,,,,,,,,,,,,,,,,532,19,Woman,Right,0,5,1,2,0,180,180,0.43716589999985445,['y'],2.8272099000000708,1.762,952.8321653000003,,,,,532,19,Woman,Right,
,,,,,,,,,,,,,,,,,532,19,Woman,Right,0,16,0.4,1,0,-,0,0.4680970999997953,['n'],0.8440891000000192,1.686,956.8988167000002,,,,,532,19,Woman,Right,
,,,,,,,,,,,,,,,,,532,19,Woman,Right,0,54,0.15,1,180,-,180,0.8223132999996778,['n'],0.7965090000002419,1.28,961.6490306000001,,,,,532,19,Woman,Right,
,,,,,,,,,,,,,,,,,532,19,Woman,Right,0,11,0.4,2,180,0,180,1.3298081999996612,['n'],1.5973041000002013,1.242,967.3655185000002,,,,,532,19,Woman,Right,
,,,,,,,,,,,,,,,,,532,19,Woman,Right,0,56,0.15,1,0,-,180,0.5415852999999515,['n'],0.9658307999998215,1.244,971.3653998,,,,,532,19,Woman,Right,
,,,,,,,,,,,,,,,,,532,19,Woman,Right,0,26,0.4,1,180,-,0,2.7292484999998123,['n'],1.6709968000000117,1.244,979.3484670000003,,,,,532,19,Woman,Right,
,,,,,,,,,,,,,,,,,532,19,Woman,Right,0,71,0.15,2,180,0,180,1.0229283999997278,['n'],0.8718360000002576,1.234,984.6484081000003,,,,,532,19,Woman,Right,
,,,,,,,,,,,,,,,,,532,19,Woman,Right,0,67,0.15,2,180,0,180,0.89480709999998,['n'],1.5446955999996135,1.188,989.5989733000001,,,,,532,19,Woman,Right,
,,,,,,,,,,,,,,,,,532,19,Woman,Right,0,51,0.15,2,180,0,180,0.6836518000000069,['n'],1.4493087000000742,1.224,994.5493936000003,,,,,532,19,Woman,Right,
,,,,,,,,,,,,,,,,,532,19,Woman,Right,0,13,0.4,2,0,180,180,1.0275265000000218,['y'],0.9047903000000588,1.25,999.2818329000002,,,,,532,19,Woman,Right,
,,,,,,,,,,,,,,,,,532,19,Woman,Right,0,4,1,1,0,-,0,0.5251105000002099,['y'],1.753415600000153,1.258,1006.4158196000003,,,,,532,19,Woman,Right,
,,,,,,,,,,,,,,,,,532,19,Woman,Right,0,60,0.15,1,0,-,0,0.7468490000001111,['n'],0.7143700000001445,1.276,1010.5824895999999,,,,,532,19,Woman,Right,
,,,,,,,,,,,,,,,,,532,19,Woman,Right,0,14,0.4,1,180,-,0,1.9215361999999914,['n'],0.7079155000001265,1.274,1015.6663174,,,,,532,19,Woman,Right,
,,,,,,,,,,,,,,,,,532,19,Woman,Right,0,53,0.15,2,0,180,0,1.9890018000000964,['n'],1.1005615999997644,1.274,1021.2983884,,,,,532,19,Woman,Right,
,,,,,,,,,,,,,,,,,532,19,Woman,Right,0,9,0.4,2,0,180,180,0.7388227999999799,['y'],7.581844600000295,1.81,1032.6150065000002,,,,,532,19,Woman,Right,
,,,,,,,,,,,,,,,,,532,19,Woman,Right,0,10,0.4,1,180,-,180,0.7617394000003515,['n'],1.0391656000001603,1.258,1037.5316686,,,,,532,19,Woman,Right,
,,,,,,,,,,,,,,,,,532,19,Woman,Right,0,55,0.15,2,180,0,180,1.5158488000001853,['y'],4.031265900000108,1.328,1045.8158435,,,,,532,19,Woman,Right,
,,,,,,,,,,,,,,,,,532,19,Woman,Right,0,31,0.4,2,180,0,0,0.42624800000021423,['y'],0.9034341999999924,1.728,1050.2983652000003,,,,,532,19,Woman,Right,
,,,,,,,,,,,,,,,,,532,19,Woman,Right,0,37,0.4,2,0,180,180,2.2497604000000138,['y'],1.0561301000002459,1.6219999999999999,1058.6654312,,,,,532,19,Woman,Right,
,,,,,,,,,,,,,,,,,532,19,Woman,Right,0,28,0.4,1,0,-,180,1.1431170000000748,['y'],0.737247699999898,1.0,1065.0984146,,,,,532,19,Woman,Right,
,,,,,,,,,,,,,,,,,532,19,Woman,Right,0,69,0.15,2,0,180,180,0.8811561000002257,['y'],3.1066640999997617,1.252,1071.7657305000002,,,,,532,19,Woman,Right,
,,,,,,,,,,,,,,,,,532,19,Woman,Right,0,12,0.4,1,0,-,180,0.5253901000000951,['y'],1.0271173999999519,1.23,1075.832452,,,,,532,19,Woman,Right,
,,,,,,,,,,,,,,,,,532,19,Woman,Right,0,2,1,1,180,-,180,0.8763202999998612,['n'],1.2357303999997384,1.206,1080.965773,,,,,532,19,Woman,Right,
,,,,,,,,,,,,,,,,,532,19,Woman,Right,0,75,0.15,2,180,0,0,0.5102529000000686,['y'],1.3325247000002491,1.216,1085.3991051000003,,,,,532,19,Woman,Right,
,,,,,,,,,,,,,,,,,532,19,Woman,Right,0,52,0.15,1,0,-,0,0.7115126000003329,['n'],1.300208399999974,1.23,1090.0984259000002,,,,,532,19,Woman,Right,
,,,,,,,,,,,,,,,,,532,19,Woman,Right,0,46,0.15,1,180,-,180,0.8588991999999962,['y'],0.6689047999998365,1.204,1094.581701,,,,,532,19,Woman,Right,
,,,,,,,,,,,,,,,,,532,19,Woman,Right,1,47,0.15,2,180,0,0,1.6394986999998764,['n'],0.8237128999999186,1.278,1173.8981235,63.75,65.0,57.5,,532,19,Woman,Right,
,,,,,,,,,,,,,,,,,532,19,Woman,Right,1,64,0.15,1,0,-,180,0.6961355999997068,['n'],0.9597767000000204,1.288,1178.0656748000001,,,,,532,19,Woman,Right,
,,,,,,,,,,,,,,,,,532,19,Woman,Right,1,51,0.15,2,180,0,180,1.0894819000000098,['n'],1.0961604000003717,1.276,1183.2649795000002,,,,,532,19,Woman,Right,
,,,,,,,,,,,,,,,,,532,19,Woman,Right,1,55,0.15,2,180,0,180,1.065011400000003,['n'],1.2483882999999878,1.236,1188.6658846,,,,,532,19,Woman,Right,
,,,,,,,,,,,,,,,,,532,19,Woman,Right,1,68,0.15,1,0,-,0,0.3741762999998173,['n'],0.8094447000003129,1.222,1194.6814009,,,,,532,19,Woman,Right,
,,,,,,,,,,,,,,,,,532,19,Woman,Right,1,41,0.4,2,0,180,180,0.7351002000000335,['y'],1.1139335999996547,1.184,1199.1646715000002,,,,,532,19,Woman,Right,
,,,,,,,,,,,,,,,,,532,19,Woman,Right,1,42,0.4,1,180,-,180,1.3960645000001932,['n'],1.1312102000001687,1.218,1204.0489134,,,,,532,19,Woman,Right,
,,,,,,,,,,,,,,,,,532,19,Woman,Right,1,11,0.4,2,180,0,180,1.0129683000000114,['n'],0.7072017999998934,1.218,1208.0820487,,,,,532,19,Woman,Right,
,,,,,,,,,,,,,,,,,532,19,Woman,Right,1,15,0.4,2,180,0,0,0.6592967000001408,['y'],1.6277917999996134,1.22,1212.9146683,,,,,532,19,Woman,Right,
,,,,,,,,,,,,,,,,,532,19,Woman,Right,1,39,0.4,2,180,0,0,1.4336427000002914,['y'],1.2929333000001861,1.22,1218.4152981000002,,,,,532,19,Woman,Right,
,,,,,,,,,,,,,,,,,532,19,Woman,Right,1,44,0.15,1,0,-,180,3.310051899999962,['y'],1.2296617000001788,1.22,1225.3486828,,,,,532,19,Woman,Right,
,,,,,,,,,,,,,,,,,532,19,Woman,Right,1,38,0.4,1,180,-,0,0.672798099999909,['n'],0.8702448000003642,1.22,1229.1654198,,,,,532,19,Woman,Right,
,,,,,,,,,,,,,,,,,532,19,Woman,Right,1,13,0.4,2,0,180,180,2.705533999999716,['y'],0.9835127999999713,1.22,1235.5146359,,,,,532,19,Woman,Right,
,,,,,,,,,,,,,,,,,532,19,Woman,Right,1,66,0.15,1,180,-,0,0.01697360000025583,['n'],0.6278446000001168,1.22,1238.7987283000002,,,,,532,19,Woman,Right,
,,,,,,,,,,,,,,,,,532,19,Woman,Right,1,4,1,1,0,-,180,1.4482594000000972,['y'],0.42386179999994056,1.22,1243.3821834,,,,,532,19,Woman,Right,
,,,,,,,,,,,,,,,,,532,19,Woman,Right,1,50,0.15,1,180,-,0,0.021804299999985233,['y'],0.9928991000001588,1.22,1246.9979049000003,,,,,532,19,Woman,Right,
,,,,,,,,,,,,,,,,,532,19,Woman,Right,1,65,0.15,2,0,180,0,0.23859730000003765,['y'],0.665056999999706,1.22,1250.6812442,,,,,532,19,Woman,Right,
,,,,,,,,,,,,,,,,,532,19,Woman,Right,1,23,0.4,2,180,0,0,1.3479512999997496,['y'],2.5620499999999993,1.22,1257.4491963,,,,,532,19,Woman,Right,
,,,,,,,,,,,,,,,,,532,19,Woman,Right,1,70,0.15,1,180,-,0,1.471530299999813,['n'],2.0509188999999424,1.22,1263.9645692,,,,,532,19,Woman,Right,
,,,,,,,,,,,,,,,,,532,19,Woman,Right,1,34,0.4,1,180,-,180,0.8813127000003078,['y'],4.564262800000051,1.22,1271.7489048000002,,,,,532,19,Woman,Right,
,,,,,,,,,,,,,,,,,532,19,Woman,Right,1,7,1,2,180,0,0,0.5425228999997671,['y'],1.7567737999997917,1.22,1276.5984177,,,,,532,19,Woman,Right,
,,,,,,,,,,,,,,,,,532,19,Woman,Right,1,63,0.15,2,180,0,180,1.2844756999998026,['y'],0.6688506000000416,1.22,1281.2152485000001,,,,,532,19,Woman,Right,
,,,,,,,,,,,,,,,,,532,19,Woman,Right,1,71,0.15,2,180,0,180,3.082712399999764,['n'],1.5418534999998883,1.22,1288.6311337000002,,,,,532,19,Woman,Right,
,,,,,,,,,,,,,,,,,532,19,Woman,Right,1,46,0.15,1,180,-,180,0.340873399999964,['y'],1.2624931000000288,1.22,1292.7986004,,,,,532,19,Woman,Right,
,,,,,,,,,,,,,,,,,532,19,Woman,Right,1,49,0.15,2,0,180,180,0.8616390000001957,['y'],2.17503459999989,1.22,1298.3811595000002,,,,,532,19,Woman,Right,
,,,,,,,,,,,,,,,,,532,19,Woman,Right,1,45,0.15,2,0,180,180,2.066762700000254,['y'],0.36422659999971074,1.22,1303.69783,,,,,532,19,Woman,Right,
,,,,,,,,,,,,,,,,,532,19,Woman,Right,1,0,1,1,0,-,0,0.5801068999999188,['n'],0.7036692000001494,1.22,1307.2810669,,,,,532,19,Woman,Right,
,,,,,,,,,,,,,,,,,532,19,Woman,Right,1,31,0.4,2,180,0,180,0.7740117999996983,['n'],1.680462400000124,1.228,1312.4153432000003,,,,,532,19,Woman,Right,
,,,,,,,,,,,,,,,,,532,19,Woman,Right,1,3,1,2,180,0,0,0.48994790000006105,['y'],2.1773762999996507,1.23,1318.1144659000001,,,,,532,19,Woman,Right,
,,,,,,,,,,,,,,,,,532,19,Woman,Right,1,52,0.15,1,0,-,180,0.630373999999847,['y'],0.5376641999996536,1.188,1321.8648092000003,,,,,532,19,Woman,Right,
,,,,,,,,,,,,,,,,,532,19,Woman,Right,1,75,0.15,2,180,0,180,0.619763299999704,['n'],0.5780660999998872,1.168,1325.2311267,,,,,532,19,Woman,Right,
,,,,,,,,,,,,,,,,,532,19,Woman,Right,1,21,0.4,2,0,180,0,0.8374512999998842,['y'],1.6994297999999617,1.24,1330.5983173,,,,,532,19,Woman,Right,
,,,,,,,,,,,,,,,,,532,19,Woman,Right,1,76,0.15,1,0,-,180,0.4066435999998248,['y'],1.1469819999997526,1.222,1334.514513,,,,,532,19,Woman,Right,
,,,,,,,,,,,,,,,,,532,19,Woman,Right,1,26,0.4,1,180,-,180,1.0229737000004206,['y'],1.6844506000002184,1.216,1339.7652798,,,,,532,19,Woman,Right,
,,,,,,,,,,,,,,,,,532,19,Woman,Right,1,22,0.4,1,180,-,180,0.9657658000000993,['y'],1.5728825000001052,1.206,1345.5479481000002,,,,,532,19,Woman,Right,
,,,,,,,,,,,,,,,,,532,19,Woman,Right,1,77,0.15,2,0,180,0,1.8454753999999411,['n'],0.35761060000004363,1.206,1350.5816784000003,,,,,532,19,Woman,Right,
,,,,,,,,,,,,,,,,,532,19,Woman,Right,1,28,0.4,1,0,-,0,0.5529216999998425,['n'],0.4298231000002488,1.2,1356.3144435,,,,,532,19,Woman,Right,
,,,,,,,,,,,,,,,,,532,19,Woman,Right,1,37,0.4,2,0,180,0,0.38663450000012745,['n'],1.630299599999944,1.516,1364.6819211000002,,,,,532,19,Woman,Right,
,,,,,,,,,,,,,,,,,532,19,Woman,Right,1,20,0.4,1,0,-,180,0.7897766000000956,['n'],0.9112872999999126,1.3359999999999999,1370.0150904000002,,,,,532,19,Woman,Right,
,,,,,,,,,,,,,,,,,532,19,Woman,Right,1,1,1,2,0,180,180,0.5989810000000944,['y'],3.6249124000000847,1.35,1376.4495822,,,,,532,19,Woman,Right,
,,,,,,,,,,,,,,,,,532,19,Woman,Right,1,18,0.4,1,180,-,180,0.7923934999998892,['y'],0.9371768999999404,1.324,1380.5643928,,,,,532,19,Woman,Right,
,,,,,,,,,,,,,,,,,532,19,Woman,Right,1,67,0.15,2,180,0,180,1.180207800000062,['n'],1.6257003000000623,1.308,1385.9483755,,,,,532,19,Woman,Right,
,,,,,,,,,,,,,,,,,532,19,Woman,Right,1,33,0.4,2,0,180,0,0.609284099999968,['y'],4.314653500000077,1.228,1393.6980389999999,,,,,532,19,Woman,Right,
,,,,,,,,,,,,,,,,,532,19,Woman,Right,1,73,0.15,2,0,180,0,1.635535400000208,['n'],0.26748859999997876,1.232,1398.1483786,,,,,532,19,Woman,Right,
,,,,,,,,,,,,,,,,,532,19,Woman,Right,1,5,1,2,0,180,180,0.8364654000001792,['y'],0.9390692000001764,1.216,1402.3984030000001,,,,,532,19,Woman,Right,
,,,,,,,,,,,,,,,,,532,19,Woman,Right,1,74,0.15,1,180,-,0,0.6929216999997152,['n'],2.0122873000000254,1.278,1407.7650828,,,,,532,19,Woman,Right,
,,,,,,,,,,,,,,,,,532,19,Woman,Right,1,69,0.15,2,0,180,180,0.9068613000004007,['n'],0.7963257000001249,1.222,1415.0649414,,,,,532,19,Woman,Right,
,,,,,,,,,,,,,,,,,532,19,Woman,Right,1,56,0.15,1,0,-,180,1.3409445000002052,['n'],0.973525299999892,1.238,1420.064249,,,,,532,19,Woman,Right,
,,,,,,,,,,,,,,,,,532,19,Woman,Right,1,57,0.15,2,0,180,180,1.4691926000000421,['n'],0.28697280000005776,1.234,1425.3976355,,,,,532,19,Woman,Right,
,,,,,,,,,,,,,,,,,532,19,Woman,Right,1,48,0.15,1,0,-,180,0.5978181999998924,['y'],3.7353251999998065,1.13,1435.8485257000002,,,,,532,19,Woman,Right,
,,,,,,,,,,,,,,,,,532,19,Woman,Right,1,6,1,1,180,-,180,0.8466546999998172,['n'],2.23253829999976,1.1179999999999999,1442.0819578,,,,,532,19,Woman,Right,
,,,,,,,,,,,,,,,,,532,19,Woman,Right,1,24,0.4,1,0,-,180,0.7924705999998878,['n'],1.0414068000000043,1.318,1446.4308673,,,,,532,19,Woman,Right,
,,,,,,,,,,,,,,,,,532,19,Woman,Right,1,79,0.15,2,180,0,180,1.3102266000000782,['n'],0.8580016000000796,1.25,1451.6983106000002,,,,,532,19,Woman,Right,
,,,,,,,,,,,,,,,,,532,19,Woman,Right,1,72,0.15,1,0,-,0,0.7937911999997596,['n'],1.3386523000003763,1.256,1456.1808385,,,,,532,19,Woman,Right,
,,,,,,,,,,,,,,,,,532,19,Woman,Right,1,27,0.4,2,180,0,0,0.6071907000000465,['y'],1.147081800000251,1.228,1460.6645733,,,,,532,19,Woman,Right,
,,,,,,,,,,,,,,,,,532,19,Woman,Right,1,36,0.4,1,0,-,0,0.2682779000001574,['y'],1.347900899999786,1.206,1464.7474961000003,,,,,532,19,Woman,Right,
,,,,,,,,,,,,,,,,,532,19,Woman,Right,1,30,0.4,1,180,-,180,0.3331404000000475,['n'],1.112216499999704,1.21,1468.4648523,,,,,532,19,Woman,Right,
,,,,,,,,,,,,,,,,,532,19,Woman,Right,1,17,0.4,2,0,180,180,1.3870567000003575,['y'],0.8682708999999704,1.21,1473.1981983,,,,,532,19,Woman,Right,
,,,,,,,,,,,,,,,,,532,19,Woman,Right,1,40,0.4,1,0,-,0,0.24762329999975918,['n'],0.9487073000000237,1.21,1476.6316908,,,,,532,19,Woman,Right,
,,,,,,,,,,,,,,,,,532,19,Woman,Right,1,12,0.4,1,0,-,0,0.293193699999847,['n'],0.6852117999997063,1.252,1479.9309288,,,,,532,19,Woman,Right,
,,,,,,,,,,,,,,,,,532,19,Woman,Right,1,16,0.4,1,0,-,180,0.49839909999991505,['n'],2.6374197000000095,1.236,1485.4141005000001,,,,,532,19,Woman,Right,
,,,,,,,,,,,,,,,,,532,19,Woman,Right,1,43,0.4,2,180,0,0,0.7679456000000755,['n'],0.9510126000000128,1.208,1490.2975761000002,,,,,532,19,Woman,Right,
,,,,,,,,,,,,,,,,,532,19,Woman,Right,1,58,0.15,1,180,-,0,0.7908274000001256,['n'],0.7587123999996948,1.174,1494.5482375000001,,,,,532,19,Woman,Right,
,,,,,,,,,,,,,,,,,532,19,Woman,Right,1,29,0.4,2,0,180,180,1.0479249999998501,['y'],0.9759425000002011,1.166,1498.9141031,,,,,532,19,Woman,Right,
,,,,,,,,,,,,,,,,,532,19,Woman,Right,1,32,0.4,1,0,-,0,0.5201041999998779,['n'],0.5687534000003325,1.166,1502.2981854,,,,,532,19,Woman,Right,
,,,,,,,,,,,,,,,,,532,19,Woman,Right,1,9,0.4,2,0,180,180,2.8963636999997107,['y'],3.760716499999944,1.1179999999999999,1511.7148148,,,,,532,19,Woman,Right,
,,,,,,,,,,,,,,,,,532,19,Woman,Right,1,59,0.15,2,180,0,0,5.73958279999988,['n'],4.467495299999882,1.134,1529.6652673000003,,,,,532,19,Woman,Right,
,,,,,,,,,,,,,,,,,532,19,Woman,Right,1,14,0.4,1,180,-,180,0.3569265000000996,['y'],0.9080954000000929,1.146,1533.0480742,,,,,532,19,Woman,Right,
,,,,,,,,,,,,,,,,,532,19,Woman,Right,1,2,1,1,180,-,180,1.0000649999997222,['y'],2.1648965999997927,1.188,1539.5815849,,,,,532,19,Woman,Right,
,,,,,,,,,,,,,,,,,532,19,Woman,Right,1,8,0.4,1,0,-,0,0.5160681000002114,['n'],1.4840033000000403,1.176,1544.5814026000003,,,,,532,19,Woman,Right,
,,,,,,,,,,,,,,,,,532,19,Woman,Right,1,53,0.15,2,0,180,0,0.33775169999989885,['y'],0.8138082999998915,1.176,1544.5814026000003,,,,,532,19,Woman,Right,
,,,,,,,,,,,,,,,,,532,19,Woman,Right,1,61,0.15,2,0,180,180,0.017398899999989226,['y'],0.6782836999996107,1.306,1550.3473446000003,,,,,532,19,Woman,Right,
,,,,,,,,,,,,,,,,,532,19,Woman,Right,1,78,0.15,1,180,-,180,0.016710500000044703,['y'],0.18945239999993646,1.274,1552.8980382,,,,,532,19,Woman,Right,
,,,,,,,,,,,,,,,,,532,19,Woman,Right,1,10,0.4,1,180,-,180,1.7651993999998012,['n'],0.8547300000000178,1.258,1558.9477323,,,,,532,19,Woman,Right,
,,,,,,,,,,,,,,,,,532,19,Woman,Right,1,19,0.4,2,180,0,180,0.543044000000009,['n'],1.711581699999897,1.256,1565.6146614,,,,,532,19,Woman,Right,
,,,,,,,,,,,,,,,,,532,19,Woman,Right,1,35,0.4,2,180,0,180,0.9369782000003397,['y'],1.8411270999999942,1.256,1571.630959,,,,,532,19,Woman,Right,
,,,,,,,,,,,,,,,,,532,19,Woman,Right,1,25,0.4,2,0,180,180,6.9077259000000595,['n'],0.009379399999943416,1.246,1581.5141234000002,,,,,532,19,Woman,Right,
,,,,,,,,,,,,,,,,,532,19,Woman,Right,1,54,0.15,1,180,-,0,0.8826239999998506,['n'],0.7867149000003337,1.24,1586.9972881000003,,,,,532,19,Woman,Right,
,,,,,,,,,,,,,,,,,532,19,Woman,Right,1,60,0.15,1,0,-,0,0.688771899999665,['n'],1.2516295999998874,1.204,1592.3306866000003,,,,,532,19,Woman,Right,
,,,,,,,,,,,,,,,,,532,19,Woman,Right,1,62,0.15,1,180,-,0,0.4568580000000111,['n'],1.3643876000001,1.124,1597.3476111,,,,,532,19,Woman,Right,
,,,,,,,,,,,,,,,,,532,19,Woman,Right,2,1,1,2,0,180,180,0.5578442999999425,['y'],1.5784303000000364,1.124,1597.3476111,55.0,62.5,55.0,,532,19,Woman,Right,
,,,,,,,,,,,,,,,,,532,19,Woman,Right,2,13,0.4,2,0,180,180,0.7898595000001478,['y'],1.4593433999998524,1.134,1656.0638489000003,,,,,532,19,Woman,Right,
,,,,,,,,,,,,,,,,,532,19,Woman,Right,2,40,0.4,1,0,-,0,0.314741099999992,['n'],0.9802588000002288,1.134,1656.0638489000003,,,,,532,19,Woman,Right,
,,,,,,,,,,,,,,,,,532,19,Woman,Right,2,65,0.15,2,0,180,0,0.5512569000002259,['n'],1.300976300000002,1.138,1666.1146533,,,,,532,19,Woman,Right,
,,,,,,,,,,,,,,,,,532,19,Woman,Right,2,66,0.15,1,180,-,0,2.0987411000000975,['n'],1.2139560000000529,1.138,1671.9137629000002,,,,,532,19,Woman,Right,
,,,,,,,,,,,,,,,,,532,19,Woman,Right,2,79,0.15,2,180,0,0,4.182694499999798,['y'],0.9270146000003479,1.138,1679.8639384000003,,,,,532,19,Woman,Right,
,,,,,,,,,,,,,,,,,532,19,Woman,Right,2,67,0.15,2,180,0,0,0.7488829999997506,['n'],0.967142800000147,1.168,1684.5471229,,,,,532,19,Woman,Right,
,,,,,,,,,,,,,,,,,532,19,Woman,Right,2,26,0.4,1,180,-,180,0.19358220000003712,['n'],1.6160483999997268,1.192,1688.7971219,,,,,532,19,Woman,Right,
,,,,,,,,,,,,,,,,,532,19,Woman,Right,2,59,0.15,2,180,0,0,0.40713929999992615,['n'],1.1681174000000283,1.172,1693.0808200000001,,,,,532,19,Woman,Right,
,,,,,,,,,,,,,,,,,532,19,Woman,Right,2,45,0.15,2,0,180,180,0.39852150000024267,['y'],0.8730844000001525,1.1320000000000001,1697.1805356,,,,,532,19,Woman,Right,
,,,,,,,,,,,,,,,,,532,19,Woman,Right,2,23,0.4,2,180,0,0,1.6251994999997805,['y'],1.9291435999998612,1.1280000000000001,1703.4648275,,,,,532,19,Woman,Right,
,,,,,,,,,,,,,,,,,532,19,Woman,Right,2,21,0.4,2,0,180,0,0.8806892999996307,['n'],0.5780518000001393,1.124,1707.4470771000001,,,,,532,19,Woman,Right,
,,,,,,,,,,,,,,,,,532,19,Woman,Right,2,60,0.15,1,0,-,0,0.9102424000002429,['n'],0.4263584999998784,1.124,1707.4470771000001,,,,,532,19,Woman,Right,
,,,,,,,,,,,,,,,,,532,19,Woman,Right,2,74,0.15,1,180,-,0,1.2271465999997417,['n'],0.5070556999999098,1.1099999999999999,1714.6146201000001,,,,,532,19,Woman,Right,
,,,,,,,,,,,,,,,,,532,19,Woman,Right,2,17,0.4,2,0,180,180,2.03055970000014,['n'],1.3641950000001088,1.1280000000000001,1722.6661365,,,,,532,19,Woman,Right,
,,,,,,,,,,,,,,,,,532,19,Woman,Right,2,56,0.15,1,0,-,180,0.5266002000003027,['y'],0.1958227000000079,1.1280000000000001,1722.6661365,,,,,532,19,Woman,Right,
,,,,,,,,,,,,,,,,,532,19,Woman,Right,2,69,0.15,2,0,180,180,0.3211194999998952,['y'],0.85225360000004,1.08,1729.2144286000002,,,,,532,19,Woman,Right,
,,,,,,,,,,,,,,,,,532,19,Woman,Right,2,30,0.4,1,180,-,180,0.986171000000013,['n'],1.5095295999999507,1.138,1734.5312519,,,,,532,19,Woman,Right,
,,,,,,,,,,,,,,,,,532,19,Woman,Right,2,34,0.4,1,180,-,0,0.21059109999987413,['y'],0.48570250000011583,1.138,1734.5312519,,,,,532,19,Woman,Right,
,,,,,,,,,,,,,,,,,532,19,Woman,Right,2,62,0.15,1,180,-,0,0.016630500000246684,['n'],0.9227990999997928,1.138,1734.5312519,,,,,532,19,Woman,Right,
,,,,,,,,,,,,,,,,,532,19,Woman,Right,2,55,0.15,2,180,0,0,0.567090300000018,['n'],0.9339386999999988,1.1440000000000001,1743.4311456,,,,,532,19,Woman,Right,
,,,,,,,,,,,,,,,,,532,19,Woman,Right,2,50,0.15,1,180,-,180,1.1205278000002181,['n'],2.9358852000000297,1.146,1749.9478398,,,,,532,19,Woman,Right,
,,,,,,,,,,,,,,,,,532,19,Woman,Right,2,5,1,2,0,180,0,4.1766776999998,['n'],1.5363511000000472,1.112,1758.3479825,,,,,532,19,Woman,Right,
,,,,,,,,,,,,,,,,,532,19,Woman,Right,2,38,0.4,1,180,-,180,0.30007209999985207,['y'],9.762206300000344,1.174,1771.8977084000003,,,,,532,19,Woman,Right,
,,,,,,,,,,,,,,,,,532,19,Woman,Right,2,77,0.15,2,0,180,180,0.37070189999985814,['y'],0.26584409999986747,1.264,1779.3138137,,,,,532,19,Woman,Right,
,,,,,,,,,,,,,,,,,532,19,Woman,Right,2,57,0.15,2,0,180,0,0.3736527000000933,['y'],1.4352223999999296,1.276,1784.4810411000003,,,,,532,19,Woman,Right,
,,,,,,,,,,,,,,,,,532,19,Woman,Right,2,31,0.4,2,180,0,0,0.316037999999935,['y'],3.2038057999998273,1.08,1790.7302473,,,,,532,19,Woman,Right,
,,,,,,,,,,,,,,,,,532,19,Woman,Right,2,72,0.15,1,0,-,0,0.4051306999999724,['y'],1.0685307999997349,1.15,1795.1802402000003,,,,,532,19,Woman,Right,
,,,,,,,,,,,,,,,,,532,19,Woman,Right,2,10,0.4,1,180,-,180,0.40046769999980825,['y'],1.0057083000001512,1.176,1799.5980572000003,,,,,532,19,Woman,Right,
,,,,,,,,,,,,,,,,,532,19,Woman,Right,2,61,0.15,2,0,180,0,0.3271417000000838,['y'],0.5261122000001706,1.1280000000000001,1803.2643823000003,,,,,532,19,Woman,Right,
,,,,,,,,,,,,,,,,,532,19,Woman,Right,2,14,0.4,1,180,-,180,0.5150135999997474,['y'],2.686703800000032,1.228,1810.1136609,,,,,532,19,Woman,Right,
,,,,,,,,,,,,,,,,,532,19,Woman,Right,2,70,0.15,1,180,-,0,0.34819599999991624,['n'],3.735911499999929,1.142,1817.5469261000003,,,,,532,19,Woman,Right,
,,,,,,,,,,,,,,,,,532,19,Woman,Right,2,36,0.4,1,0,-,0,1.1376027000001159,['n'],3.1847548000000643,1.216,1824.9643902000003,,,,,532,19,Woman,Right,
,,,,,,,,,,,,,,,,,532,19,Woman,Right,2,42,0.4,1,180,-,180,0.3309963000001517,['y'],0.8733890999997129,1.254,1828.4968257,,,,,532,19,Woman,Right,
,,,,,,,,,,,,,,,,,532,19,Woman,Right,2,4,1,1,0,-,0,0.275837600000159,['n'],1.9777650999999423,1.256,1833.6302712000002,,,,,532,19,Woman,Right,
,,,,,,,,,,,,,,,,,532,19,Woman,Right,2,58,0.15,1,180,-,0,1.2557412000001023,['n'],1.7862049000000297,1.246,1839.7136423000002,,,,,532,19,Woman,Right,
,,,,,,,,,,,,,,,,,532,19,Woman,Right,2,41,0.4,2,0,180,0,1.3146952000001875,['n'],0.3553947000000335,1.256,1844.0970874,,,,,532,19,Woman,Right,
,,,,,,,,,,,,,,,,,532,19,Woman,Right,2,6,1,1,180,-,180,1.2424742999996852,['y'],1.0597594000000754,1.164,1849.7301190000003,,,,,532,19,Woman,Right,
,,,,,,,,,,,,,,,,,532,19,Woman,Right,2,73,0.15,2,0,180,0,0.016565999999784253,['n'],0.1327712000002066,1.13,1851.9134709,,,,,532,19,Woman,Right,
,,,,,,,,,,,,,,,,,532,19,Woman,Right,2,28,0.4,1,0,-,0,0.016719100000045728,['n'],2.203263600000355,1.158,1857.2641015,,,,,532,19,Woman,Right,
,,,,,,,,,,,,,,,,,532,19,Woman,Right,2,20,0.4,1,0,-,180,2.048614599999837,['n'],0.3015160999998443,1.174,1870.1142222000003,,,,,532,19,Woman,Right,
,,,,,,,,,,,,,,,,,532,19,Woman,Right,2,54,0.15,1,180,-,180,0.5644738000000871,['y'],0.4626853999998275,1.034,1876.0141045,,,,,532,19,Woman,Right,
,,,,,,,,,,,,,,,,,532,19,Woman,Right,2,18,0.4,1,180,-,180,0.35176510000019334,['y'],0.8474707999998827,1.046,1879.4978828000003,,,,,532,19,Woman,Right,
,,,,,,,,,,,,,,,,,532,19,Woman,Right,2,11,0.4,2,180,0,180,0.5413244999999733,['y'],0.3282463000000462,1.026,1882.9642123000003,,,,,532,19,Woman,Right,
,,,,,,,,,,,,,,,,,532,19,Woman,Right,2,22,0.4,1,180,-,180,0.2610565999998471,['y'],0.22436569999990752,1.028,1887.3137907,,,,,532,19,Woman,Right,
,,,,,,,,,,,,,,,,,532,19,Woman,Right,2,71,0.15,2,180,0,180,0.7176650000001246,['n'],0.8569189999998343,1.084,1891.5300555,,,,,532,19,Woman,Right,
,,,,,,,,,,,,,,,,,532,19,Woman,Right,2,53,0.15,2,0,180,0,0.2830794999999853,['n'],1.345352400000138,1.196,1895.3133860000003,,,,,532,19,Woman,Right,
,,,,,,,,,,,,,,,,,532,19,Woman,Right,2,19,0.4,2,180,0,180,3.94790520000015,['y'],6.067286299999978,1.162,1908.3801042,,,,,532,19,Woman,Right,
,,,,,,,,,,,,,,,,,532,19,Woman,Right,2,39,0.4,2,180,0,0,1.9925616000000446,['y'],1.0190152000000126,1.108,1914.2133899,,,,,532,19,Woman,Right,
,,,,,,,,,,,,,,,,,532,19,Woman,Right,2,52,0.15,1,0,-,0,0.30385210000031293,['n'],0.22847400000000562,1.108,1914.2133899,,,,,532,19,Woman,Right,
,,,,,,,,,,,,,,,,,532,19,Woman,Right,2,64,0.15,1,0,-,180,0.30273029999989376,['n'],1.3404021000001194,1.272,1921.4300415000002,,,,,532,19,Woman,Right,
,,,,,,,,,,,,,,,,,532,19,Woman,Right,2,48,0.15,1,0,-,180,1.3894239999999627,['n'],0.42134040000019013,1.272,1925.5645453000002,,,,,532,19,Woman,Right,
,,,,,,,,,,,,,,,,,532,19,Woman,Right,2,27,0.4,2,180,0,0,0.6990905000002385,['n'],1.342561399999795,1.28,1929.5969412,,,,,532,19,Woman,Right,
,,,,,,,,,,,,,,,,,532,19,Woman,Right,2,2,1,1,180,-,0,0.35150979999980336,['y'],0.7263361000000259,1.204,1933.3800031,,,,,532,19,Woman,Right,
,,,,,,,,,,,,,,,,,532,19,Woman,Right,2,75,0.15,2,180,0,0,1.3057017999999516,['y'],1.0226613999998335,1.174,1938.2302,,,,,532,19,Woman,Right,
,,,,,,,,,,,,,,,,,532,19,Woman,Right,2,43,0.4,2,180,0,180,0.8592165999998542,['y'],4.175974499999938,1.142,1946.9799631,,,,,532,19,Woman,Right,
,,,,,,,,,,,,,,,,,532,19,Woman,Right,2,47,0.15,2,180,0,0,1.298322399999961,['n'],0.5363266999997904,1.096,1950.6133921,,,,,532,19,Woman,Right,
,,,,,,,,,,,,,,,,,532,19,Woman,Right,2,16,0.4,1,0,-,0,0.34332150000000183,['y'],1.3610922000002574,1.096,1950.6133921,,,,,532,19,Woman,Right,
,,,,,,,,,,,,,,,,,532,19,Woman,Right,2,8,0.4,1,0,-,0,0.18310039999960281,['n'],2.7625754999999117,1.164,1961.4800804000001,,,,,532,19,Woman,Right,
,,,,,,,,,,,,,,,,,532,19,Woman,Right,2,49,0.15,2,0,180,180,0.5322145999998611,['y'],0.24192790000006426,1.164,1961.4800804000001,,,,,532,19,Woman,Right,
,,,,,,,,,,,,,,,,,532,19,Woman,Right,2,44,0.15,1,0,-,0,0.36795359999996435,['n'],0.4908871999996336,1.1,1968.6973252000003,,,,,532,19,Woman,Right,
,,,,,,,,,,,,,,,,,532,19,Woman,Right,2,25,0.4,2,0,180,180,0.46603830000003654,['y'],0.4186147999998866,1.1099999999999999,1973.3473138,,,,,532,19,Woman,Right,
,,,,,,,,,,,,,,,,,532,19,Woman,Right,2,78,0.15,1,180,-,180,0.48399430000017674,['y'],2.19569569999976,1.1560000000000001,1979.9809405,,,,,532,19,Woman,Right,
,,,,,,,,,,,,,,,,,532,19,Woman,Right,2,24,0.4,1,0,-,180,2.705746200000249,['y'],0.5561301000002459,1.1560000000000001,1979.9809405,,,,,532,19,Woman,Right,
,,,,,,,,,,,,,,,,,532,19,Woman,Right,2,76,0.15,1,0,-,0,0.29032180000012886,['y'],0.5571348999997099,1.1059999999999999,1989.397301,,,,,532,19,Woman,Right,
,,,,,,,,,,,,,,,,,532,19,Woman,Right,2,46,0.15,1,180,-,180,0.7849261000001206,['n'],0.837697400000252,1.0939999999999999,1993.4799379,,,,,532,19,Woman,Right,
,,,,,,,,,,,,,,,,,532,19,Woman,Right,2,29,0.4,2,0,180,0,6.301262899999983,['y'],0.4870756000000256,1.0939999999999999,1993.4799379,,,,,532,19,Woman,Right,
,,,,,,,,,,,,,,,,,532,19,Woman,Right,2,9,0.4,2,0,180,180,0.7871856000001571,['n'],0.27864899999985937,1.13,2005.946523,,,,,532,19,Woman,Right,
,,,,,,,,,,,,,,,,,532,19,Woman,Right,2,35,0.4,2,180,0,180,0.017304200000126002,['y'],0.3619515999998839,1.074,2009.2798432,,,,,532,19,Woman,Right,
,,,,,,,,,,,,,,,,,532,19,Woman,Right,2,51,0.15,2,180,0,0,0.2760131000000001,['n'],0.2804095999999845,1.328,2012.1465549,,,,,532,19,Woman,Right,
,,,,,,,,,,,,,,,,,532,19,Woman,Right,2,0,1,1,0,-,0,5.553210200000194,['y'],0.8253770000001168,1.27,2021.329875,,,,,532,19,Woman,Right,
,,,,,,,,,,,,,,,,,532,19,Woman,Right,2,33,0.4,2,0,180,180,0.8191198999998051,['y'],1.1616031999997176,1.272,2027.1639698,,,,,532,19,Woman,Right,
,,,,,,,,,,,,,,,,,532,19,Woman,Right,2,68,0.15,1,0,-,180,0.9903874999999971,['y'],0.30605210000021543,1.272,2027.1639698,,,,,532,19,Woman,Right,
,,,,,,,,,,,,,,,,,532,19,Woman,Right,2,15,0.4,2,180,0,0,0.7798566999999821,['y'],0.21095229999991716,1.254,2033.8972578000003,,,,,532,19,Woman,Right,
,,,,,,,,,,,,,,,,,532,19,Woman,Right,2,7,1,2,180,0,0,0.6029656000000614,['y'],0.762837799999943,1.28,2037.9298149,,,,,532,19,Woman,Right,
,,,,,,,,,,,,,,,,,532,19,Woman,Right,2,32,0.4,1,0,-,0,2.3860743000000184,['n'],0.8841323000001466,1.246,2043.8464621000003,,,,,532,19,Woman,Right,
,,,,,,,,,,,,,,,,,532,19,Woman,Right,2,12,0.4,1,0,-,0,0.3101763999998184,['y'],0.5719927000000098,1.246,2043.8464621000003,,,,,532,19,Woman,Right,
,,,,,,,,,,,,,,,,,532,19,Woman,Right,2,37,0.4,2,0,180,0,0.2610847000000831,['y'],1.2533779999998842,1.212,2050.3971837,,,,,532,19,Woman,Right,
,,,,,,,,,,,,,,,,,532,19,Woman,Right,2,63,0.15,2,180,0,0,0.5255265000000691,['n'],0.2932853000002069,1.176,2054.197289,,,,,532,19,Woman,Right,
,,,,,,,,,,,,,,,,,532,19,Woman,Right,2,3,1,2,180,0,0,0.23360030000003462,['y'],1.9416688999999678,1.084,2058.8631301,,,,,532,19,Woman,Right,
,,,,,,,,,,,,,,,,,532,19,Woman,Right,3,43,0.4,2,180,0,0,0.8259947999999895,['y'],1.5544426999999814,1.6400000000000001,2097.4638142,65.0,52.5,60.0,,532,19,Woman,Right,
,,,,,,,,,,,,,,,,,532,19,Woman,Right,3,28,0.4,1,0,-,0,0.26723050000009607,['n'],0.4114852000002429,1.654,2101.1971403000002,,,,,532,19,Woman,Right,
,,,,,,,,,,,,,,,,,532,19,Woman,Right,3,38,0.4,1,180,-,180,0.7784973000002537,['n'],1.2756910999996762,1.262,2106.2797561,,,,,532,19,Woman,Right,
,,,,,,,,,,,,,,,,,532,19,Woman,Right,3,45,0.15,2,0,180,0,0.7388034000000516,['n'],0.7087094000003162,1.206,2111.5971219000003,,,,,532,19,Woman,Right,
,,,,,,,,,,,,,,,,,532,19,Woman,Right,3,3,1,2,180,0,0,1.8708569999998872,['y'],0.6447103000000425,1.162,2117.229693,,,,,532,19,Woman,Right,
,,,,,,,,,,,,,,,,,532,19,Woman,Right,3,8,0.4,1,0,-,0,0.5446664999999484,['n'],0.6217907000000196,1.238,2121.0796874000002,,,,,532,19,Woman,Right,
,,,,,,,,,,,,,,,,,532,19,Woman,Right,3,61,0.15,2,0,180,0,0.8577831999996306,['n'],0.35774750000018685,1.1480000000000001,2124.1142112,,,,,532,19,Woman,Right,
,,,,,,,,,,,,,,,,,532,19,Woman,Right,3,76,0.15,1,0,-,0,0.4134852000001956,['n'],0.2463247999999112,1.1480000000000001,2124.1142112,,,,,532,19,Woman,Right,
,,,,,,,,,,,,,,,,,532,19,Woman,Right,3,40,0.4,1,0,-,180,0.4497895999998036,['y'],0.2624607999996442,1.5,2129.1922608,,,,,532,19,Woman,Right,
,,,,,,,,,,,,,,,,,532,19,Woman,Right,3,37,0.4,2,0,180,0,0.5689990999999281,['n'],1.7598864000001413,1.108,2133.9636893,,,,,532,19,Woman,Right,
,,,,,,,,,,,,,,,,,532,19,Woman,Right,3,27,0.4,2,180,0,180,0.6497008000001188,['y'],0.31160359999967113,1.108,2133.9636893,,,,,532,19,Woman,Right,
,,,,,,,,,,,,,,,,,532,19,Woman,Right,3,13,0.4,2,0,180,180,2.535073300000022,['y'],0.9599926000000778,1.1219999999999999,2146.6796375,,,,,532,19,Woman,Right,
,,,,,,,,,,,,,,,,,532,19,Woman,Right,3,41,0.4,2,0,180,0,0.321570999999949,['y'],0.30549470000005385,1.032,2150.0129936000003,,,,,532,19,Woman,Right,
,,,,,,,,,,,,,,,,,532,19,Woman,Right,3,33,0.4,2,0,180,0,2.1272586000000047,['n'],1.0098220999998375,1.104,2157.8971672000002,,,,,532,19,Woman,Right,
,,,,,,,,,,,,,,,,,532,19,Woman,Right,3,52,0.15,1,0,-,0,0.5874511000001803,['y'],0.27517390000002706,1.006,2161.8305129,,,,,532,19,Woman,Right,
,,,,,,,,,,,,,,,,,532,19,Woman,Right,3,70,0.15,1,180,-,0,0.325926100000288,['n'],2.603679999999713,1.142,2167.4976944,,,,,532,19,Woman,Right,
,,,,,,,,,,,,,,,,,532,19,Woman,Right,3,19,0.4,2,180,0,180,0.32342209999978877,['y'],0.6521184999996876,1.1059999999999999,2170.67968,,,,,532,19,Woman,Right,
,,,,,,,,,,,,,,,,,532,19,Woman,Right,3,53,0.15,2,0,180,180,0.5521516999997402,['y'],0.5560312000002341,1.0,2174.1970157,,,,,532,19,Woman,Right,
,,,,,,,,,,,,,,,,,532,19,Woman,Right,3,5,1,2,0,180,180,1.8944838999996136,['y'],0.7407865999998648,1.088,2179.8295492,,,,,532,19,Woman,Right,
,,,,,,,,,,,,,,,,,532,19,Woman,Right,3,73,0.15,2,0,180,0,0.9329330000000482,['n'],1.08550090000017,1.1179999999999999,2184.4296892,,,,,532,19,Woman,Right,
,,,,,,,,,,,,,,,,,532,19,Woman,Right,3,18,0.4,1,180,-,180,0.8820789999999761,['y'],0.3735473000001548,1.138,2187.8795192000002,,,,,532,19,Woman,Right,
,,,,,,,,,,,,,,,,,532,19,Woman,Right,3,49,0.15,2,0,180,180,0.7288311000002068,['y'],0.32652619999998933,1.138,2191.2796705,,,,,532,19,Woman,Right,
,,,,,,,,,,,,,,,,,532,19,Woman,Right,3,1,1,2,0,180,0,0.5340988000002653,['y'],3.063519599999836,1.138,2191.2796705,,,,,532,19,Woman,Right,
,,,,,,,,,,,,,,,,,532,19,Woman,Right,3,23,0.4,2,180,0,180,0.24443849999988743,['y'],0.22366640000018378,1.174,2201.6470007000003,,,,,532,19,Woman,Right,
,,,,,,,,,,,,,,,,,532,19,Woman,Right,3,22,0.4,1,180,-,0,0.01675340000019787,['y'],0.6904363000003286,1.174,2201.6470007000003,,,,,532,19,Woman,Right,
,,,,,,,,,,,,,,,,,532,19,Woman,Right,3,32,0.4,1,0,-,0,0.01661180000019158,['n'],0.6126970000000256,1.16,2207.881069,,,,,532,19,Woman,Right,
,,,,,,,,,,,,,,,,,532,19,Woman,Right,3,54,0.15,1,180,-,180,0.890216799999962,['y'],1.3129864000002271,1.16,2207.881069,,,,,532,19,Woman,Right,
,,,,,,,,,,,,,,,,,532,19,Woman,Right,3,26,0.4,1,180,-,180,1.5047958000000108,['y'],0.7216906999997263,1.068,2216.2295187,,,,,532,19,Woman,Right,
,,,,,,,,,,,,,,,,,532,19,Woman,Right,3,20,0.4,1,0,-,0,0.11488089999966178,['y'],0.24929800000018076,1.06,2220.2795411,,,,,532,19,Woman,Right,
,,,,,,,,,,,,,,,,,532,19,Woman,Right,3,74,0.15,1,180,-,0,0.017389099999945756,['n'],1.0556400999998914,1.058,2227.4294595,,,,,532,19,Woman,Right,
,,,,,,,,,,,,,,,,,532,19,Woman,Right,3,0,1,1,0,-,0,0.5745319000002382,['y'],0.8676454999999805,1.058,2232.9973585000002,,,,,532,19,Woman,Right,
,,,,,,,,,,,,,,,,,532,19,Woman,Right,3,39,0.4,2,180,0,0,0.40747620000001916,['y'],1.372493200000008,1.09,2237.3140984,,,,,532,19,Woman,Right,
,,,,,,,,,,,,,,,,,532,19,Woman,Right,3,75,0.15,2,180,0,180,3.4017832999998063,['n'],0.7328084000000672,1.066,2245.7635329,,,,,532,19,Woman,Right,
,,,,,,,,,,,,,,,,,532,19,Woman,Right,3,67,0.15,2,180,0,180,0.7492268000000877,['y'],1.029121000000032,1.066,2245.7635329,,,,,532,19,Woman,Right,
,,,,,,,,,,,,,,,,,532,19,Woman,Right,3,35,0.4,2,180,0,0,0.016353799999706098,['y'],0.744065800000044,1.1520000000000001,2253.2794096000002,,,,,532,19,Woman,Right,
,,,,,,,,,,,,,,,,,532,19,Woman,Right,3,69,0.15,2,0,180,180,0.4737685000000056,['n'],0.33553870000014285,1.196,2260.1627741,,,,,532,19,Woman,Right,
,,,,,,,,,,,,,,,,,532,19,Woman,Right,3,58,0.15,1,180,-,0,0.22779270000000906,['y'],0.4797774999997273,1.1520000000000001,2262.8134815000003,,,,,532,19,Woman,Right,
,,,,,,,,,,,,,,,,,532,19,Woman,Right,3,77,0.15,2,0,180,180,0.4666802000001553,['y'],0.9956008999997721,1.176,2266.8128293,,,,,532,19,Woman,Right,
,,,,,,,,,,,,,,,,,532,19,Woman,Right,3,78,0.15,1,180,-,180,0.4248032999998941,['y'],0.2722914999999375,1.16,2270.096958,,,,,532,19,Woman,Right,
,,,,,,,,,,,,,,,,,532,19,Woman,Right,3,17,0.4,2,0,180,0,0.016469499999857362,['y'],0.8387682000002314,1.194,2273.0293989,,,,,532,19,Woman,Right,
,,,,,,,,,,,,,,,,,532,19,Woman,Right,3,64,0.15,1,0,-,0,0.10201600000027611,['y'],2.337170199999946,1.166,2278.1793909000003,,,,,532,19,Woman,Right,
,,,,,,,,,,,,,,,,,532,19,Woman,Right,3,47,0.15,2,180,0,0,1.1373289000002842,['n'],0.7055924999999661,1.108,2282.3968296000003,,,,,532,19,Woman,Right,
,,,,,,,,,,,,,,,,,532,19,Woman,Right,3,42,0.4,1,180,-,180,0.4417379000001347,['n'],1.3864778000001934,1.092,2286.6294194,,,,,532,19,Woman,Right,
,,,,,,,,,,,,,,,,,532,19,Woman,Right,3,63,0.15,2,180,0,0,0.33506139999963125,['n'],1.1710489000001871,1.1099999999999999,2290.3962667,,,,,532,19,Woman,Right,
,,,,,,,,,,,,,,,,,532,19,Woman,Right,3,36,0.4,1,0,-,0,0.8350151999998161,['y'],6.004315300000144,1.0,2299.2977829,,,,,532,19,Woman,Right,
,,,,,,,,,,,,,,,,,532,19,Woman,Right,3,60,0.15,1,0,-,0,1.1326579999999922,['y'],0.21212409999998272,1.1,2303.2967366000003,,,,,532,19,Woman,Right,
,,,,,,,,,,,,,,,,,532,19,Woman,Right,3,9,0.4,2,0,180,180,0.20032369999989896,['y'],1.87683590000006,1.038,2307.7142303,,,,,532,19,Woman,Right,
,,,,,,,,,,,,,,,,,532,19,Woman,Right,3,66,0.15,1,180,-,0,0.929704700000002,['y'],0.5896184999996876,1.0939999999999999,2317.0293389000003,,,,,532,19,Woman,Right,
,,,,,,,,,,,,,,,,,532,19,Woman,Right,3,65,0.15,2,0,180,180,0.4319921000001159,['y'],0.26251030000003084,1.078,2320.6635209,,,,,532,19,Woman,Right,
,,,,,,,,,,,,,,,,,532,19,Woman,Right,3,57,0.15,2,0,180,0,0.5974197999998978,['n'],0.24674860000004628,1.0,2323.6634360000003,,,,,532,19,Woman,Right,
,,,,,,,,,,,,,,,,,532,19,Woman,Right,3,6,1,1,180,-,180,0.592679699999735,['n'],5.672321000000011,1.0,2333.0294109,,,,,532,19,Woman,Right,
,,,,,,,,,,,,,,,,,532,19,Woman,Right,3,72,0.15,1,0,-,0,0.7163570999996409,['y'],1.6010513999999603,1.0,2333.0294109,,,,,532,19,Woman,Right,
,,,,,,,,,,,,,,,,,532,19,Woman,Right,3,46,0.15,1,180,-,180,0.45665029999963735,['y'],0.40859820000014224,1.028,2343.9958918,,,,,532,19,Woman,Right,
,,,,,,,,,,,,,,,,,532,19,Woman,Right,3,50,0.15,1,180,-,180,0.24384629999985918,['y'],0.30599389999997584,1.028,2343.9958918,,,,,532,19,Woman,Right,
,,,,,,,,,,,,,,,,,532,19,Woman,Right,3,16,0.4,1,0,-,0,0.2588086000000658,['n'],1.3700806000001648,1.108,2350.2793452,,,,,532,19,Woman,Right,
,,,,,,,,,,,,,,,,,532,19,Woman,Right,3,12,0.4,1,0,-,0,1.5090738999997484,['n'],0.7790608000000248,1.092,2354.8294839,,,,,532,19,Woman,Right,
,,,,,,,,,,,,,,,,,532,19,Woman,Right,3,10,0.4,1,180,-,0,0.2994149999999536,['y'],1.1154413999997814,1.092,2354.8294839,,,,,532,19,Woman,Right,
,,,,,,,,,,,,,,,,,532,19,Woman,Right,3,59,0.15,2,180,0,180,0.4102114000002075,['n'],0.8995042999999896,1.126,2362.8467298,,,,,532,19,Woman,Right,
,,,,,,,,,,,,,,,,,532,19,Woman,Right,3,62,0.15,1,180,-,0,0.27265239999996993,"['y', 'n']",0.8929982999998174,1.1480000000000001,2366.3792659,,,,,532,19,Woman,Right,
,,,,,,,,,,,,,,,,,532,19,Woman,Right,3,25,0.4,2,0,180,180,2.1440575999999965,['y'],4.077393000000029,1.1059999999999999,2375.5626979000003,,,,,532,19,Woman,Right,
,,,,,,,,,,,,,,,,,532,19,Woman,Right,3,21,0.4,2,0,180,180,2.264854199999718,['y'],1.5503427000003285,1.124,2382.3626879000003,,,,,532,19,Woman,Right,
,,,,,,,,,,,,,,,,,532,19,Woman,Right,3,68,0.15,1,0,-,180,0.47765079999999216,['y'],0.279550200000358,1.07,2385.3458316,,,,,532,19,Woman,Right,
,,,,,,,,,,,,,,,,,532,19,Woman,Right,3,34,0.4,1,180,-,180,1.1172888000000967,['y'],1.2043495000002622,1.018,2390.3626129,,,,,532,19,Woman,Right,
,,,,,,,,,,,,,,,,,532,19,Woman,Right,3,71,0.15,2,180,0,0,5.426546200000303,['n'],0.4161352999999508,1.1480000000000001,2399.2466131,,,,,532,19,Woman,Right,
,,,,,,,,,,,,,,,,,532,19,Woman,Right,3,30,0.4,1,180,-,0,0.7224830000000111,['n'],1.1368591999998898,1.1480000000000001,2399.2466131,,,,,532,19,Woman,Right,
,,,,,,,,,,,,,,,,,532,19,Woman,Right,3,14,0.4,1,180,-,0,0.7027869000003193,['n'],0.2576473999997688,1.032,2408.4301175,,,,,532,19,Woman,Right,
,,,,,,,,,,,,,,,,,532,19,Woman,Right,3,7,1,2,180,0,0,0.56384399999979,['y'],2.170235700000376,1.076,2413.9294612000003,,,,,532,19,Woman,Right,
,,,,,,,,,,,,,,,,,532,19,Woman,Right,3,55,0.15,2,180,0,0,0.2809172999996008,['n'],0.2986340999996173,1.154,2416.9291414,,,,,532,19,Woman,Right,
,,,,,,,,,,,,,,,,,532,19,Woman,Right,3,44,0.15,1,0,-,180,0.4902094999997644,['y'],1.923222700000224,1.22,2421.5636041,,,,,532,19,Woman,Right,
,,,,,,,,,,,,,,,,,532,19,Woman,Right,3,31,0.4,2,180,0,0,0.4868757000003825,['y'],2.2277125000000524,1.254,2426.8966723000003,,,,,532,19,Woman,Right,
,,,,,,,,,,,,,,,,,532,19,Woman,Right,3,48,0.15,1,0,-,0,0.28441860000020824,['y'],1.0770406999999977,1.248,2430.5625408000005,,,,,532,19,Woman,Right,
,,,,,,,,,,,,,,,,,532,19,Woman,Right,3,56,0.15,1,0,-,0,0.5442427999996653,['n'],0.7089746000001469,1.248,2434.0292109,,,,,532,19,Woman,Right,
,,,,,,,,,,,,,,,,,532,19,Woman,Right,3,29,0.4,2,0,180,180,0.996502099999816,['n'],6.790387699999883,1.252,2444.6131415,,,,,532,19,Woman,Right,
,,,,,,,,,,,,,,,,,532,19,Woman,Right,3,11,0.4,2,180,0,0,0.6503080000002228,['y'],0.8378863999996611,1.222,2448.3457719999997,,,,,532,19,Woman,Right,
,,,,,,,,,,,,,,,,,532,19,Woman,Right,3,2,1,1,180,-,180,0.4687107999998261,['y'],2.6479677999996056,1.1360000000000001,2454.2466548,,,,,532,19,Woman,Right,
,,,,,,,,,,,,,,,,,532,19,Woman,Right,3,15,0.4,2,180,0,0,0.5719540999998571,['y'],0.7281217999998262,1.18,2457.8291128,,,,,532,19,Woman,Right,
,,,,,,,,,,,,,,,,,532,19,Woman,Right,3,51,0.15,2,180,0,0,0.5586253000001307,['n'],0.7200123999991774,1.18,2461.4970227000003,,,,,532,19,Woman,Right,
,,,,,,,,,,,,,,,,,532,19,Woman,Right,3,24,0.4,1,0,-,0,1.3379388999992443,['n'],0.336993199999597,1.1059999999999999,2465.1792054,,,,,532,19,Woman,Right,
,,,,,,,,,,,,,,,,,532,19,Woman,Right,3,79,0.15,2,180,0,0,0.24438670000017737,['y'],0.9293718999997509,1.1400000000000001,2469.2632919,,,,,532,19,Woman,Right,
,,,,,,,,,,,,,,,,,532,19,Woman,Right,3,4,1,1,0,-,0,0.2944602000006853,['y'],1.1136993999998595,1.1520000000000001,2472.8123936,,,,,532,19,Woman,Right,
,,,,,,,,,,,,,,,,,532,19,Woman,Right,4,59,0.15,2,180,0,180,0.2992218999997931,['y'],0.5714764000003925,1.188,2485.6463861,66.25,37.5,62.5,,532,19,Woman,Right,
,,,,,,,,,,,,,,,,,532,19,Woman,Right,4,20,0.4,1,0,-,0,6.048600899999656,['n'],1.2050982000000658,1.192,2495.2969570000005,,,,,532,19,Woman,Right,
,,,,,,,,,,,,,,,,,532,19,Woman,Right,4,11,0.4,2,180,0,0,0.6148558000004414,['y'],0.7806482000005417,1.244,2498.9789717000003,,,,,532,19,Woman,Right,
,,,,,,,,,,,,,,,,,532,19,Woman,Right,4,35,0.4,2,180,0,0,0.3138214999999036,['y'],3.189603900000293,1.226,2504.6793837000005,,,,,532,19,Woman,Right,
,,,,,,,,,,,,,,,,,532,19,Woman,Right,4,16,0.4,1,0,-,0,1.8467367000002923,['n'],0.662392600000203,1.21,2509.3462337,,,,,532,19,Woman,Right,
,,,,,,,,,,,,,,,,,532,19,Woman,Right,4,23,0.4,2,180,0,0,0.8005420999998023,['y'],2.8788470999998026,1.26,2515.4790932000005,,,,,532,19,Woman,Right,
,,,,,,,,,,,,,,,,,532,19,Woman,Right,4,75,0.15,2,180,0,0,0.38028269999995246,['y'],0.39167040000029374,1.314,2519.5292415000004,,,,,532,19,Woman,Right,
,,,,,,,,,,,,,,,,,532,19,Woman,Right,4,71,0.15,2,180,0,0,0.2894534000006388,['y'],0.2165835000005245,1.288,2522.2789247,,,,,532,19,Woman,Right,
,,,,,,,,,,,,,,,,,532,19,Woman,Right,4,28,0.4,1,0,-,0,1.1616902999994636,['y'],2.1629408999997395,1.282,2531.3291876000003,,,,,532,19,Woman,Right,
,,,,,,,,,,,,,,,,,532,19,Woman,Right,4,62,0.15,1,180,-,0,0.4666059999999561,['y'],0.28117459999975836,1.282,2534.3789298,,,,,532,19,Woman,Right,
,,,,,,,,,,,,,,,,,532,19,Woman,Right,4,19,0.4,2,180,0,0,0.5708053999996991,['y'],2.0750467999996545,1.248,2539.3135232000004,,,,,532,19,Woman,Right,
,,,,,,,,,,,,,,,,,532,19,Woman,Right,4,51,0.15,2,180,0,180,0.36613709999983257,['y'],0.706625200000417,1.234,2542.5630831,,,,,532,19,Woman,Right,
,,,,,,,,,,,,,,,,,532,19,Woman,Right,4,40,0.4,1,0,-,0,0.2562342000001081,['y'],0.6429763000005551,1.108,2545.9122045000004,,,,,532,19,Woman,Right,
,,,,,,,,,,,,,,,,,532,19,Woman,Right,4,47,0.15,2,180,0,180,2.435916100000213,['n'],0.4917236999999659,1.212,2551.0629857000004,,,,,532,19,Woman,Right,
,,,,,,,,,,,,,,,,,532,19,Woman,Right,4,56,0.15,1,0,-,0,0.7669959999993807,['n'],0.9560855999998239,1.214,2555.3623135,,,,,532,19,Woman,Right,
,,,,,,,,,,,,,,,,,532,19,Woman,Right,4,15,0.4,2,180,0,0,2.2200081999999384,['y'],0.7006472000002759,1.208,2560.5129730999997,,,,,532,19,Woman,Right,
,,,,,,,,,,,,,,,,,532,19,Woman,Right,4,37,0.4,2,0,180,180,1.1469399000006888,['y'],0.5813968000002205,1.2,2564.4630303000004,,,,,532,19,Woman,Right,
,,,,,,,,,,,,,,,,,532,19,Woman,Right,4,24,0.4,1,0,-,180,0.7826414000001023,['y'],0.25401770000007673,1.24,2567.6790249000005,,,,,532,19,Woman,Right,
,,,,,,,,,,,,,,,,,532,19,Woman,Right,4,54,0.15,1,180,-,180,0.7023509000000558,['y'],0.734466999999313,1.226,2571.6955856000004,,,,,532,19,Woman,Right,
,,,,,,,,,,,,,,,,,532,19,Woman,Right,4,31,0.4,2,180,0,0,0.596980700000131,['y'],2.0868796000004295,1.22,2576.6121795,,,,,532,19,Woman,Right,
,,,,,,,,,,,,,,,,,532,19,Woman,Right,4,1,1,2,0,180,180,1.282856300000276,['y'],4.991362200000367,1.164,2585.3129501000003,,,,,532,19,Woman,Right,
,,,,,,,,,,,,,,,,,532,19,Woman,Right,4,18,0.4,1,180,-,0,0.49350090000007185,['y'],1.0487647999998444,1.16,2589.6129136,,,,,532,19,Woman,Right,
,,,,,,,,,,,,,,,,,532,19,Woman,Right,4,22,0.4,1,180,-,180,1.3823684999997568,['n'],0.761576600000808,1.146,2593.9955492,,,,,532,19,Woman,Right,
,,,,,,,,,,,,,,,,,532,19,Woman,Right,4,41,0.4,2,0,180,180,1.8330918000001475,['y'],0.5055388999999195,1.146,2598.4961126999997,,,,,532,19,Woman,Right,
,,,,,,,,,,,,,,,,,532,19,Woman,Right,4,46,0.15,1,180,-,0,1.7581853000001502,['n'],0.4338022000001729,1.15,2602.9129826999997,,,,,532,19,Woman,Right,
,,,,,,,,,,,,,,,,,532,19,Woman,Right,4,66,0.15,1,180,-,0,0.516942499999459,['y'],0.21071849999952974,1.15,2602.9129826999997,,,,,532,19,Woman,Right,
,,,,,,,,,,,,,,,,,532,19,Woman,Right,4,12,0.4,1,0,-,0,1.6181524000003265,['n'],1.3955801000001884,1.2,2611.5454999000003,,,,,532,19,Woman,Right,
,,,,,,,,,,,,,,,,,532,19,Woman,Right,4,65,0.15,2,0,180,0,4.327810600000703,['n'],0.30712379999931727,1.206,2618.6792772999997,,,,,532,19,Woman,Right,
,,,,,,,,,,,,,,,,,532,19,Woman,Right,4,36,0.4,1,0,-,0,0.46712680000018736,['n'],0.5083936999999423,1.158,2621.8627930000002,,,,,532,19,Woman,Right,
,,,,,,,,,,,,,,,,,532,19,Woman,Right,4,44,0.15,1,0,-,0,0.45717229999991105,['n'],0.9488873999998759,1.1179999999999999,2625.3461413000005,,,,,532,19,Woman,Right,
,,,,,,,,,,,,,,,,,532,19,Woman,Right,4,77,0.15,2,0,180,180,0.5006999999995969,['n'],0.5414918000005855,1.116,2628.5455967999997,,,,,532,19,Woman,Right,
,,,,,,,,,,,,,,,,,532,19,Woman,Right,4,74,0.15,1,180,-,0,6.901348899999903,['n'],0.35832249999930355,1.1019999999999999,2637.9961014,,,,,532,19,Woman,Right,
,,,,,,,,,,,,,,,,,532,19,Woman,Right,4,39,0.4,2,180,0,0,2.4732911000000968,['n'],0.27933649999977206,1.096,2642.9619724000004,,,,,532,19,Woman,Right,
,,,,,,,,,,,,,,,,,532,19,Woman,Right,4,52,0.15,1,0,-,180,0.5313128999996479,['y'],0.6158586999999898,1.096,2646.2454900000002,,,,,532,19,Woman,Right,
,,,,,,,,,,,,,,,,,532,19,Woman,Right,4,43,0.4,2,180,0,0,0.2921315000003233,['n'],1.1437424000005194,1.13,2650.6290166999997,,,,,532,19,Woman,Right,
,,,,,,,,,,,,,,,,,532,19,Woman,Right,4,42,0.4,1,180,-,180,1.4890264000005118,['n'],2.2003522000004523,1.1320000000000001,2656.7786667,,,,,532,19,Woman,Right,
,,,,,,,,,,,,,,,,,532,19,Woman,Right,4,45,0.15,2,0,180,180,1.0622183000004952,['y'],0.4332724000005328,1.126,2660.729018,,,,,532,19,Woman,Right,
,,,,,,,,,,,,,,,,,532,19,Woman,Right,4,30,0.4,1,180,-,180,0.49752619999981107,['n'],3.553679099999499,1.15,2667.6127993,,,,,532,19,Woman,Right,
,,,,,,,,,,,,,,,,,532,19,Woman,Right,4,69,0.15,2,0,180,0,0.3150845999998637,['y'],0.8422352000006867,1.15,2667.6127993,,,,,532,19,Woman,Right,
,,,,,,,,,,,,,,,,,532,19,Woman,Right,4,53,0.15,2,0,180,0,0.34724849999929575,['n'],1.1627192999994804,1.15,2667.6127993,,,,,532,19,Woman,Right,
,,,,,,,,,,,,,,,,,532,19,Woman,Right,4,10,0.4,1,180,-,180,0.4861446999993859,['y'],0.8832406999999876,1.104,2676.9786685,,,,,532,19,Woman,Right,
,,,,,,,,,,,,,,,,,532,19,Woman,Right,4,64,0.15,1,0,-,0,1.450818000000254,['n'],0.3556561999994301,1.052,2681.0787025,,,,,532,19,Woman,Right,
,,,,,,,,,,,,,,,,,532,19,Woman,Right,4,32,0.4,1,0,-,0,0.24698650000027556,['n'],1.6198785000005955,1.1480000000000001,2685.0789832,,,,,532,19,Woman,Right,
,,,,,,,,,,,,,,,,,532,19,Woman,Right,4,61,0.15,2,0,180,0,0.3107127999992372,['n'],1.6772412999998778,1.1360000000000001,2689.4626094000005,,,,,532,19,Woman,Right,
,,,,,,,,,,,,,,,,,532,19,Woman,Right,4,76,0.15,1,0,-,0,1.0713391999997839,['y'],0.7175282999996853,1.112,2693.4131015000003,,,,,532,19,Woman,Right,
,,,,,,,,,,,,,,,,,532,19,Woman,Right,4,60,0.15,1,0,-,0,1.3456304999999702,['y'],0.19007160000001022,1.112,2693.4131015000003,,,,,532,19,Woman,Right,
,,,,,,,,,,,,,,,,,532,19,Woman,Right,4,21,0.4,2,0,180,180,0.6676681999997527,['y'],0.7588394000003973,1.5,2700.072349,,,,,532,19,Woman,Right,
,,,,,,,,,,,,,,,,,532,19,Woman,Right,4,25,0.4,2,0,180,0,0.3395694000000731,['y'],0.4547426999997697,1.13,2703.3287644,,,,,532,19,Woman,Right,
,,,,,,,,,,,,,,,,,532,19,Woman,Right,4,3,1,2,180,0,0,0.8477710999995907,['y'],0.614667300000292,1.168,2707.0628465,,,,,532,19,Woman,Right,
,,,,,,,,,,,,,,,,,532,19,Woman,Right,4,68,0.15,1,0,-,0,0.4643246999994517,['n'],0.8310647999996945,1.146,2710.3955172000005,,,,,532,19,Woman,Right,
,,,,,,,,,,,,,,,,,532,19,Woman,Right,4,26,0.4,1,180,-,180,0.4154694000008021,['n'],0.39183820000016567,1.15,2713.4292765,,,,,532,19,Woman,Right,
,,,,,,,,,,,,,,,,,532,19,Woman,Right,4,9,0.4,2,0,180,0,0.2881329000001642,['n'],1.8888171999997212,1.18,2717.7953290000005,,,,,532,19,Woman,Right,
,,,,,,,,,,,,,,,,,532,19,Woman,Right,4,72,0.15,1,0,-,0,0.47391499999957887,['n'],0.5532008999998652,1.188,2720.9621077,,,,,532,19,Woman,Right,
,,,,,,,,,,,,,,,,,532,19,Woman,Right,4,50,0.15,1,180,-,0,0.017244100000425533,['y'],0.467729999999392,1.188,2720.9621077,,,,,532,19,Woman,Right,
,,,,,,,,,,,,,,,,,532,19,Woman,Right,4,5,1,2,0,180,180,1.5953208999999333,['y'],1.3134004000003188,1.1520000000000001,2728.411938,,,,,532,19,Woman,Right,
,,,,,,,,,,,,,,,,,532,19,Woman,Right,4,55,0.15,2,180,0,0,0.8177830999993603,['y'],0.5064316999996663,1.178,2731.9126426000003,,,,,532,19,Woman,Right,
,,,,,,,,,,,,,,,,,532,19,Woman,Right,4,33,0.4,2,0,180,180,1.8199469999999565,['y'],0.30670439999994414,1.1560000000000001,2736.5289081,,,,,532,19,Woman,Right,
,,,,,,,,,,,,,,,,,532,19,Woman,Right,4,29,0.4,2,0,180,180,1.402441600000202,['y'],0.49875559999964025,1.1139999999999999,2740.7953761,,,,,532,19,Woman,Right,
,,,,,,,,,,,,,,,,,532,19,Woman,Right,4,27,0.4,2,180,0,0,2.5631874999999127,['y'],3.0765517999998337,1.112,2748.5455314,,,,,532,19,Woman,Right,
,,,,,,,,,,,,,,,,,532,19,Woman,Right,4,7,1,2,180,0,0,2.283688400000756,['y'],1.4711371000003055,1.1139999999999999,2754.6459762000004,,,,,532,19,Woman,Right,
,,,,,,,,,,,,,,,,,532,19,Woman,Right,4,67,0.15,2,180,0,180,1.865677699999651,['n'],0.2688309000004665,1.126,2758.9126788000003,,,,,532,19,Woman,Right,
,,,,,,,,,,,,,,,,,532,19,Woman,Right,4,58,0.15,1,180,-,180,2.261934800000745,['y'],0.3903682000000117,1.1139999999999999,2764.1791621,,,,,532,19,Woman,Right,
,,,,,,,,,,,,,,,,,532,19,Woman,Right,4,0,1,1,0,-,0,2.8719860000001063,['n'],0.24690970000028756,1.086,2769.5460515000004,,,,,532,19,Woman,Right,
,,,,,,,,,,,,,,,,,532,19,Woman,Right,4,48,0.15,1,0,-,0,0.43191159999969386,['n'],1.3518294000004971,1.074,2773.7451950000004,,,,,532,19,Woman,Right,
,,,,,,,,,,,,,,,,,532,19,Woman,Right,4,13,0.4,2,0,180,0,6.329851600000438,['n'],0.9368014000001494,1.088,2784.3951945999997,,,,,532,19,Woman,Right,
,,,,,,,,,,,,,,,,,532,19,Woman,Right,4,49,0.15,2,0,180,180,1.0921941000005972,['n'],0.6485519999996541,1.074,2788.1785114000004,,,,,532,19,Woman,Right,
,,,,,,,,,,,,,,,,,532,19,Woman,Right,4,73,0.15,2,0,180,0,1.3857269000000088,['n'],0.8421219000001656,1.104,2792.5786757000005,,,,,532,19,Woman,Right,
,,,,,,,,,,,,,,,,,532,19,Woman,Right,4,70,0.15,1,180,-,180,0.858973600000354,['n'],0.8500875999998243,1.188,2796.3786071000004,,,,,532,19,Woman,Right,
,,,,,,,,,,,,,,,,,532,19,Woman,Right,4,17,0.4,2,0,180,0,1.2279616999994687,['n'],1.4590526000001773,1.17,2801.1284336999997,,,,,532,19,Woman,Right,
,,,,,,,,,,,,,,,,,532,19,Woman,Right,4,78,0.15,1,180,-,180,0.9179057999999714,['n'],0.6274480000001859,1.168,2804.8118166000004,,,,,532,19,Woman,Right,
,,,,,,,,,,,,,,,,,532,19,Woman,Right,4,79,0.15,2,180,0,0,0.9608493999994607,['n'],2.260471000000507,1.162,2810.3454251000003,,,,,532,19,Woman,Right,
,,,,,,,,,,,,,,,,,532,19,Woman,Right,4,8,0.4,1,0,-,180,8.534691500000008,['n'],0.7570825999991939,1.1560000000000001,2821.8460336999997,,,,,532,19,Woman,Right,
,,,,,,,,,,,,,,,,,532,19,Woman,Right,4,63,0.15,2,180,0,180,1.218274300000303,['n'],0.7338743999998769,1.1139999999999999,2826.6624647,,,,,532,19,Woman,Right,
,,,,,,,,,,,,,,,,,532,19,Woman,Right,4,38,0.4,1,180,-,180,3.7600382999999056,['n'],2.935284999999567,1.092,2835.4626856000004,,,,,532,19,Woman,Right,
,,,,,,,,,,,,,,,,,532,19,Woman,Right,4,14,0.4,1,180,-,180,0.9917533999996522,['n'],0.8558376000000862,1.088,2839.4950693,,,,,532,19,Woman,Right,
,,,,,,,,,,,,,,,,,532,19,Woman,Right,4,6,1,1,180,-,180,2.2704044000001886,['n'],0.2805617000003622,1.076,2844.2283844000003,,,,,532,19,Woman,Right,
,,,,,,,,,,,,,,,,,532,19,Woman,Right,4,57,0.15,2,0,180,180,0.8623279999992519,['n'],0.3928212999999232,1.076,2848.0289334999998,,,,,532,19,Woman,Right,
,,,,,,,,,,,,,,,,,532,19,Woman,Right,4,2,1,1,180,-,180,8.600003099999412,['n'],1.9542572000000291,1.074,2860.7951107999997,,,,,532,19,Woman,Right,
,,,,,,,,,,,,,,,,,532,19,Woman,Right,4,34,0.4,1,180,-,180,0.8187901999999667,['n'],1.202732499999911,1.1320000000000001,2865.2624719000005,,,,,532,19,Woman,Right,
,,,,,,,,,,,,,,,,,532,19,Woman,Right,4,4,1,1,0,-,0,1.0970760999998674,['n'],0.9642532000007122,1.238,2869.5617717000005,,,,,532,19,Woman,Right,
,,,,,,,,,,,,,,,,,532,19,Woman,Right,5,58,0.15,1,180,-,180,0.946340099999361,['n'],0.909714399999757,1.1139999999999999,2888.6120349000003,71.25,67.5,60.0,,532,19,Woman,Right,
,,,,,,,,,,,,,,,,,532,19,Woman,Right,5,6,1,1,180,-,180,1.6601673000004666,['n'],0.8707451000000219,1.154,2893.4292623,,,,,532,19,Woman,Right,
,,,,,,,,,,,,,,,,,532,19,Woman,Right,5,12,0.4,1,0,-,0,0.24268889999984822,['n'],1.5109003999996276,1.202,2897.4117194,,,,,532,19,Woman,Right,
,,,,,,,,,,,,,,,,,532,19,Woman,Right,5,13,0.4,2,0,180,180,1.3297750000001543,['y'],0.727394199999253,1.1400000000000001,2901.629105,,,,,532,19,Woman,Right,
,,,,,,,,,,,,,,,,,532,19,Woman,Right,5,0,1,1,0,-,0,0.8742545000004611,['n'],0.5512212000003274,1.1320000000000001,2905.1283568,,,,,532,19,Woman,Right,
,,,,,,,,,,,,,,,,,532,19,Woman,Right,5,18,0.4,1,180,-,180,1.3414751000000251,['n'],2.6566241999998965,1.142,2911.3282882000003,,,,,532,19,Woman,Right,
,,,,,,,,,,,,,,,,,532,19,Woman,Right,5,54,0.15,1,180,-,0,2.03792760000033,['n'],0.7054739000004702,1.252,2916.2124234000003,,,,,532,19,Woman,Right,
,,,,,,,,,,,,,,,,,532,19,Woman,Right,5,47,0.15,2,180,0,180,1.5463371999994706,['n'],0.890019399999801,1.164,2920.8128656999997,,,,,532,19,Woman,Right,
,,,,,,,,,,,,,,,,,532,19,Woman,Right,5,65,0.15,2,0,180,0,0.8507030999999188,['n'],5.274654300000293,1.19,2929.1618111,,,,,532,19,Woman,Right,
,,,,,,,,,,,,,,,,,532,19,Woman,Right,5,37,0.4,2,0,180,180,0.9615478000005169,['y'],0.4994004000000132,1.216,2933.2782478,,,,,532,19,Woman,Right,
,,,,,,,,,,,,,,,,,532,19,Woman,Right,5,45,0.15,2,0,180,0,0.4958513000001403,['y'],0.7481071000001975,1.182,2936.6616199,,,,,532,19,Woman,Right,
,,,,,,,,,,,,,,,,,532,19,Woman,Right,5,52,0.15,1,0,-,180,4.599884000000202,['n'],0.8691520000002129,1.13,2944.395628,,,,,532,19,Woman,Right,
,,,,,,,,,,,,,,,,,532,19,Woman,Right,5,7,1,2,180,0,0,2.1320113000001584,['y'],8.214988800000356,1.192,2957.7781241000002,,,,,532,19,Woman,Right,
,,,,,,,,,,,,,,,,,532,19,Woman,Right,5,15,0.4,2,180,0,0,1.002049700000498,['y'],0.6548671999998987,1.224,2961.9284195,,,,,532,19,Woman,Right,
,,,,,,,,,,,,,,,,,532,19,Woman,Right,5,3,1,2,180,0,0,0.9913993999998638,['y'],0.3759475000006205,1.224,2965.4949325,,,,,532,19,Woman,Right,
,,,,,,,,,,,,,,,,,532,19,Woman,Right,5,21,0.4,2,0,180,0,5.4839034000005995,['n'],1.0346890000000712,1.248,2974.9622461,,,,,532,19,Woman,Right,
,,,,,,,,,,,,,,,,,532,19,Woman,Right,5,8,0.4,1,0,-,0,0.8785958999997092,['y'],3.1855115999996997,1.18,2981.8462951,,,,,532,19,Woman,Right,
,,,,,,,,,,,,,,,,,532,19,Woman,Right,5,32,0.4,1,0,-,180,0.5195202000004429,['n'],0.665751900000032,1.1019999999999999,2985.3948812,,,,,532,19,Woman,Right,
,,,,,,,,,,,,,,,,,532,19,Woman,Right,5,2,1,1,180,-,180,0.8110003000001598,['n'],0.5954000000001543,1.1019999999999999,2988.8790847,,,,,532,19,Woman,Right,
,,,,,,,,,,,,,,,,,532,19,Woman,Right,5,28,0.4,1,0,-,0,0.35063799999988987,['n'],0.9308201000003464,1.126,2993.2281083999997,,,,,532,19,Woman,Right,
,,,,,,,,,,,,,,,,,532,19,Woman,Right,5,48,0.15,1,0,-,180,4.580487799999901,['n'],0.05973329999960697,1.126,3001.0790927999997,,,,,532,19,Woman,Right,
,,,,,,,,,,,,,,,,,532,19,Woman,Right,5,5,1,2,0,180,180,0.8740072999999029,['y'],0.5811555000000226,1.176,3005.6282756,,,,,532,19,Woman,Right,
,,,,,,,,,,,,,,,,,532,19,Woman,Right,5,10,0.4,1,180,-,0,0.5535526999992726,['n'],0.7568988000002719,1.134,3009.1454826,,,,,532,19,Woman,Right,
,,,,,,,,,,,,,,,,,532,19,Woman,Right,5,61,0.15,2,0,180,0,0.3064178999993601,['y'],0.8454709999996339,1.134,3009.1454826,,,,,532,19,Woman,Right,
,,,,,,,,,,,,,,,,,532,19,Woman,Right,5,57,0.15,2,0,180,0,0.6655767000002015,['n'],1.1338218999999299,1.1320000000000001,3016.3121287000004,,,,,532,19,Woman,Right,
,,,,,,,,,,,,,,,,,532,19,Woman,Right,5,46,0.15,1,180,-,180,2.6465133000001515,['n'],2.639111400000729,1.124,3023.9787725000006,,,,,532,19,Woman,Right,
,,,,,,,,,,,,,,,,,532,19,Woman,Right,5,40,0.4,1,0,-,0,0.9921186999999918,['n'],0.6317026999995505,1.124,3023.9787725000006,,,,,532,19,Woman,Right,
,,,,,,,,,,,,,,,,,532,19,Woman,Right,5,76,0.15,1,0,-,0,0.8686295000006794,['y'],0.9755592999999863,1.124,3023.9787725000006,,,,,532,19,Woman,Right,
,,,,,,,,,,,,,,,,,532,19,Woman,Right,5,70,0.15,1,180,-,0,0.6013523999999961,['n'],0.32019799999943643,1.12,3034.0953085,,,,,532,19,Woman,Right,
,,,,,,,,,,,,,,,,,532,19,Woman,Right,5,25,0.4,2,0,180,0,0.23445059999994555,['y'],2.264631300000474,1.1280000000000001,3039.6450847000006,,,,,532,19,Woman,Right,
,,,,,,,,,,,,,,,,,532,19,Woman,Right,5,33,0.4,2,0,180,0,0.10505240000020422,['n'],0.7847648999995727,1.138,3042.9121514999997,,,,,532,19,Woman,Right,
,,,,,,,,,,,,,,,,,532,19,Woman,Right,5,23,0.4,2,180,0,0,0.532231000000138,['n'],0.6337585000001127,1.142,3046.4955569000003,,,,,532,19,Woman,Right,
,,,,,,,,,,,,,,,,,532,19,Woman,Right,5,35,0.4,2,180,0,180,0.3270204999998896,['y'],0.8336686000002373,1.1440000000000001,3050.6280438000003,,,,,532,19,Woman,Right,
,,,,,,,,,,,,,,,,,532,19,Woman,Right,5,66,0.15,1,180,-,0,0.3948416000002908,['y'],0.27472539999962464,1.1480000000000001,3053.7781790999998,,,,,532,19,Woman,Right,
,,,,,,,,,,,,,,,,,532,19,Woman,Right,5,64,0.15,1,0,-,0,1.0994498000000021,['n'],1.090743300000213,1.1480000000000001,3058.5458316000004,,,,,532,19,Woman,Right,
,,,,,,,,,,,,,,,,,532,19,Woman,Right,5,24,0.4,1,0,-,0,0.08267329999944195,['y'],0.47556619999977556,1.154,3061.3618022,,,,,532,19,Woman,Right,
,,,,,,,,,,,,,,,,,532,19,Woman,Right,5,34,0.4,1,180,-,0,0.24534219999986817,['y'],0.6353247000006377,1.154,3064.445638,,,,,532,19,Woman,Right,
,,,,,,,,,,,,,,,,,532,19,Woman,Right,5,55,0.15,2,180,0,0,0.29616450000048644,['y'],0.2687004999997953,1.1560000000000001,3067.3291028000003,,,,,532,19,Woman,Right,
,,,,,,,,,,,,,,,,,532,19,Woman,Right,5,36,0.4,1,0,-,0,0.326674599999933,['y'],0.39654129999962606,1.1480000000000001,3070.7454927999997,,,,,532,19,Woman,Right,
,,,,,,,,,,,,,,,,,532,19,Woman,Right,5,62,0.15,1,180,-,0,2.3867914999991626,['y'],0.2619660999998814,1.146,3075.6280580000002,,,,,532,19,Woman,Right,
,,,,,,,,,,,,,,,,,532,19,Woman,Right,5,11,0.4,2,180,0,0,0.7560190000003786,['y'],0.686271300000044,1.1360000000000001,3079.5122227,,,,,532,19,Woman,Right,
,,,,,,,,,,,,,,,,,532,19,Woman,Right,5,75,0.15,2,180,0,0,0.30211310000049707,['y'],0.2377913999998782,1.1360000000000001,3079.5122227,,,,,532,19,Woman,Right,
,,,,,,,,,,,,,,,,,532,19,Woman,Right,5,56,0.15,1,0,-,0,0.32116319999931875,['n'],0.6868403999997099,1.126,3085.1456192000005,,,,,532,19,Woman,Right,
,,,,,,,,,,,,,,,,,532,19,Woman,Right,5,20,0.4,1,0,-,0,0.3344173999994382,['y'],0.446324900000036,1.126,3088.9286585,,,,,532,19,Woman,Right,
,,,,,,,,,,,,,,,,,532,19,Woman,Right,5,78,0.15,1,180,-,0,1.8919688999994833,['y'],0.2790205999999671,1.126,3088.9286585,,,,,532,19,Woman,Right,
,,,,,,,,,,,,,,,,,532,19,Woman,Right,5,30,0.4,1,180,-,180,0.8145126999997956,['n'],0.6395744999999806,1.124,3097.7286890000005,,,,,532,19,Woman,Right,
,,,,,,,,,,,,,,,,,532,19,Woman,Right,5,77,0.15,2,0,180,180,0.3743494999998802,['n'],1.2084621999993033,1.138,3101.4113147999997,,,,,532,19,Woman,Right,
,,,,,,,,,,,,,,,,,532,19,Woman,Right,5,60,0.15,1,0,-,0,0.3309930000004897,['y'],0.2804108999998789,1.1280000000000001,3104.2279315000005,,,,,532,19,Woman,Right,
,,,,,,,,,,,,,,,,,532,19,Woman,Right,5,39,0.4,2,180,0,180,0.017078500000025088,['y'],0.36620420000053855,1.1219999999999999,3106.9279773,,,,,532,19,Woman,Right,
,,,,,,,,,,,,,,,,,532,19,Woman,Right,5,72,0.15,1,0,-,0,0.289973199999622,['n'],1.2016236999998,1.1219999999999999,3110.8949230999997,,,,,532,19,Woman,Right,
,,,,,,,,,,,,,,,,,532,19,Woman,Right,5,74,0.15,1,180,-,0,0.8523666000000958,['n'],0.7223086000003605,1.1099999999999999,3114.927896,,,,,532,19,Woman,Right,
,,,,,,,,,,,,,,,,,532,19,Woman,Right,5,49,0.15,2,0,180,180,0.6759907999994539,['y'],0.2750113000001875,1.1099999999999999,3114.927896,,,,,532,19,Woman,Right,
,,,,,,,,,,,,,,,,,532,19,Woman,Right,5,68,0.15,1,0,-,180,0.3103691999995135,['n'],0.602657000000363,1.1280000000000001,3120.8789736,,,,,532,19,Woman,Right,
,,,,,,,,,,,,,,,,,532,19,Woman,Right,5,22,0.4,1,180,-,180,0.3909769000001688,['y'],0.47576870000011695,1.1280000000000001,3123.9119621,,,,,532,19,Woman,Right,
,,,,,,,,,,,,,,,,,532,19,Woman,Right,5,73,0.15,2,0,180,0,0.28236440000000584,['n'],0.6197707999999693,1.15,3127.1112087,,,,,532,19,Woman,Right,
,,,,,,,,,,,,,,,,,532,19,Woman,Right,5,29,0.4,2,0,180,180,1.470788900000116,['y'],0.5246306999997614,1.142,3131.1786122000003,,,,,532,19,Woman,Right,
,,,,,,,,,,,,,,,,,532,19,Woman,Right,5,26,0.4,1,180,-,180,0.738263299999744,['n'],0.6763905999996496,1.1360000000000001,3134.8778730000004,,,,,532,19,Woman,Right,
,,,,,,,,,,,,,,,,,532,19,Woman,Right,5,44,0.15,1,0,-,0,0.4414978000004339,['n'],0.6134068999999727,1.134,3138.1278432,,,,,532,19,Woman,Right,
,,,,,,,,,,,,,,,,,532,19,Woman,Right,5,4,1,1,0,-,0,0.6487242999992304,['n'],0.773898200000076,1.1360000000000001,3141.7451201000003,,,,,532,19,Woman,Right,
,,,,,,,,,,,,,,,,,532,19,Woman,Right,5,53,0.15,2,0,180,0,0.3899532999994335,['n'],0.6215348999994603,1.1360000000000001,3144.8112651,,,,,532,19,Woman,Right,
,,,,,,,,,,,,,,,,,532,19,Woman,Right,5,16,0.4,1,0,-,0,0.2516751999992266,['n'],0.5425428999997166,1.1360000000000001,3147.7118401,,,,,532,19,Woman,Right,
,,,,,,,,,,,,,,,,,532,19,Woman,Right,5,42,0.4,1,180,-,180,0.30258449999928416,['n'],0.582560800000465,1.1520000000000001,3150.7445441,,,,,532,19,Woman,Right,
,,,,,,,,,,,,,,,,,532,19,Woman,Right,5,38,0.4,1,180,-,0,0.016460799999549636,['n'],0.5877109999992172,1.1320000000000001,3153.4118329000003,,,,,532,19,Woman,Right,
,,,,,,,,,,,,,,,,,532,19,Woman,Right,5,14,0.4,1,180,-,180,0.4578723999993599,['n'],0.7993642000001273,1.084,3156.9290341000005,,,,,532,19,Woman,Right,
,,,,,,,,,,,,,,,,,532,19,Woman,Right,5,43,0.4,2,180,0,0,0.6590344999995068,['y'],0.5756008999996993,1.196,3160.4111596000002,,,,,532,19,Woman,Right,
,,,,,,,,,,,,,,,,,532,19,Woman,Right,5,17,0.4,2,0,180,180,0.8090855000000374,['y'],0.6161485000002358,1.18,3164.3278133000003,,,,,532,19,Woman,Right,
,,,,,,,,,,,,,,,,,532,19,Woman,Right,5,9,0.4,2,0,180,0,0.4042644000001019,['y'],2.225191700000323,1.13,3169.6280968,,,,,532,19,Woman,Right,
,,,,,,,,,,,,,,,,,532,19,Woman,Right,5,27,0.4,2,180,0,0,1.7663910999999644,['y'],0.5377009999992879,1.2,3174.1612510000004,,,,,532,19,Woman,Right,
,,,,,,,,,,,,,,,,,532,19,Woman,Right,5,59,0.15,2,180,0,0,0.5012870999998995,['n'],0.3619598000004771,1.206,3177.9955956000003,,,,,532,19,Woman,Right,
,,,,,,,,,,,,,,,,,532,19,Woman,Right,5,63,0.15,2,180,0,0,0.3371124000004784,['y'],5.979639600000155,1.202,3186.5113186999997,,,,,532,19,Woman,Right,
,,,,,,,,,,,,,,,,,532,19,Woman,Right,5,67,0.15,2,180,0,0,1.0492655999996714,['n'],1.1956325999999535,1.262,3190.8111367,,,,,532,19,Woman,Right,
,,,,,,,,,,,,,,,,,532,19,Woman,Right,5,79,0.15,2,180,0,0,2.0181329999995796,['y'],0.34877870000036637,1.256,3196.145138,,,,,532,19,Woman,Right,
,,,,,,,,,,,,,,,,,532,19,Woman,Right,5,51,0.15,2,180,0,0,0.4341653999999835,['n'],0.38837100000000646,1.226,3199.8778725,,,,,532,19,Woman,Right,
,,,,,,,,,,,,,,,,,532,19,Woman,Right,5,41,0.4,2,0,180,180,2.0087608000003456,['y'],0.7649713999999221,1.21,3205.2620285000003,,,,,532,19,Woman,Right,
,,,,,,,,,,,,,,,,,532,19,Woman,Right,5,19,0.4,2,180,0,0,0.5559170999995331,['y'],0.774141600000803,1.192,3209.3110907,,,,,532,19,Woman,Right,
,,,,,,,,,,,,,,,,,532,19,Woman,Right,5,71,0.15,2,180,0,0,0.8194156999998086,['n'],0.34235269999953744,1.18,3213.2777873000005,,,,,532,19,Woman,Right,
,,,,,,,,,,,,,,,,,532,19,Woman,Right,5,69,0.15,2,0,180,0,0.3689039999999295,['n'],0.8313571000007869,1.174,3216.6277233,,,,,532,19,Woman,Right,
,,,,,,,,,,,,,,,,,532,19,Woman,Right,5,31,0.4,2,180,0,180,1.417276000000129,['n'],10.23272900000029,1.21,3231.1284084,,,,,532,19,Woman,Right,
,,,,,,,,,,,,,,,,,532,19,Woman,Right,5,50,0.15,1,180,-,180,0.3669491000000562,['n'],0.4745146000004752,1.21,3234.7118109000003,,,,,532,19,Woman,Right,
,,,,,,,,,,,,,,,,,532,19,Woman,Right,5,1,1,2,0,180,180,2.0226363000001584,['y'],0.994130000000041,1.21,3234.7118109000003,,,,,532,19,Woman,Right,
,,,,,,,,,,,,,,,,,,,,,,,,,,,,,,,,,65.0,72.5,62.5,2692.7780388,,,,,
