p_block,p_section,p_coherence,p_direction1,p_direction2,p_direction_response,p_direction_RT,p_change_response,p_change_RT,p_confidence,p_full_correct,p_without5_correct,p_full_total,p_without5_total,p_full_avg,p_witout5_avg,p_total_time,sub,age,sex,handedness,loop,trial randomization,coherence,condition,direction1,direction2,direction_response,direction_RT,change_response,change_RT,change_confidence,change_confidence_RT,block_direction_avg,block_stable_avg,block_change_avg,total_time,sub,age,sex,handedness,
1,1,1.0,180,-,180,0.4154465000001437,-,-,-,,,,,,,,554,18,Woman,Right,,,,,,,,,,,,,,,,,554,18,Woman,Right,
1,1,1.0,0,-,0,1.0488006000000496,-,-,-,,,,,,,,554,18,Woman,Right,,,,,,,,,,,,,,,,,554,18,Woman,Right,
1,1,1.0,0,-,0,0.8088420999999926,-,-,-,,,,,,,,554,18,Woman,Right,,,,,,,,,,,,,,,,,554,18,Woman,Right,
1,1,1.0,0,-,0,0.21092270000008284,-,-,-,,,,,,,,554,18,Woman,Right,,,,,,,,,,,,,,,,,554,18,Woman,Right,
1,1,1.0,180,-,180,0.6126782999999705,-,-,-,,,,,,,,554,18,Woman,Right,,,,,,,,,,,,,,,,,554,18,Woman,Right,
1,1,1.0,180,-,180,0.4626954000000296,-,-,-,,,,,,,,554,18,Woman,Right,,,,,,,,,,,,,,,,,554,18,Woman,Right,
1,1,1.0,0,-,0,0.1667909000000236,-,-,-,,,,,,,,554,18,Woman,Right,,,,,,,,,,,,,,,,,554,18,Woman,Right,
1,1,1.0,0,-,0,0.16985619999991286,-,-,-,,,,,,,,554,18,Woman,Right,,,,,,,,,,,,,,,,,554,18,Woman,Right,
1,1,1.0,0,-,0,0.4456566000001203,-,-,-,,,,,,,,554,18,Woman,Right,,,,,,,,,,,,,,,,,554,18,Woman,Right,
1,1,1.0,180,-,180,0.4619979000001422,-,-,-,10,10,10,10,1.0,1.0,,554,18,Woman,Right,,,,,,,,,,,,,,,,,554,18,Woman,Right,
2,1,0.15,0,-,0,1.3338481999999203,-,-,-,,,,,,,,554,18,Woman,Right,,,,,,,,,,,,,,,,,554,18,Woman,Right,
2,1,0.4,0,-,0,0.5664630999999645,-,-,-,,,,,,,,554,18,Woman,Right,,,,,,,,,,,,,,,,,554,18,Woman,Right,
2,1,0.15,0,-,180,0.8016740999999001,-,-,-,,,,,,,,554,18,Woman,Right,,,,,,,,,,,,,,,,,554,18,Woman,Right,
2,1,0.15,180,-,180,0.5243435999998383,-,-,-,,,,,,,,554,18,Woman,Right,,,,,,,,,,,,,,,,,554,18,Woman,Right,
2,1,0.4,0,-,180,1.2253521999998611,-,-,-,,,,,,,,554,18,Woman,Right,,,,,,,,,,,,,,,,,554,18,Woman,Right,
2,1,0.4,180,-,180,0.41101930000013454,-,-,-,,,,,,,,554,18,Woman,Right,,,,,,,,,,,,,,,,,554,18,Woman,Right,
2,1,0.4,180,-,180,0.36528530000009596,-,-,-,,,,,,,,554,18,Woman,Right,,,,,,,,,,,,,,,,,554,18,Woman,Right,
2,1,0.4,0,-,0,0.33677140000008876,-,-,-,,,,,,,,554,18,Woman,Right,,,,,,,,,,,,,,,,,554,18,Woman,Right,
2,1,0.4,0,-,0,0.17328300000008312,-,-,-,,,,,,,,554,18,Woman,Right,,,,,,,,,,,,,,,,,554,18,Woman,Right,
2,1,0.15,180,-,180,0.4012505999999121,-,-,-,8,5,10,6,0.8,0.8333333333333334,,554,18,Woman,Right,,,,,,,,,,,,,,,,,554,18,Woman,Right,
3,2,1.0,0,180,180,2.5666628999997556,['y'],3.1923028999999588,2,,,,,,,,554,18,Woman,Right,,,,,,,,,,,,,,,,,554,18,Woman,Right,
3,2,1.0,180,0,0,1.0658640999999989,['y'],1.4716536000000815,2.0,,,,,,,,554,18,Woman,Right,,,,,,,,,,,,,,,,,554,18,Woman,Right,
3,2,1.0,180,0,0,1.2792245999999068,['y'],1.5984248999998272,2.0,,,,,,,,554,18,Woman,Right,,,,,,,,,,,,,,,,,554,18,Woman,Right,
3,2,1.0,180,0,0,0.9587218000001485,['y'],1.2515869999997449,2.0,,,,,,,,554,18,Woman,Right,,,,,,,,,,,,,,,,,554,18,Woman,Right,
3,2,1.0,180,0,0,0.8445314999999027,['y'],0.8873371999998199,2.0,,,,,,,,554,18,Woman,Right,,,,,,,,,,,,,,,,,554,18,Woman,Right,
3,2,1.0,180,0,0,0.9459984000000077,['y'],1.0574827000000369,2.0,,,,,,,,554,18,Woman,Right,,,,,,,,,,,,,,,,,554,18,Woman,Right,
3,2,1.0,0,180,180,0.7178296000001865,['y'],0.8330326000000241,2.0,,,,,,,,554,18,Woman,Right,,,,,,,,,,,,,,,,,554,18,Woman,Right,
3,2,1.0,0,180,180,0.8502739000000474,['y'],0.9824075000001358,1.9020000000000001,,,,,,,,554,18,Woman,Right,,,,,,,,,,,,,,,,,554,18,Woman,Right,
3,2,1.0,0,180,180,0.5669219999999768,['y'],0.5686531999999715,1.904,,,,,,,,554,18,Woman,Right,,,,,,,,,,,,,,,,,554,18,Woman,Right,
3,2,1.0,0,180,180,0.6287928000001557,['y'],1.0055947999999262,1.818,10,10,10,10,1.0,1.0,,554,18,Woman,Right,,,,,,,,,,,,,,,,,554,18,Woman,Right,
4,2,0.4,0,180,180,2.233629800000017,['y'],1.175346399999853,1.754,,,,,,,,554,18,Woman,Right,,,,,,,,,,,,,,,,,554,18,Woman,Right,
4,2,0.15,0,180,180,2.9340400999999474,['n'],1.0228802000001451,1.672,,,,,,,,554,18,Woman,Right,,,,,,,,,,,,,,,,,554,18,Woman,Right,
4,2,0.4,180,0,0,0.8980897000001278,['y'],1.2865388999998686,1.696,,,,,,,,554,18,Woman,Right,,,,,,,,,,,,,,,,,554,18,Woman,Right,
4,2,0.15,180,0,0,0.7874471999998605,['y'],2.2690685000002304,1.742,,,,,,,,554,18,Woman,Right,,,,,,,,,,,,,,,,,554,18,Woman,Right,
4,2,0.15,180,0,0,0.8353468999998768,['y'],1.3317425000000185,1.75,,,,,,,,554,18,Woman,Right,,,,,,,,,,,,,,,,,554,18,Woman,Right,
4,2,0.4,0,180,180,0.5815078999999059,['y'],1.0420725999997558,1.792,,,,,,,,554,18,Woman,Right,,,,,,,,,,,,,,,,,554,18,Woman,Right,
4,2,0.4,0,180,180,0.48676789999990433,['y'],1.0717267999998512,1.8860000000000001,,,,,,,,554,18,Woman,Right,,,,,,,,,,,,,,,,,554,18,Woman,Right,
4,2,0.4,180,0,0,0.45541019999973287,['y'],1.2812862999999197,1.768,,,,,,,,554,18,Woman,Right,,,,,,,,,,,,,,,,,554,18,Woman,Right,
4,2,0.4,180,0,0,0.5506344999998873,['y'],0.5533670999998321,1.824,,,,,,,,554,18,Woman,Right,,,,,,,,,,,,,,,,,554,18,Woman,Right,
4,2,0.4,0,180,180,2.133639099999982,['y'],1.1058517999999822,1.82,10,7,10,7,1.0,1.0,,554,18,Woman,Right,,,,,,,,,,,,,,,,,554,18,Woman,Right,
5,3,0.4,0,-,180,1.4658340000000862,['y'],6.834822199999962,1.702,,,,,,,,554,18,Woman,Right,,,,,,,,,,,,,,,,,554,18,Woman,Right,
5,3,0.15,0,180,0,2.545381599999928,['n'],1.064588900000217,1.714,,,,,,,,554,18,Woman,Right,,,,,,,,,,,,,,,,,554,18,Woman,Right,
5,3,0.15,0,-,180,0.7482855000002928,['y'],2.789324999999735,1.658,,,,,,,,554,18,Woman,Right,,,,,,,,,,,,,,,,,554,18,Woman,Right,
5,3,1.0,180,0,0,1.7139149000004181,['y'],0.9100259000001643,1.742,,,,,,,,554,18,Woman,Right,,,,,,,,,,,,,,,,,554,18,Woman,Right,
5,3,0.15,180,-,0,1.8754688999997597,['y'],3.0332188000002134,1.708,,,,,,,,554,18,Woman,Right,,,,,,,,,,,,,,,,,554,18,Woman,Right,
5,3,0.4,0,180,180,0.6632687999999689,['y'],0.8487271999997574,1.774,,,,,,,,554,18,Woman,Right,,,,,,,,,,,,,,,,,554,18,Woman,Right,
5,3,0.15,180,0,0,2.4093126000002485,['n'],1.7891945000001215,1.728,,,,,,,,554,18,Woman,Right,,,,,,,,,,,,,,,,,554,18,Woman,Right,
5,3,0.15,180,0,0,0.617901399999937,['y'],1.2290358000000197,1.744,,,,,,,,554,18,Woman,Right,,,,,,,,,,,,,,,,,554,18,Woman,Right,
5,3,0.4,180,0,0,0.4828131999997822,['y'],1.3409757999997964,1.7,,,,,,,,554,18,Woman,Right,,,,,,,,,,,,,,,,,554,18,Woman,Right,
5,3,0.15,180,-,180,3.3397688999998536,['n'],0.9092516999999134,1.5979999999999999,,,,,,,,554,18,Woman,Right,,,,,,,,,,,,,,,,,554,18,Woman,Right,
5,3,0.15,0,180,180,0.5342875000001186,['n'],0.4973528999998962,1.658,,,,,,,,554,18,Woman,Right,,,,,,,,,,,,,,,,,554,18,Woman,Right,
5,3,0.15,180,0,180,1.5006178000003274,['n'],0.890759600000365,1.794,,,,,,,,554,18,Woman,Right,,,,,,,,,,,,,,,,,554,18,Woman,Right,
5,3,1.0,180,-,180,1.1453756000000794,['n'],0.8792459999999664,1.78,,,,,,,,554,18,Woman,Right,,,,,,,,,,,,,,,,,554,18,Woman,Right,
5,3,0.15,180,0,180,2.126545299999634,['n'],0.7654514000000745,1.714,,,,,,,,554,18,Woman,Right,,,,,,,,,,,,,,,,,554,18,Woman,Right,
5,3,1.0,180,-,0,2.749793999999838,['n'],1.5340728000001036,1.736,,,,,,,,554,18,Woman,Right,,,,,,,,,,,,,,,,,554,18,Woman,Right,
5,3,0.4,180,-,0,1.3165976999998747,['n'],1.5589058999998997,1.612,,,,,,,,554,18,Woman,Right,,,,,,,,,,,,,,,,,554,18,Woman,Right,
5,3,0.15,180,0,180,0.8029477000000043,['n'],1.353628800000024,1.424,,,,,,,,554,18,Woman,Right,,,,,,,,,,,,,,,,,554,18,Woman,Right,
5,3,0.4,180,0,0,0.7090257999998357,['y'],0.8892006000000947,1.692,,,,,,,,554,18,Woman,Right,,,,,,,,,,,,,,,,,554,18,Woman,Right,
5,3,1.0,0,-,0,0.8616507000001548,['n'],0.8301999000000251,1.708,,,,,,,,554,18,Woman,Right,,,,,,,,,,,,,,,,,554,18,Woman,Right,
5,3,1.0,180,-,180,1.1155926999999792,['n'],1.38672889999998,1.654,,,,,,,,554,18,Woman,Right,,,,,,,,,,,,,,,,,554,18,Woman,Right,
5,3,0.15,180,0,0,0.5102151000000958,['y'],1.9752568999997493,1.612,,,,,,,,554,18,Woman,Right,,,,,,,,,,,,,,,,,554,18,Woman,Right,
5,3,0.15,0,180,180,0.6434223000001111,['y'],1.9762856000002103,1.704,,,,,,,,554,18,Woman,Right,,,,,,,,,,,,,,,,,554,18,Woman,Right,
5,3,1.0,180,0,0,0.5309759000001577,['y'],0.8133007999999791,1.748,,,,,,,,554,18,Woman,Right,,,,,,,,,,,,,,,,,554,18,Woman,Right,
5,3,0.4,180,-,180,0.913529699999799,['n'],0.9813478999999461,1.798,,,,,,,,554,18,Woman,Right,,,,,,,,,,,,,,,,,554,18,Woman,Right,
5,3,0.15,0,-,0,1.0275421999999708,['n'],0.899853300000359,1.73,,,,,,,,554,18,Woman,Right,,,,,,,,,,,,,,,,,554,18,Woman,Right,
5,3,1.0,0,180,180,0.5608179000000746,['y'],0.65274509999972,1.778,,,,,,,,554,18,Woman,Right,,,,,,,,,,,,,,,,,554,18,Woman,Right,
5,3,0.15,0,-,180,0.686105299999781,['n'],1.341447700000117,1.724,,,,,,,,554,18,Woman,Right,,,,,,,,,,,,,,,,,554,18,Woman,Right,
5,3,0.15,0,-,0,0.7502031999997598,['n'],0.9505207000001974,1.77,,,,,,,,554,18,Woman,Right,,,,,,,,,,,,,,,,,554,18,Woman,Right,
5,3,1.0,0,-,0,0.54995370000006,['n'],0.3803120000002309,1.718,,,,,,,,554,18,Woman,Right,,,,,,,,,,,,,,,,,554,18,Woman,Right,
5,3,0.4,180,-,180,0.752143100000012,['n'],1.0559377000004133,1.736,9,5,10,5,0.9,1.0,,554,18,Woman,Right,,,,,,,,,,,,,,,,,554,18,Woman,Right,
,,,,,,,,,,,,,,,,3.999999989900971e-06,554,18,Woman,Right,,,,,,,,,,,,,,,,,554,18,Woman,Right,
,,,,,,,,,,,,,,,,,554,18,Woman,Right,0,15,0.4,2,180,0,0,0.9168755000000601,['y'],5.995444500000303,1.62,544.4845104000001,,,,,554,18,Woman,Right,
,,,,,,,,,,,,,,,,,554,18,Woman,Right,0,60,0.15,1,0,-,0,0.700064999999995,['n'],3.5870942999999897,1.3860000000000001,553.1837940999999,,,,,554,18,Woman,Right,
,,,,,,,,,,,,,,,,,554,18,Woman,Right,0,79,0.15,2,180,0,180,1.5467188999996324,['n'],4.748378500000399,1.436,563.350328,,,,,554,18,Woman,Right,
,,,,,,,,,,,,,,,,,554,18,Woman,Right,0,69,0.15,2,0,180,180,0.573857500000031,['y'],2.5495858999997836,1.5819999999999999,572.3836595000002,,,,,554,18,Woman,Right,
,,,,,,,,,,,,,,,,,554,18,Woman,Right,0,11,0.4,2,180,0,0,0.48318719999997484,['y'],1.6805943999997908,1.634,578.3345598999999,,,,,554,18,Woman,Right,
,,,,,,,,,,,,,,,,,554,18,Woman,Right,0,21,0.4,2,0,180,180,0.5845320000003085,['y'],0.9828330000000278,1.65,583.3003076999998,,,,,554,18,Woman,Right,
,,,,,,,,,,,,,,,,,554,18,Woman,Right,0,72,0.15,1,0,-,0,1.677135299999918,['n'],1.5357506999998805,1.682,590.3678871000002,,,,,554,18,Woman,Right,
,,,,,,,,,,,,,,,,,554,18,Woman,Right,0,31,0.4,2,180,0,0,0.9520588000000316,['y'],1.0563122000003204,1.662,596.4670143000003,,,,,554,18,Woman,Right,
,,,,,,,,,,,,,,,,,554,18,Woman,Right,0,48,0.15,1,0,-,0,0.7287820999999894,['n'],1.329211100000066,1.6099999999999999,603.1003220000002,,,,,554,18,Woman,Right,
,,,,,,,,,,,,,,,,,554,18,Woman,Right,0,77,0.15,2,0,180,180,1.2001640999997107,['n'],1.7112340000003314,1.5819999999999999,610.2003856000001,,,,,554,18,Woman,Right,
,,,,,,,,,,,,,,,,,554,18,Woman,Right,0,58,0.15,1,180,-,180,0.9352121000001716,['n'],2.7391155999998773,1.5779999999999998,618.1670242,,,,,554,18,Woman,Right,
,,,,,,,,,,,,,,,,,554,18,Woman,Right,0,42,0.4,1,180,-,180,0.6731367000002138,['n'],1.3723220000001675,1.624,623.8336976,,,,,554,18,Woman,Right,
,,,,,,,,,,,,,,,,,554,18,Woman,Right,0,64,0.15,1,0,-,180,0.7084079999999631,['n'],1.3165625000001455,1.688,629.3174205,,,,,554,18,Woman,Right,
,,,,,,,,,,,,,,,,,554,18,Woman,Right,0,7,1,2,180,0,0,0.9000338000000738,['y'],1.117387900000267,1.756,635.1337035000001,,,,,554,18,Woman,Right,
,,,,,,,,,,,,,,,,,554,18,Woman,Right,0,65,0.15,2,0,180,180,0.6713395000001583,['n'],1.326005900000382,1.646,640.4503297000001,,,,,554,18,Woman,Right,
,,,,,,,,,,,,,,,,,554,18,Woman,Right,0,59,0.15,2,180,0,0,0.6610311999997975,['n'],1.1988163999999415,1.684,645.5669403000002,,,,,554,18,Woman,Right,
,,,,,,,,,,,,,,,,,554,18,Woman,Right,0,12,0.4,1,0,-,0,0.6384585999999217,['n'],0.9997167000001355,1.77,650.6173085999999,,,,,554,18,Woman,Right,
,,,,,,,,,,,,,,,,,554,18,Woman,Right,0,63,0.15,2,180,0,180,1.0972563999998783,['n'],1.1040353000003051,1.404,656.2838256999999,,,,,554,18,Woman,Right,
,,,,,,,,,,,,,,,,,554,18,Woman,Right,0,16,0.4,1,0,-,0,1.0512893999998596,['n'],1.488676899999973,1.4,662.2836553000002,,,,,554,18,Woman,Right,
,,,,,,,,,,,,,,,,,554,18,Woman,Right,0,17,0.4,2,0,180,180,1.0003331000002618,['y'],1.28739110000015,1.6440000000000001,668.0836981000002,,,,,554,18,Woman,Right,
,,,,,,,,,,,,,,,,,554,18,Woman,Right,0,53,0.15,2,0,180,0,1.014747300000181,['y'],1.2419334999999592,1.6219999999999999,673.7837394000003,,,,,554,18,Woman,Right,
,,,,,,,,,,,,,,,,,554,18,Woman,Right,0,4,1,1,0,-,0,1.5357113000000027,['n'],1.0032673999999133,1.6440000000000001,679.4670338999999,,,,,554,18,Woman,Right,
,,,,,,,,,,,,,,,,,554,18,Woman,Right,0,51,0.15,2,180,0,180,1.4039788000000044,['n'],2.3875613000000158,1.562,686.3503945000002,,,,,554,18,Woman,Right,
,,,,,,,,,,,,,,,,,554,18,Woman,Right,0,70,0.15,1,180,-,180,0.6070826000000125,['n'],0.7325027000001683,1.626,691.0339795,,,,,554,18,Woman,Right,
,,,,,,,,,,,,,,,,,554,18,Woman,Right,0,73,0.15,2,0,180,180,0.6333847999999307,['n'],1.1000914000001103,1.388,695.6170685000002,,,,,554,18,Woman,Right,
,,,,,,,,,,,,,,,,,554,18,Woman,Right,0,78,0.15,1,180,-,0,0.5592996999998832,['n'],1.0296226000000388,1.418,700.4003929999999,,,,,554,18,Woman,Right,
,,,,,,,,,,,,,,,,,554,18,Woman,Right,0,38,0.4,1,180,-,180,0.7043837999999596,['n'],2.2626223999996,1.3679999999999999,707.3003948999999,,,,,554,18,Woman,Right,
,,,,,,,,,,,,,,,,,554,18,Woman,Right,0,25,0.4,2,0,180,180,3.8077385999999933,['y'],1.1354734999999891,1.5819999999999999,715.9503497000001,,,,,554,18,Woman,Right,
,,,,,,,,,,,,,,,,,554,18,Woman,Right,0,62,0.15,1,180,-,0,0.6499054000000797,['n'],1.0720148999998855,1.4,721.1170296,,,,,554,18,Woman,Right,
,,,,,,,,,,,,,,,,,554,18,Woman,Right,0,10,0.4,1,180,-,0,1.2569644999998673,['y'],1.2331374999998843,1.428,727.9003522000003,,,,,554,18,Woman,Right,
,,,,,,,,,,,,,,,,,554,18,Woman,Right,0,29,0.4,2,0,180,180,1.5182816000001367,['y'],2.0981505999998262,1.5819999999999999,734.8504170000001,,,,,554,18,Woman,Right,
,,,,,,,,,,,,,,,,,554,18,Woman,Right,0,44,0.15,1,0,-,0,0.8132991000002221,['n'],2.4747436999996353,1.588,741.5338139,,,,,554,18,Woman,Right,
,,,,,,,,,,,,,,,,,554,18,Woman,Right,0,33,0.4,2,0,180,180,0.7036008999998558,['y'],1.0276824000002307,1.634,746.8507012,,,,,554,18,Woman,Right,
,,,,,,,,,,,,,,,,,554,18,Woman,Right,0,35,0.4,2,180,0,0,0.6067720000000918,['y'],0.9081131000002642,1.6019999999999999,752.1837541,,,,,554,18,Woman,Right,
,,,,,,,,,,,,,,,,,554,18,Woman,Right,0,19,0.4,2,180,0,0,0.6835203000000547,['y'],1.1277838999999403,1.634,758.1843621000003,,,,,554,18,Woman,Right,
,,,,,,,,,,,,,,,,,554,18,Woman,Right,0,26,0.4,1,180,-,0,2.5175757000001795,['y'],0.9099018000001706,1.5859999999999999,765.1670518000001,,,,,554,18,Woman,Right,
,,,,,,,,,,,,,,,,,554,18,Woman,Right,0,9,0.4,2,0,180,180,0.8003724000000147,['y'],1.1905037000001357,1.5979999999999999,770.8003961,,,,,554,18,Woman,Right,
,,,,,,,,,,,,,,,,,554,18,Woman,Right,0,18,0.4,1,180,-,0,1.245995000000221,['y'],0.9028916000002027,1.562,776.7837217000001,,,,,554,18,Woman,Right,
,,,,,,,,,,,,,,,,,554,18,Woman,Right,0,22,0.4,1,180,-,0,0.599520400000074,['y'],0.9921486000002915,1.6099999999999999,782.417285,,,,,554,18,Woman,Right,
,,,,,,,,,,,,,,,,,554,18,Woman,Right,0,56,0.15,1,0,-,0,1.20008850000022,['n'],1.1422308000001067,1.422,788.0836442,,,,,554,18,Woman,Right,
,,,,,,,,,,,,,,,,,554,18,Woman,Right,0,47,0.15,2,180,0,0,0.5981304000001728,['y'],2.169601000000057,1.418,795.0839159000002,,,,,554,18,Woman,Right,
,,,,,,,,,,,,,,,,,554,18,Woman,Right,0,27,0.4,2,180,0,0,2.580526700000064,['y'],0.8659998000002815,1.3940000000000001,801.7172525000001,,,,,554,18,Woman,Right,
,,,,,,,,,,,,,,,,,554,18,Woman,Right,0,28,0.4,1,0,-,0,1.1373524999999063,['n'],1.0427061000000322,1.424,807.5837909000002,,,,,554,18,Woman,Right,
,,,,,,,,,,,,,,,,,554,18,Woman,Right,0,30,0.4,1,180,-,0,2.7748014999997395,['y'],1.44405579999966,1.37,815.0004038000002,,,,,554,18,Woman,Right,
,,,,,,,,,,,,,,,,,554,18,Woman,Right,0,67,0.15,2,180,0,0,1.938479599999937,['n'],1.2604330000003756,1.4020000000000001,821.6670465000002,,,,,554,18,Woman,Right,
,,,,,,,,,,,,,,,,,554,18,Woman,Right,0,2,1,1,180,-,180,2.3859606000000895,['n'],1.8068564000000151,1.3719999999999999,829.1670414999999,,,,,554,18,Woman,Right,
,,,,,,,,,,,,,,,,,554,18,Woman,Right,0,66,0.15,1,180,-,180,0.9315183999997316,['n'],2.886949900000218,1.392,836.2670717999999,,,,,554,18,Woman,Right,
,,,,,,,,,,,,,,,,,554,18,Woman,Right,0,74,0.15,1,180,-,0,0.9827645999998822,['n'],1.1595322000002852,1.426,841.6671672000002,,,,,554,18,Woman,Right,
,,,,,,,,,,,,,,,,,554,18,Woman,Right,0,20,0.4,1,0,-,0,1.3826570999999603,['n'],6.169159200000195,1.3860000000000001,853.0837864999999,,,,,554,18,Woman,Right,
,,,,,,,,,,,,,,,,,554,18,Woman,Right,0,50,0.15,1,180,-,0,2.565243599999576,['n'],2.122164299999895,1.4140000000000001,861.6670791000001,,,,,554,18,Woman,Right,
,,,,,,,,,,,,,,,,,554,18,Woman,Right,0,46,0.15,1,180,-,0,0.5894445000003543,['n'],0.947026299999834,1.4020000000000001,866.4171716000001,,,,,554,18,Woman,Right,
,,,,,,,,,,,,,,,,,554,18,Woman,Right,0,14,0.4,1,180,-,0,0.41307340000003023,['y'],0.8748433000000659,1.552,871.6339747000002,,,,,554,18,Woman,Right,
,,,,,,,,,,,,,,,,,554,18,Woman,Right,0,39,0.4,2,180,0,0,0.44999819999975443,['y'],1.4991365999999289,1.5779999999999998,877.1170680999999,,,,,554,18,Woman,Right,
,,,,,,,,,,,,,,,,,554,18,Woman,Right,0,37,0.4,2,0,180,180,0.6198626000000331,['y'],0.8285919999998441,1.616,882.2511374000001,,,,,554,18,Woman,Right,
,,,,,,,,,,,,,,,,,554,18,Woman,Right,0,68,0.15,1,0,-,0,0.830572200000006,['n'],0.9012281999998777,1.564,887.4671040000003,,,,,554,18,Woman,Right,
,,,,,,,,,,,,,,,,,554,18,Woman,Right,0,5,1,2,0,180,180,1.2076888000001418,['y'],0.8698096999996778,1.724,892.7173520000001,,,,,554,18,Woman,Right,
,,,,,,,,,,,,,,,,,554,18,Woman,Right,0,23,0.4,2,180,0,0,1.0049831000001177,['y'],1.1426170999998249,1.658,898.3845925999999,,,,,554,18,Woman,Right,
,,,,,,,,,,,,,,,,,554,18,Woman,Right,0,41,0.4,2,0,180,180,1.9187457999996695,['y'],0.847256699999889,1.684,904.8671417999999,,,,,554,18,Woman,Right,
,,,,,,,,,,,,,,,,,554,18,Woman,Right,0,40,0.4,1,0,-,180,1.76671049999959,['y'],1.5895884999999907,1.6059999999999999,912.4004083,,,,,554,18,Woman,Right,
,,,,,,,,,,,,,,,,,554,18,Woman,Right,0,36,0.4,1,0,-,0,1.161821400000008,['n'],0.9532945999999356,1.6019999999999999,918.0839264000001,,,,,554,18,Woman,Right,
,,,,,,,,,,,,,,,,,554,18,Woman,Right,0,55,0.15,2,180,0,0,0.8058222999998179,['y'],0.8342493000000104,1.6,925.1673283999999,,,,,554,18,Woman,Right,
,,,,,,,,,,,,,,,,,554,18,Woman,Right,0,34,0.4,1,180,-,0,0.5732254999998077,['y'],0.8346596000001227,1.592,929.9006512000001,,,,,554,18,Woman,Right,
,,,,,,,,,,,,,,,,,554,18,Woman,Right,0,8,0.4,1,0,-,180,1.6333891999997832,['y'],0.8900260999998864,1.588,936.7337347000002,,,,,554,18,Woman,Right,
,,,,,,,,,,,,,,,,,554,18,Woman,Right,0,3,1,2,180,0,0,0.8973127999997814,['y'],0.7960911000000124,1.6400000000000001,942.0671015000003,,,,,554,18,Woman,Right,
,,,,,,,,,,,,,,,,,554,18,Woman,Right,0,24,0.4,1,0,-,0,1.0720950999998422,['n'],1.0687815000001137,1.442,948.5671448000003,,,,,554,18,Woman,Right,
,,,,,,,,,,,,,,,,,554,18,Woman,Right,0,75,0.15,2,180,0,0,1.78382640000018,['y'],0.8696731,1.4,954.3504499000001,,,,,554,18,Woman,Right,
,,,,,,,,,,,,,,,,,554,18,Woman,Right,0,49,0.15,2,0,180,0,0.6703068000001622,['n'],0.9582721000001584,1.4020000000000001,959.7004032,,,,,554,18,Woman,Right,
,,,,,,,,,,,,,,,,,554,18,Woman,Right,0,76,0.15,1,0,-,0,1.5245324000002256,['n'],1.2468155999999908,1.438,965.9836899000002,,,,,554,18,Woman,Right,
,,,,,,,,,,,,,,,,,554,18,Woman,Right,0,1,1,2,0,180,180,0.8752976000000672,['y'],0.7278233000001819,1.722,970.8837723000001,,,,,554,18,Woman,Right,
,,,,,,,,,,,,,,,,,554,18,Woman,Right,0,61,0.15,2,0,180,180,2.118539300000066,['y'],0.8966295000000173,1.592,977.8504575000002,,,,,554,18,Woman,Right,
,,,,,,,,,,,,,,,,,554,18,Woman,Right,0,32,0.4,1,0,-,0,2.270584300000337,['n'],0.7214319999998224,1.558,984.2337658000001,,,,,554,18,Woman,Right,
,,,,,,,,,,,,,,,,,554,18,Woman,Right,0,6,1,1,180,-,0,1.950521000000208,['y'],1.4823734999999942,1.6059999999999999,991.0504737000001,,,,,554,18,Woman,Right,
,,,,,,,,,,,,,,,,,554,18,Woman,Right,0,71,0.15,2,180,0,0,1.3002103999997416,['n'],0.8723433999998633,1.3980000000000001,996.6344816000001,,,,,554,18,Woman,Right,
,,,,,,,,,,,,,,,,,554,18,Woman,Right,0,43,0.4,2,180,0,0,0.6862945000002583,['n'],1.0519001999996362,1.354,1001.7172971999998,,,,,554,18,Woman,Right,
,,,,,,,,,,,,,,,,,554,18,Woman,Right,0,57,0.15,2,0,180,0,1.0172036000003573,['n'],1.0523320000002059,1.35,1007.0006520000002,,,,,554,18,Woman,Right,
,,,,,,,,,,,,,,,,,554,18,Woman,Right,0,54,0.15,1,180,-,0,0.48649129999967045,['n'],0.7811093999998775,1.3479999999999999,1011.5671577000003,,,,,554,18,Woman,Right,
,,,,,,,,,,,,,,,,,554,18,Woman,Right,0,13,0.4,2,0,180,0,2.5067017999999734,['n'],2.35846360000005,1.274,1020.0504820000001,,,,,554,18,Woman,Right,
,,,,,,,,,,,,,,,,,554,18,Woman,Right,0,0,1,1,0,-,0,0.5280277000001661,['n'],0.7983564999999544,1.646,1025.0004162999999,,,,,554,18,Woman,Right,
,,,,,,,,,,,,,,,,,554,18,Woman,Right,0,52,0.15,1,0,-,180,2.2192614000000503,['y'],0.8075634000001628,1.584,1031.2504600000002,,,,,554,18,Woman,Right,
,,,,,,,,,,,,,,,,,554,18,Woman,Right,0,45,0.15,2,0,180,0,1.1524320999997144,['n'],1.0883303999999043,1.682,1036.8338866,,,,,554,18,Woman,Right,
,,,,,,,,,,,,,,,,,554,18,Woman,Right,1,66,0.15,1,180,-,180,0.7056341000002249,['y'],0.7990033999999469,1.592,1091.8006477,67.5,72.5,65.0,,554,18,Woman,Right,
,,,,,,,,,,,,,,,,,554,18,Woman,Right,1,67,0.15,2,180,0,0,0.5605290999997123,['y'],1.6321606999999858,1.6099999999999999,1097.183766,,,,,554,18,Woman,Right,
,,,,,,,,,,,,,,,,,554,18,Woman,Right,1,27,0.4,2,180,0,0,0.8776091999998243,['y'],0.6808588999997482,1.5819999999999999,1102.0673673000001,,,,,554,18,Woman,Right,
,,,,,,,,,,,,,,,,,554,18,Woman,Right,1,36,0.4,1,0,-,0,0.6128218000003471,['n'],0.78521580000006,1.5979999999999999,1106.7339545,,,,,554,18,Woman,Right,
,,,,,,,,,,,,,,,,,554,18,Woman,Right,1,12,0.4,1,0,-,180,1.1374491999999918,['n'],0.8340507000002617,1.584,1113.5837470000001,,,,,554,18,Woman,Right,
,,,,,,,,,,,,,,,,,554,18,Woman,Right,1,70,0.15,1,180,-,180,0.775357299999996,['n'],0.6345295999999507,1.55,1118.0005683,,,,,554,18,Woman,Right,
,,,,,,,,,,,,,,,,,554,18,Woman,Right,1,52,0.15,1,0,-,180,0.9661200999998982,['n'],0.7951348999999936,1.5739999999999998,1122.8838107000001,,,,,554,18,Woman,Right,
,,,,,,,,,,,,,,,,,554,18,Woman,Right,1,44,0.15,1,0,-,0,0.6733355999999731,['n'],0.7480798999999934,1.57,1127.7506965000002,,,,,554,18,Woman,Right,
,,,,,,,,,,,,,,,,,554,18,Woman,Right,1,65,0.15,2,0,180,180,0.5033241999999518,['n'],0.6605397000002995,1.418,1132.3338326000003,,,,,554,18,Woman,Right,
,,,,,,,,,,,,,,,,,554,18,Woman,Right,1,6,1,1,180,-,180,0.8007803000000422,['n'],1.364975399999821,1.458,1138.2004782,,,,,554,18,Woman,Right,
,,,,,,,,,,,,,,,,,554,18,Woman,Right,1,5,1,2,0,180,180,0.8723430999998527,['y'],0.7335506000003988,1.69,1143.1504688,,,,,554,18,Woman,Right,
,,,,,,,,,,,,,,,,,554,18,Woman,Right,1,73,0.15,2,0,180,0,0.6013938999999482,['n'],0.8383506999998644,1.58,1148.4671475999999,,,,,554,18,Woman,Right,
,,,,,,,,,,,,,,,,,554,18,Woman,Right,1,76,0.15,1,0,-,0,0.5066154000001006,['n'],0.7904441000000588,1.5819999999999999,1154.6680523,,,,,554,18,Woman,Right,
,,,,,,,,,,,,,,,,,554,18,Woman,Right,1,1,1,2,0,180,180,0.7640768999999636,['y'],1.0478281000000607,1.6600000000000001,1159.7840578999999,,,,,554,18,Woman,Right,
,,,,,,,,,,,,,,,,,554,18,Woman,Right,1,18,0.4,1,180,-,0,1.3604765999998563,['y'],1.2322280000003047,1.544,1165.9840083,,,,,554,18,Woman,Right,
,,,,,,,,,,,,,,,,,554,18,Woman,Right,1,35,0.4,2,180,0,180,0.8984093000003668,['y'],3.6173182999996243,1.392,1175.2170368000002,,,,,554,18,Woman,Right,
,,,,,,,,,,,,,,,,,554,18,Woman,Right,1,29,0.4,2,0,180,180,0.6408438999997088,['y'],0.8103157999998984,1.44,1180.5671695,,,,,554,18,Woman,Right,
,,,,,,,,,,,,,,,,,554,18,Woman,Right,1,50,0.15,1,180,-,180,0.7395258999999896,['n'],1.035139000000072,1.584,1186.3838020000003,,,,,554,18,Woman,Right,
,,,,,,,,,,,,,,,,,554,18,Woman,Right,1,34,0.4,1,180,-,180,0.6840471000000434,['n'],0.7317895000001045,1.616,1191.1505153000003,,,,,554,18,Woman,Right,
,,,,,,,,,,,,,,,,,554,18,Woman,Right,1,79,0.15,2,180,0,180,0.5133498999998665,['n'],0.8603794000000562,1.418,1195.6338033000002,,,,,554,18,Woman,Right,
,,,,,,,,,,,,,,,,,554,18,Woman,Right,1,47,0.15,2,180,0,180,0.49472830000013346,['n'],0.6848492999997688,1.35,1200.1174157,,,,,554,18,Woman,Right,
,,,,,,,,,,,,,,,,,554,18,Woman,Right,1,22,0.4,1,180,-,180,0.6492613000000347,['n'],0.8856568999999581,1.468,1204.7507262,,,,,554,18,Woman,Right,
,,,,,,,,,,,,,,,,,554,18,Woman,Right,1,78,0.15,1,180,-,0,0.6998530000000756,['n'],0.8583733999998913,1.55,1209.8006899000002,,,,,554,18,Woman,Right,
,,,,,,,,,,,,,,,,,554,18,Woman,Right,1,30,0.4,1,180,-,180,0.5167342999998255,['n'],0.7187379999995755,1.422,1214.4173460000002,,,,,554,18,Woman,Right,
,,,,,,,,,,,,,,,,,554,18,Woman,Right,1,61,0.15,2,0,180,180,1.4246616999998878,['n'],1.2077691999998024,1.3940000000000001,1222.1340301,,,,,554,18,Woman,Right,
,,,,,,,,,,,,,,,,,554,18,Woman,Right,1,41,0.4,2,0,180,0,0.8680472999999438,['n'],4.904963999999836,1.5859999999999999,1231.9837630000002,,,,,554,18,Woman,Right,
,,,,,,,,,,,,,,,,,554,18,Woman,Right,1,37,0.4,2,0,180,180,1.8667856000001848,['y'],1.3042765000000145,1.592,1238.533814,,,,,554,18,Woman,Right,
,,,,,,,,,,,,,,,,,554,18,Woman,Right,1,20,0.4,1,0,-,0,0.7086450000001605,['n'],1.1787138999998206,1.568,1244.1338422,,,,,554,18,Woman,Right,
,,,,,,,,,,,,,,,,,554,18,Woman,Right,1,60,0.15,1,0,-,0,1.4518497999997635,['n'],0.7790833999997631,1.548,1249.7513824000002,,,,,554,18,Woman,Right,
,,,,,,,,,,,,,,,,,554,18,Woman,Right,1,23,0.4,2,180,0,0,0.8427245999996558,['n'],0.8276112999997167,1.5899999999999999,1254.2506596000003,,,,,554,18,Woman,Right,
,,,,,,,,,,,,,,,,,554,18,Woman,Right,1,74,0.15,1,180,-,0,0.5499491000000489,['n'],0.9803718999996818,1.568,1259.2504555,,,,,554,18,Woman,Right,
,,,,,,,,,,,,,,,,,554,18,Woman,Right,1,58,0.15,1,180,-,0,1.2794548000001669,['n'],0.6691940999999133,1.426,1264.6173451,,,,,554,18,Woman,Right,
,,,,,,,,,,,,,,,,,554,18,Woman,Right,1,25,0.4,2,0,180,180,1.217162400000234,['y'],2.5883669999998347,1.5779999999999998,1271.7504847999999,,,,,554,18,Woman,Right,
,,,,,,,,,,,,,,,,,554,18,Woman,Right,1,26,0.4,1,180,-,0,0.6313519000000269,['n'],1.1509421999999176,1.45,1277.4838968,,,,,554,18,Woman,Right,
,,,,,,,,,,,,,,,,,554,18,Woman,Right,1,10,0.4,1,180,-,180,1.2818007000000762,['n'],0.9514520999996421,1.424,1282.9004809000003,,,,,554,18,Woman,Right,
,,,,,,,,,,,,,,,,,554,18,Woman,Right,1,55,0.15,2,180,0,0,0.9326727000002393,['n'],1.6162023000001682,1.554,1288.6505085,,,,,554,18,Woman,Right,
,,,,,,,,,,,,,,,,,554,18,Woman,Right,1,32,0.4,1,0,-,0,0.563868800000364,['n'],0.9446508999999423,1.56,1293.3838445000001,,,,,554,18,Woman,Right,
,,,,,,,,,,,,,,,,,554,18,Woman,Right,1,48,0.15,1,0,-,0,1.6780426000000261,['n'],0.9134895000001961,1.562,1299.3671547,,,,,554,18,Woman,Right,
,,,,,,,,,,,,,,,,,554,18,Woman,Right,1,13,0.4,2,0,180,180,1.975552400000197,['y'],1.1467250000000604,1.5859999999999999,1306.4673047,,,,,554,18,Woman,Right,
,,,,,,,,,,,,,,,,,554,18,Woman,Right,1,24,0.4,1,0,-,0,0.6973493000000417,['n'],0.6828060000002552,1.584,1310.8173982000003,,,,,554,18,Woman,Right,
,,,,,,,,,,,,,,,,,554,18,Woman,Right,1,7,1,2,180,0,0,0.7471159000001535,['y'],0.7956481999999596,1.768,1315.4174404999999,,,,,554,18,Woman,Right,
,,,,,,,,,,,,,,,,,554,18,Woman,Right,1,63,0.15,2,180,0,180,1.4371182999998382,['n'],0.8926431999998385,1.374,1321.1840465999999,,,,,554,18,Woman,Right,
,,,,,,,,,,,,,,,,,554,18,Woman,Right,1,72,0.15,1,0,-,0,0.4558222000000569,['n'],1.0848442000001342,1.3980000000000001,1325.6007236,,,,,554,18,Woman,Right,
,,,,,,,,,,,,,,,,,554,18,Woman,Right,1,46,0.15,1,180,-,180,0.8002667999999176,['n'],0.6387445000000298,1.3559999999999999,1330.8005668,,,,,554,18,Woman,Right,
,,,,,,,,,,,,,,,,,554,18,Woman,Right,1,54,0.15,1,180,-,180,0.6071464999999989,['n'],0.9819954999998117,1.308,1335.5171681000002,,,,,554,18,Woman,Right,
,,,,,,,,,,,,,,,,,554,18,Woman,Right,1,77,0.15,2,0,180,180,1.4051375000003645,['y'],0.9987053999998352,1.6,1341.1339137,,,,,554,18,Woman,Right,
,,,,,,,,,,,,,,,,,554,18,Woman,Right,1,17,0.4,2,0,180,180,1.009955799999716,['y'],0.9913852999998198,1.6,1346.1006757999999,,,,,554,18,Woman,Right,
,,,,,,,,,,,,,,,,,554,18,Woman,Right,1,57,0.15,2,0,180,180,1.0790894000001572,['y'],1.0241973000001963,1.6,1351.4671204,,,,,554,18,Woman,Right,
,,,,,,,,,,,,,,,,,554,18,Woman,Right,1,56,0.15,1,0,-,180,1.1500559000000976,['n'],0.7563703000000714,1.544,1356.7338485,,,,,554,18,Woman,Right,
,,,,,,,,,,,,,,,,,554,18,Woman,Right,1,38,0.4,1,180,-,180,1.0804902999998376,['n'],1.8576091999998425,1.366,1362.6837622000003,,,,,554,18,Woman,Right,
,,,,,,,,,,,,,,,,,554,18,Woman,Right,1,19,0.4,2,180,0,0,1.1012539999996989,['y'],1.0902372000000469,1.576,1368.5505334,,,,,554,18,Woman,Right,
,,,,,,,,,,,,,,,,,554,18,Woman,Right,1,31,0.4,2,180,0,0,0.6237584000000425,['y'],0.8908175999999912,1.6,1373.2171050000002,,,,,554,18,Woman,Right,
,,,,,,,,,,,,,,,,,554,18,Woman,Right,1,8,0.4,1,0,-,0,0.6608937000000878,['n'],0.731582200000048,1.592,1377.7838326,,,,,554,18,Woman,Right,
,,,,,,,,,,,,,,,,,554,18,Woman,Right,1,4,1,1,0,-,0,0.4448679999995875,['n'],0.9801136999999471,1.858,1382.5840848000003,,,,,554,18,Woman,Right,
,,,,,,,,,,,,,,,,,554,18,Woman,Right,1,68,0.15,1,0,-,0,1.8369944000000942,['n'],1.188723299999765,1.322,1389.567184,,,,,554,18,Woman,Right,
,,,,,,,,,,,,,,,,,554,18,Woman,Right,1,2,1,1,180,-,180,1.5943474000000606,['n'],0.76584129999992,1.384,1395.2006850000002,,,,,554,18,Woman,Right,
,,,,,,,,,,,,,,,,,554,18,Woman,Right,1,42,0.4,1,180,-,180,0.70637459999989,['n'],1.5184466000000612,1.434,1400.4005365000003,,,,,554,18,Woman,Right,
,,,,,,,,,,,,,,,,,554,18,Woman,Right,1,49,0.15,2,0,180,180,1.1442447999997967,['y'],0.7029241000000184,1.672,1405.3014088,,,,,554,18,Woman,Right,
,,,,,,,,,,,,,,,,,554,18,Woman,Right,1,51,0.15,2,180,0,0,1.0169726999997692,['n'],0.9914702000000943,1.5979999999999999,1410.3174223,,,,,554,18,Woman,Right,
,,,,,,,,,,,,,,,,,554,18,Woman,Right,1,64,0.15,1,0,-,0,0.5252702999996472,['n'],0.7037703999999394,1.5899999999999999,1415.783872,,,,,554,18,Woman,Right,
,,,,,,,,,,,,,,,,,554,18,Woman,Right,1,40,0.4,1,0,-,0,0.33162259999971866,['n'],0.6968891999999869,1.5979999999999999,1419.7838732999999,,,,,554,18,Woman,Right,
,,,,,,,,,,,,,,,,,554,18,Woman,Right,1,0,1,1,0,-,0,0.3701487999996971,['n'],0.6975883999998587,1.908,1423.7675699000001,,,,,554,18,Woman,Right,
,,,,,,,,,,,,,,,,,554,18,Woman,Right,1,59,0.15,2,180,0,180,0.6529402000001028,['n'],1.2660585999997238,1.446,1429.0005362000002,,,,,554,18,Woman,Right,
,,,,,,,,,,,,,,,,,554,18,Woman,Right,1,3,1,2,180,0,0,0.8461599000002025,['y'],1.099021399999856,1.6099999999999999,1435.3339424,,,,,554,18,Woman,Right,
,,,,,,,,,,,,,,,,,554,18,Woman,Right,1,33,0.4,2,0,180,180,0.5710830999996688,['y'],1.5872448000000077,1.624,1441.7339062,,,,,554,18,Woman,Right,
,,,,,,,,,,,,,,,,,554,18,Woman,Right,1,9,0.4,2,0,180,180,0.6336025999999038,['y'],0.9080165999998826,1.63,1446.6005546000001,,,,,554,18,Woman,Right,
,,,,,,,,,,,,,,,,,554,18,Woman,Right,1,43,0.4,2,180,0,0,1.3500866999997925,['y'],1.4298119000000042,1.5779999999999998,1452.5838777,,,,,554,18,Woman,Right,
,,,,,,,,,,,,,,,,,554,18,Woman,Right,1,16,0.4,1,0,-,0,0.6401848000000427,['n'],1.2297331999998278,1.6099999999999999,1457.6338564000002,,,,,554,18,Woman,Right,
,,,,,,,,,,,,,,,,,554,18,Woman,Right,1,62,0.15,1,180,-,0,0.4467307999998411,['n'],0.7265465999998924,1.33,1462.4677939000003,,,,,554,18,Woman,Right,
,,,,,,,,,,,,,,,,,554,18,Woman,Right,1,53,0.15,2,0,180,180,0.7081610999998702,['n'],0.6628150000001369,1.43,1466.9174268000002,,,,,554,18,Woman,Right,
,,,,,,,,,,,,,,,,,554,18,Woman,Right,1,14,0.4,1,180,-,180,1.0419987999998739,['n'],0.6953737000003457,1.562,1471.7338938000003,,,,,554,18,Woman,Right,
,,,,,,,,,,,,,,,,,554,18,Woman,Right,1,39,0.4,2,180,0,0,1.0167403000000377,['y'],0.8033974999998463,1.604,1477.9175483,,,,,554,18,Woman,Right,
,,,,,,,,,,,,,,,,,554,18,Woman,Right,1,71,0.15,2,180,0,0,1.6368313999996644,['y'],1.1770049000001563,1.5939999999999999,1484.5847205999999,,,,,554,18,Woman,Right,
,,,,,,,,,,,,,,,,,554,18,Woman,Right,1,15,0.4,2,180,0,0,0.5407556999998633,['y'],0.8256189999997332,1.634,1489.1674349,,,,,554,18,Woman,Right,
,,,,,,,,,,,,,,,,,554,18,Woman,Right,1,21,0.4,2,0,180,180,0.8974496000000727,['y'],0.7464347999998608,1.564,1493.9506445000002,,,,,554,18,Woman,Right,
,,,,,,,,,,,,,,,,,554,18,Woman,Right,1,45,0.15,2,0,180,0,0.6597141000002011,['n'],0.8824683999996523,1.6,1498.8005301000003,,,,,554,18,Woman,Right,
,,,,,,,,,,,,,,,,,554,18,Woman,Right,1,11,0.4,2,180,0,0,0.5873774000001504,['y'],0.8276479999999538,1.438,1503.7671618,,,,,554,18,Woman,Right,
,,,,,,,,,,,,,,,,,554,18,Woman,Right,1,69,0.15,2,0,180,180,1.2880091000001812,['y'],0.6926763999999821,1.566,1508.8672351999999,,,,,554,18,Woman,Right,
,,,,,,,,,,,,,,,,,554,18,Woman,Right,1,28,0.4,1,0,-,0,0.5600916999997025,['n'],0.6767402000000402,1.588,1513.0174508999999,,,,,554,18,Woman,Right,
,,,,,,,,,,,,,,,,,554,18,Woman,Right,1,75,0.15,2,180,0,180,1.1461612000002788,['n'],0.9015858999996453,1.6139999999999999,1518.0838409000003,,,,,554,18,Woman,Right,
,,,,,,,,,,,,,,,,,554,18,Woman,Right,2,50,0.15,1,180,-,180,1.3333880999998655,['n'],1.663311700000122,1.552,1539.2172495,77.5,95.0,65.0,,554,18,Woman,Right,
,,,,,,,,,,,,,,,,,554,18,Woman,Right,2,78,0.15,1,180,-,0,0.7742087999999967,['n'],1.0964685999997528,1.6139999999999999,1544.6841067,,,,,554,18,Woman,Right,
,,,,,,,,,,,,,,,,,554,18,Woman,Right,2,33,0.4,2,0,180,180,0.8479419999998754,['y'],0.8972524000000703,1.428,1549.4842191000002,,,,,554,18,Woman,Right,
,,,,,,,,,,,,,,,,,554,18,Woman,Right,2,22,0.4,1,180,-,180,0.47124540000004345,['n'],0.6978351999996448,1.608,1553.7339057,,,,,554,18,Woman,Right,
,,,,,,,,,,,,,,,,,554,18,Woman,Right,2,64,0.15,1,0,-,0,0.30193789999975706,['n'],0.6982477999999901,1.5899999999999999,1557.7678114999999,,,,,554,18,Woman,Right,
,,,,,,,,,,,,,,,,,554,18,Woman,Right,2,29,0.4,2,0,180,0,0.6632598999999573,['n'],0.9148468000003049,1.6440000000000001,1562.7341821999999,,,,,554,18,Woman,Right,
,,,,,,,,,,,,,,,,,554,18,Woman,Right,2,73,0.15,2,0,180,0,0.2921900999999707,['n'],1.4355508999997255,1.576,1567.3672327,,,,,554,18,Woman,Right,
,,,,,,,,,,,,,,,,,554,18,Woman,Right,2,51,0.15,2,180,0,0,1.3335127000000284,['y'],0.7474544000001515,1.5819999999999999,1572.2172524000002,,,,,554,18,Woman,Right,
,,,,,,,,,,,,,,,,,554,18,Woman,Right,2,40,0.4,1,0,-,0,0.4178641999997126,['n'],0.9971120000000155,1.6640000000000001,1576.6006222,,,,,554,18,Woman,Right,
,,,,,,,,,,,,,,,,,554,18,Woman,Right,2,19,0.4,2,180,0,0,0.7387545999999929,['y'],0.6375568000003113,1.6139999999999999,1580.7838326,,,,,554,18,Woman,Right,
,,,,,,,,,,,,,,,,,554,18,Woman,Right,2,71,0.15,2,180,0,0,1.6671934000000874,['n'],0.6777618999999504,1.3719999999999999,1586.6338528,,,,,554,18,Woman,Right,
,,,,,,,,,,,,,,,,,554,18,Woman,Right,2,31,0.4,2,180,0,0,0.8799189999999726,['y'],0.45430579999992915,1.698,1590.8839094,,,,,554,18,Woman,Right,
,,,,,,,,,,,,,,,,,554,18,Woman,Right,2,26,0.4,1,180,-,180,0.5766469999998662,['n'],0.6067932000000837,1.5899999999999999,1594.8839847,,,,,554,18,Woman,Right,
,,,,,,,,,,,,,,,,,554,18,Woman,Right,2,56,0.15,1,0,-,0,1.5670742000002065,['n'],1.0317582000002403,1.3639999999999999,1600.3173969,,,,,554,18,Woman,Right,
,,,,,,,,,,,,,,,,,554,18,Woman,Right,2,39,0.4,2,180,0,0,2.1093571999999767,['y'],0.5520934999999554,1.5779999999999998,1605.9673407999999,,,,,554,18,Woman,Right,
,,,,,,,,,,,,,,,,,554,18,Woman,Right,2,62,0.15,1,180,-,180,0.5828404999997474,['n'],0.616627299999891,1.612,1610.1505821,,,,,554,18,Woman,Right,
,,,,,,,,,,,,,,,,,554,18,Woman,Right,2,0,1,1,0,-,0,0.4465711999996529,['n'],1.4255056000001787,1.798,1614.9839482000002,,,,,554,18,Woman,Right,
,,,,,,,,,,,,,,,,,554,18,Woman,Right,2,70,0.15,1,180,-,180,0.8912261000000399,['n'],1.1140712999999778,1.6280000000000001,1620.1172074,,,,,554,18,Woman,Right,
,,,,,,,,,,,,,,,,,554,18,Woman,Right,2,36,0.4,1,0,-,0,0.34923490000028323,['n'],1.002184699999816,1.392,1624.2508213,,,,,554,18,Woman,Right,
,,,,,,,,,,,,,,,,,554,18,Woman,Right,2,16,0.4,1,0,-,0,0.2610306000001401,['n'],0.8437877000001208,1.604,1627.9672611,,,,,554,18,Woman,Right,
,,,,,,,,,,,,,,,,,554,18,Woman,Right,2,46,0.15,1,180,-,180,0.6502064000001155,['n'],0.7020803000000342,1.548,1632.2172394,,,,,554,18,Woman,Right,
,,,,,,,,,,,,,,,,,554,18,Woman,Right,2,77,0.15,2,0,180,0,0.8337334000002556,['n'],0.6522037999998247,1.6400000000000001,1636.8008071,,,,,554,18,Woman,Right,
,,,,,,,,,,,,,,,,,554,18,Woman,Right,2,44,0.15,1,0,-,0,0.4246843999999328,['n'],0.668686500000149,1.6179999999999999,1641.5675224000001,,,,,554,18,Woman,Right,
,,,,,,,,,,,,,,,,,554,18,Woman,Right,2,5,1,2,0,180,180,0.5776829000001271,['y'],0.749467900000127,1.716,1646.2506677000001,,,,,554,18,Woman,Right,
,,,,,,,,,,,,,,,,,554,18,Woman,Right,2,60,0.15,1,0,-,0,0.4644210000001294,['n'],0.9900107000003118,1.5939999999999999,1650.5339215,,,,,554,18,Woman,Right,
,,,,,,,,,,,,,,,,,554,18,Woman,Right,2,3,1,2,180,0,0,0.47855699999990975,['y'],0.6304089000000204,1.764,1654.5172542999999,,,,,554,18,Woman,Right,
,,,,,,,,,,,,,,,,,554,18,Woman,Right,2,34,0.4,1,180,-,180,0.5117910999997548,['n'],0.6953008999998929,1.734,1658.5338657000002,,,,,554,18,Woman,Right,
,,,,,,,,,,,,,,,,,554,18,Woman,Right,2,66,0.15,1,180,-,180,1.026614100000188,['n'],0.5835086000001866,1.6440000000000001,1664.1673263000002,,,,,554,18,Woman,Right,
,,,,,,,,,,,,,,,,,554,18,Woman,Right,2,67,0.15,2,180,0,0,1.349311200000102,['y'],0.712154400000145,1.418,1669.4505651,,,,,554,18,Woman,Right,
,,,,,,,,,,,,,,,,,554,18,Woman,Right,2,25,0.4,2,0,180,180,0.5124426000002131,['y'],0.7929823999998007,1.6179999999999999,1673.3840886000003,,,,,554,18,Woman,Right,
,,,,,,,,,,,,,,,,,554,18,Woman,Right,2,14,0.4,1,180,-,180,0.5684318000003259,['n'],0.7054660999997395,1.612,1678.1178106000002,,,,,554,18,Woman,Right,
,,,,,,,,,,,,,,,,,554,18,Woman,Right,2,11,0.4,2,180,0,0,0.8617144999998345,['y'],0.49806139999964216,1.634,1682.3506121,,,,,554,18,Woman,Right,
,,,,,,,,,,,,,,,,,554,18,Woman,Right,2,54,0.15,1,180,-,180,0.42976469999985056,['n'],0.5944036000000779,1.304,1686.4839185,,,,,554,18,Woman,Right,
,,,,,,,,,,,,,,,,,554,18,Woman,Right,2,15,0.4,2,180,0,0,0.5334606999999778,['y'],0.5260176000001593,1.56,1690.3673862,,,,,554,18,Woman,Right,
,,,,,,,,,,,,,,,,,554,18,Woman,Right,2,59,0.15,2,180,0,180,0.5838241999999809,['n'],0.6435630999999375,1.6019999999999999,1694.2339272,,,,,554,18,Woman,Right,
,,,,,,,,,,,,,,,,,554,18,Woman,Right,2,13,0.4,2,0,180,0,2.6996173000002273,['y'],0.7718555000001288,1.528,1700.7675856,,,,,554,18,Woman,Right,
,,,,,,,,,,,,,,,,,554,18,Woman,Right,2,17,0.4,2,0,180,180,0.8165463000000273,['y'],0.613286700000117,1.6600000000000001,1704.9348057000002,,,,,554,18,Woman,Right,
,,,,,,,,,,,,,,,,,554,18,Woman,Right,2,32,0.4,1,0,-,0,0.5411783999998079,['n'],0.629408599999806,1.764,1709.1505994,,,,,554,18,Woman,Right,
,,,,,,,,,,,,,,,,,554,18,Woman,Right,2,18,0.4,1,180,-,0,2.1058137999998507,['y'],0.5340910999998414,1.568,1715.2173164,,,,,554,18,Woman,Right,
,,,,,,,,,,,,,,,,,554,18,Woman,Right,2,57,0.15,2,0,180,0,0.8389138999996248,['n'],0.8470119000003251,1.404,1720.0173641000001,,,,,554,18,Woman,Right,
,,,,,,,,,,,,,,,,,554,18,Woman,Right,2,58,0.15,1,180,-,0,0.9538033000003452,['y'],0.44757110000000466,1.5899999999999999,1724.2340113,,,,,554,18,Woman,Right,
,,,,,,,,,,,,,,,,,554,18,Woman,Right,2,23,0.4,2,180,0,0,1.3965973999997914,['y'],1.7518904999997176,1.6179999999999999,1730.1172950999999,,,,,554,18,Woman,Right,
,,,,,,,,,,,,,,,,,554,18,Woman,Right,2,38,0.4,1,180,-,0,1.3907600999996248,['y'],0.8648828999998841,1.6139999999999999,1735.1006107000003,,,,,554,18,Woman,Right,
,,,,,,,,,,,,,,,,,554,18,Woman,Right,2,7,1,2,180,0,0,0.9756517000000713,['y'],0.665147899999738,1.6179999999999999,1740.5171961,,,,,554,18,Woman,Right,
,,,,,,,,,,,,,,,,,554,18,Woman,Right,2,41,0.4,2,0,180,180,0.5396458000000166,['y'],0.5701705999999831,1.6320000000000001,1744.2839099000003,,,,,554,18,Woman,Right,
,,,,,,,,,,,,,,,,,554,18,Woman,Right,2,53,0.15,2,0,180,180,0.4756364999998368,['y'],0.6587306000001263,1.616,1748.3506703000003,,,,,554,18,Woman,Right,
,,,,,,,,,,,,,,,,,554,18,Woman,Right,2,45,0.15,2,0,180,0,1.194718499999908,['y'],0.6990032999997311,1.662,1753.0341828,,,,,554,18,Woman,Right,
,,,,,,,,,,,,,,,,,554,18,Woman,Right,2,52,0.15,1,0,-,0,0.8575354999998126,['n'],0.6435763999998017,1.244,1758.6173712,,,,,554,18,Woman,Right,
,,,,,,,,,,,,,,,,,554,18,Woman,Right,2,12,0.4,1,0,-,0,0.5596080000000256,['n'],0.6525876999999127,1.3599999999999999,1762.6006836000001,,,,,554,18,Woman,Right,
,,,,,,,,,,,,,,,,,554,18,Woman,Right,2,76,0.15,1,0,-,0,0.46078339999985474,['n'],0.724551799999972,1.3940000000000001,1766.6172824999999,,,,,554,18,Woman,Right,
,,,,,,,,,,,,,,,,,554,18,Woman,Right,2,48,0.15,1,0,-,0,0.27085829999987254,['n'],0.5655005999997229,1.3719999999999999,1770.4674883000002,,,,,554,18,Woman,Right,
,,,,,,,,,,,,,,,,,554,18,Woman,Right,2,9,0.4,2,0,180,180,0.6047761999998329,['y'],0.581263200000194,1.572,1774.6007610000001,,,,,554,18,Woman,Right,
,,,,,,,,,,,,,,,,,554,18,Woman,Right,2,30,0.4,1,180,-,180,1.3030346000000463,['y'],0.8305897000000186,1.5859999999999999,1779.6507042000003,,,,,554,18,Woman,Right,
,,,,,,,,,,,,,,,,,554,18,Woman,Right,2,20,0.4,1,0,-,0,0.5973948999999266,['n'],0.8954115999999885,1.56,1784.2508118,,,,,554,18,Woman,Right,
,,,,,,,,,,,,,,,,,554,18,Woman,Right,2,27,0.4,2,180,0,0,0.5873953000000256,['y'],0.5111762999999883,1.686,1788.4007928,,,,,554,18,Woman,Right,
,,,,,,,,,,,,,,,,,554,18,Woman,Right,2,37,0.4,2,0,180,180,0.5528503999998975,['y'],0.5760440000003655,1.626,1792.6339917999999,,,,,554,18,Woman,Right,
,,,,,,,,,,,,,,,,,554,18,Woman,Right,2,61,0.15,2,0,180,0,2.761959399999796,['n'],0.6328355000000556,1.282,1799.2841886,,,,,554,18,Woman,Right,
,,,,,,,,,,,,,,,,,554,18,Woman,Right,2,47,0.15,2,180,0,0,0.3346614000001864,['n'],0.5616061999999147,1.276,1803.5173429000001,,,,,554,18,Woman,Right,
,,,,,,,,,,,,,,,,,554,18,Woman,Right,2,43,0.4,2,180,0,0,0.6262273000002097,['y'],0.4899364000002606,1.6139999999999999,1807.3506302,,,,,554,18,Woman,Right,
,,,,,,,,,,,,,,,,,554,18,Woman,Right,2,69,0.15,2,0,180,0,0.7668923000001087,['n'],0.5633375000002161,1.5739999999999998,1812.2848111000003,,,,,554,18,Woman,Right,
,,,,,,,,,,,,,,,,,554,18,Woman,Right,2,24,0.4,1,0,-,0,0.2920851000003495,['n'],0.6510249999996631,1.5979999999999999,1816.2841922000002,,,,,554,18,Woman,Right,
,,,,,,,,,,,,,,,,,554,18,Woman,Right,2,74,0.15,1,180,-,0,0.2594939999999042,['n'],0.659620399999767,1.43,1820.2340371999999,,,,,554,18,Woman,Right,
,,,,,,,,,,,,,,,,,554,18,Woman,Right,2,75,0.15,2,180,0,0,1.1141554000000724,['n'],0.49175590000004377,1.376,1824.5006448,,,,,554,18,Woman,Right,
,,,,,,,,,,,,,,,,,554,18,Woman,Right,2,2,1,1,180,-,180,0.6909067000001414,['n'],0.5966357999996035,1.796,1828.5506459000003,,,,,554,18,Woman,Right,
,,,,,,,,,,,,,,,,,554,18,Woman,Right,2,10,0.4,1,180,-,180,0.574178700000175,['n'],0.829001199999766,1.358,1832.7839705000001,,,,,554,18,Woman,Right,
,,,,,,,,,,,,,,,,,554,18,Woman,Right,2,4,1,1,0,-,0,0.29805139999962194,['n'],0.6057150000001457,1.764,1836.4176617000003,,,,,554,18,Woman,Right,
,,,,,,,,,,,,,,,,,554,18,Woman,Right,2,55,0.15,2,180,0,0,0.6801046999999016,['y'],1.1024170999999114,1.6059999999999999,1841.7506582,,,,,554,18,Woman,Right,
,,,,,,,,,,,,,,,,,554,18,Woman,Right,2,65,0.15,2,0,180,0,1.1501917000000503,['n'],1.3909782000000632,1.4060000000000001,1847.7673114,,,,,554,18,Woman,Right,
,,,,,,,,,,,,,,,,,554,18,Woman,Right,2,21,0.4,2,0,180,180,1.0586497999997846,['y'],0.45561880000013844,1.546,1853.2673046,,,,,554,18,Woman,Right,
,,,,,,,,,,,,,,,,,554,18,Woman,Right,2,72,0.15,1,0,-,0,0.7376881999998659,['n'],0.9360741999998936,1.232,1857.7673678,,,,,554,18,Woman,Right,
,,,,,,,,,,,,,,,,,554,18,Woman,Right,2,63,0.15,2,180,0,0,0.2772760000002563,['n'],0.9283680999997159,1.272,1861.7340048,,,,,554,18,Woman,Right,
,,,,,,,,,,,,,,,,,554,18,Woman,Right,2,42,0.4,1,180,-,180,0.6306337999999414,['n'],0.8408562999998139,1.302,1866.1342422000002,,,,,554,18,Woman,Right,
,,,,,,,,,,,,,,,,,554,18,Woman,Right,2,6,1,1,180,-,180,1.0603593000000728,['n'],1.4979599000002963,1.912,1872.0839429000002,,,,,554,18,Woman,Right,
,,,,,,,,,,,,,,,,,554,18,Woman,Right,2,49,0.15,2,0,180,0,1.1282483999998476,['n'],0.7704351000002134,1.57,1877.2672823000003,,,,,554,18,Woman,Right,
,,,,,,,,,,,,,,,,,554,18,Woman,Right,2,8,0.4,1,0,-,0,0.21138820000032865,['n'],0.8031418000000485,1.736,1881.6673949,,,,,554,18,Woman,Right,
,,,,,,,,,,,,,,,,,554,18,Woman,Right,2,35,0.4,2,180,0,0,0.5064747999999781,['y'],0.6279048999999759,1.6280000000000001,1885.5839245000002,,,,,554,18,Woman,Right,
,,,,,,,,,,,,,,,,,554,18,Woman,Right,2,68,0.15,1,0,-,0,0.467392000000018,['n'],0.7803305000002183,1.62,1889.9014829000002,,,,,554,18,Woman,Right,
,,,,,,,,,,,,,,,,,554,18,Woman,Right,2,28,0.4,1,0,-,0,0.477907999999843,['n'],0.7413409999999203,1.6059999999999999,1894.017315,,,,,554,18,Woman,Right,
,,,,,,,,,,,,,,,,,554,18,Woman,Right,2,79,0.15,2,180,0,180,0.39317860000028304,['n'],2.2137535000001662,1.354,1899.7839969000001,,,,,554,18,Woman,Right,
,,,,,,,,,,,,,,,,,554,18,Woman,Right,2,1,1,2,0,180,180,0.6841174999999566,['y'],0.6058830000001763,1.6480000000000001,1903.9006456000002,,,,,554,18,Woman,Right,
,,,,,,,,,,,,,,,,,554,18,Woman,Right,3,17,0.4,2,0,180,180,1.1667399999996633,['y'],0.7275795999998991,1.65,1917.1507127,78.75,90.0,65.0,,554,18,Woman,Right,
,,,,,,,,,,,,,,,,,554,18,Woman,Right,3,15,0.4,2,180,0,0,0.4066874000000098,['y'],0.6163222000000133,1.642,1921.3173924000002,,,,,554,18,Woman,Right,
,,,,,,,,,,,,,,,,,554,18,Woman,Right,3,76,0.15,1,0,-,0,0.24122769999985394,['n'],4.777429700000084,1.4100000000000001,1930.7506573,,,,,554,18,Woman,Right,
,,,,,,,,,,,,,,,,,554,18,Woman,Right,3,78,0.15,1,180,-,0,0.7434572000001936,['n'],0.6898088000002645,1.682,1935.2339892999998,,,,,554,18,Woman,Right,
,,,,,,,,,,,,,,,,,554,18,Woman,Right,3,47,0.15,2,180,0,0,1.0419013000000632,['y'],0.7785978000001705,1.464,1940.3507210000002,,,,,554,18,Woman,Right,
,,,,,,,,,,,,,,,,,554,18,Woman,Right,3,33,0.4,2,0,180,180,0.5994689999997718,['y'],0.6270362000000205,1.57,1944.5173600000003,,,,,554,18,Woman,Right,
,,,,,,,,,,,,,,,,,554,18,Woman,Right,3,49,0.15,2,0,180,0,1.1977065000000948,['n'],1.0039515999997093,1.3860000000000001,1949.6673221,,,,,554,18,Woman,Right,
,,,,,,,,,,,,,,,,,554,18,Woman,Right,3,7,1,2,180,0,0,0.37780000000020664,['y'],0.8045285000002877,1.758,1953.5175778000003,,,,,554,18,Woman,Right,
,,,,,,,,,,,,,,,,,554,18,Woman,Right,3,55,0.15,2,180,0,0,0.38996110000016415,['n'],0.7411286999999902,1.35,1957.2849562000001,,,,,554,18,Woman,Right,
,,,,,,,,,,,,,,,,,554,18,Woman,Right,3,8,0.4,1,0,-,0,0.391806699999961,['n'],1.0853488000002471,1.934,1961.4173555000002,,,,,554,18,Woman,Right,
,,,,,,,,,,,,,,,,,554,18,Woman,Right,3,25,0.4,2,0,180,180,0.685615400000188,['y'],0.6374323000000004,1.708,1966.0674771,,,,,554,18,Woman,Right,
,,,,,,,,,,,,,,,,,554,18,Woman,Right,3,72,0.15,1,0,-,0,1.2232966000001397,['n'],0.7188013999998475,1.376,1970.9173343000002,,,,,554,18,Woman,Right,
,,,,,,,,,,,,,,,,,554,18,Woman,Right,3,61,0.15,2,0,180,180,0.4790760999999293,['y'],0.5909426999996867,1.666,1974.8173993999999,,,,,554,18,Woman,Right,
,,,,,,,,,,,,,,,,,554,18,Woman,Right,3,1,1,2,0,180,180,0.4503199000000677,['y'],0.5585166999999274,1.768,1978.5842993,,,,,554,18,Woman,Right,
,,,,,,,,,,,,,,,,,554,18,Woman,Right,3,68,0.15,1,0,-,0,0.31457499999987704,['n'],0.608141500000329,1.6400000000000001,1982.4506456,,,,,554,18,Woman,Right,
,,,,,,,,,,,,,,,,,554,18,Woman,Right,3,66,0.15,1,180,-,0,0.39965529999972205,['n'],0.8965668000000733,1.448,1986.6840628,,,,,554,18,Woman,Right,
,,,,,,,,,,,,,,,,,554,18,Woman,Right,3,26,0.4,1,180,-,180,0.7858713000000535,['n'],0.5851112999998804,1.682,1990.9173688,,,,,554,18,Woman,Right,
,,,,,,,,,,,,,,,,,554,18,Woman,Right,3,62,0.15,1,180,-,180,0.6225858000002518,['n'],0.8496644000001652,1.38,1995.3676515000002,,,,,554,18,Woman,Right,
,,,,,,,,,,,,,,,,,554,18,Woman,Right,3,50,0.15,1,180,-,180,0.9304704000001038,['n'],0.9303238000002239,1.314,2000.1342570000002,,,,,554,18,Woman,Right,
,,,,,,,,,,,,,,,,,554,18,Woman,Right,3,57,0.15,2,0,180,180,0.7566769999998542,['n'],0.8670249000001604,1.292,2004.5175666999999,,,,,554,18,Woman,Right,
,,,,,,,,,,,,,,,,,554,18,Woman,Right,3,32,0.4,1,0,-,0,0.33106999999972686,['n'],0.5797053999999662,1.65,2009.7507323,,,,,554,18,Woman,Right,
,,,,,,,,,,,,,,,,,554,18,Woman,Right,3,5,1,2,0,180,180,0.5697979000001396,['y'],0.5718778999998904,1.724,2013.5173641000001,,,,,554,18,Woman,Right,
,,,,,,,,,,,,,,,,,554,18,Woman,Right,3,20,0.4,1,0,-,0,1.6791087999999945,['n'],1.1486175000000003,1.182,2020.1180169,,,,,554,18,Woman,Right,
,,,,,,,,,,,,,,,,,554,18,Woman,Right,3,27,0.4,2,180,0,0,0.5330635000000257,['y'],0.6376722999998492,1.5819999999999999,2024.3506926999999,,,,,554,18,Woman,Right,
,,,,,,,,,,,,,,,,,554,18,Woman,Right,3,48,0.15,1,0,-,0,0.506309599999895,['n'],0.501960400000371,1.65,2028.5006119999998,,,,,554,18,Woman,Right,
,,,,,,,,,,,,,,,,,554,18,Woman,Right,3,65,0.15,2,0,180,0,0.5682383999992453,['n'],0.5268156000001909,1.604,2033.8675559000003,,,,,554,18,Woman,Right,
,,,,,,,,,,,,,,,,,554,18,Woman,Right,3,41,0.4,2,0,180,180,1.0378312000002552,['y'],0.5670380999999907,1.696,2039.1840688000002,,,,,554,18,Woman,Right,
,,,,,,,,,,,,,,,,,554,18,Woman,Right,3,54,0.15,1,180,-,0,0.4276872000000367,['n'],0.7519809000004898,1.38,2043.5507027000003,,,,,554,18,Woman,Right,
,,,,,,,,,,,,,,,,,554,18,Woman,Right,3,11,0.4,2,180,0,0,0.8577463000001444,['y'],0.6322832000005292,1.418,2048.8842563999997,,,,,554,18,Woman,Right,
,,,,,,,,,,,,,,,,,554,18,Woman,Right,3,71,0.15,2,180,0,180,1.566962599999897,['n'],0.44594599999982165,1.3940000000000001,2053.7174133,,,,,554,18,Woman,Right,
,,,,,,,,,,,,,,,,,554,18,Woman,Right,3,3,1,2,180,0,0,0.3355086999999912,['y'],0.7297461999996813,1.6280000000000001,2057.5008383000004,,,,,554,18,Woman,Right,
,,,,,,,,,,,,,,,,,554,18,Woman,Right,3,67,0.15,2,180,0,0,0.7592103999995743,['n'],0.9860163000003013,1.392,2062.1174133000004,,,,,554,18,Woman,Right,
,,,,,,,,,,,,,,,,,554,18,Woman,Right,3,22,0.4,1,180,-,180,0.39419590000034077,['n'],0.6267625999998927,1.272,2065.8673949000004,,,,,554,18,Woman,Right,
,,,,,,,,,,,,,,,,,554,18,Woman,Right,3,43,0.4,2,180,0,0,2.4404476999998224,['y'],0.6671292999999423,1.346,2071.7507183999996,,,,,554,18,Woman,Right,
,,,,,,,,,,,,,,,,,554,18,Woman,Right,3,44,0.15,1,0,-,0,0.27961259999938193,['n'],0.8120197000007465,1.56,2075.6176039,,,,,554,18,Woman,Right,
,,,,,,,,,,,,,,,,,554,18,Woman,Right,3,75,0.15,2,180,0,180,0.36088590000053955,['n'],0.7563737999998921,1.596,2079.6009634,,,,,554,18,Woman,Right,
,,,,,,,,,,,,,,,,,554,18,Woman,Right,3,64,0.15,1,0,-,0,0.2300866000005044,['n'],1.1810478000006697,1.6059999999999999,2085.2509066000002,,,,,554,18,Woman,Right,
,,,,,,,,,,,,,,,,,554,18,Woman,Right,3,63,0.15,2,180,0,180,0.41156750000027387,['n'],0.6056154000007155,1.556,2089.0174839,,,,,554,18,Woman,Right,
,,,,,,,,,,,,,,,,,554,18,Woman,Right,3,0,1,1,0,-,0,0.35954539999966073,['n'],0.6299645999997665,1.866,2092.8840883000003,,,,,554,18,Woman,Right,
,,,,,,,,,,,,,,,,,554,18,Woman,Right,3,73,0.15,2,0,180,0,0.9274628000002849,['n'],0.5421825000003082,1.6400000000000001,2097.4340309,,,,,554,18,Woman,Right,
,,,,,,,,,,,,,,,,,554,18,Woman,Right,3,39,0.4,2,180,0,0,0.6327932999993209,['n'],0.9192180000000008,1.596,2102.1507843,,,,,554,18,Woman,Right,
,,,,,,,,,,,,,,,,,554,18,Woman,Right,3,23,0.4,2,180,0,0,0.7626563000003443,['y'],0.7193403999999646,1.32,2106.8340675,,,,,554,18,Woman,Right,
,,,,,,,,,,,,,,,,,554,18,Woman,Right,3,2,1,1,180,-,180,1.0474797999995644,['n'],1.1280275999997684,1.6280000000000001,2112.4839924999997,,,,,554,18,Woman,Right,
,,,,,,,,,,,,,,,,,554,18,Woman,Right,3,34,0.4,1,180,-,180,0.9687978000001749,['n'],0.777211200000238,1.3359999999999999,2117.2343137,,,,,554,18,Woman,Right,
,,,,,,,,,,,,,,,,,554,18,Woman,Right,3,42,0.4,1,180,-,180,0.604808399999456,['n'],0.5618346000001111,1.702,2122.7340225,,,,,554,18,Woman,Right,
,,,,,,,,,,,,,,,,,554,18,Woman,Right,3,31,0.4,2,180,0,0,0.398943700000018,['y'],1.0824626999992688,1.428,2127.0342558,,,,,554,18,Woman,Right,
,,,,,,,,,,,,,,,,,554,18,Woman,Right,3,70,0.15,1,180,-,0,0.40802090000033786,['n'],0.6268372000004092,1.604,2131.4510166,,,,,554,18,Woman,Right,
,,,,,,,,,,,,,,,,,554,18,Woman,Right,3,56,0.15,1,0,-,0,0.3331889000000956,['n'],0.8103506999996171,1.38,2135.5174496,,,,,554,18,Woman,Right,
,,,,,,,,,,,,,,,,,554,18,Woman,Right,3,6,1,1,180,-,180,0.9595438999995167,['n'],1.3400336000004245,1.828,2140.6674315,,,,,554,18,Woman,Right,
,,,,,,,,,,,,,,,,,554,18,Woman,Right,3,13,0.4,2,0,180,180,0.6112855999999738,['y'],0.6443180999995093,1.6179999999999999,2145.0843176,,,,,554,18,Woman,Right,
,,,,,,,,,,,,,,,,,554,18,Woman,Right,3,58,0.15,1,180,-,180,0.5694134000004851,['n'],0.533491199999844,1.6280000000000001,2149.3176185,,,,,554,18,Woman,Right,
,,,,,,,,,,,,,,,,,554,18,Woman,Right,3,51,0.15,2,180,0,180,0.7127333999997063,['n'],0.6856259000005593,1.29,2153.7841135999997,,,,,554,18,Woman,Right,
,,,,,,,,,,,,,,,,,554,18,Woman,Right,3,52,0.15,1,0,-,0,0.09354749999965861,['n'],0.654634000000442,1.642,2158.0839907,,,,,554,18,Woman,Right,
,,,,,,,,,,,,,,,,,554,18,Woman,Right,3,59,0.15,2,180,0,0,0.13416479999978037,['n'],1.255060699999376,1.6480000000000001,2162.6840988000004,,,,,554,18,Woman,Right,
,,,,,,,,,,,,,,,,,554,18,Woman,Right,3,29,0.4,2,0,180,0,0.7400502000000415,['n'],1.6559440000000905,1.426,2168.1517589000005,,,,,554,18,Woman,Right,
,,,,,,,,,,,,,,,,,554,18,Woman,Right,3,21,0.4,2,0,180,180,0.5335789999999179,['y'],0.592024799999308,1.58,2172.5842355000004,,,,,554,18,Woman,Right,
,,,,,,,,,,,,,,,,,554,18,Woman,Right,3,45,0.15,2,0,180,0,1.1574573999996574,['n'],0.7126366000002236,1.604,2178.8008197,,,,,554,18,Woman,Right,
,,,,,,,,,,,,,,,,,554,18,Woman,Right,3,9,0.4,2,0,180,0,0.8606525999994119,['n'],0.7134007999993628,1.558,2184.0007371,,,,,554,18,Woman,Right,
,,,,,,,,,,,,,,,,,554,18,Woman,Right,3,19,0.4,2,180,0,0,0.4186347000004389,['y'],0.7063025999996171,1.672,2188.1174352999997,,,,,554,18,Woman,Right,
,,,,,,,,,,,,,,,,,554,18,Woman,Right,3,28,0.4,1,0,-,0,0.32482570000047417,['n'],0.5789819999999963,1.692,2192.534117,,,,,554,18,Woman,Right,
,,,,,,,,,,,,,,,,,554,18,Woman,Right,3,37,0.4,2,0,180,180,1.1103635999998005,['y'],0.33927369999946677,1.58,2197.0342448,,,,,554,18,Woman,Right,
,,,,,,,,,,,,,,,,,554,18,Woman,Right,3,46,0.15,1,180,-,180,0.5206380999998146,['n'],0.5876684999993813,1.558,2201.4343105,,,,,554,18,Woman,Right,
,,,,,,,,,,,,,,,,,554,18,Woman,Right,3,24,0.4,1,0,-,0,0.28715620000002673,['n'],0.5328351999996812,1.6059999999999999,2205.2007739,,,,,554,18,Woman,Right,
,,,,,,,,,,,,,,,,,554,18,Woman,Right,3,30,0.4,1,180,-,180,0.7725239999999758,['n'],0.3968064000000595,1.3860000000000001,2209.817658,,,,,554,18,Woman,Right,
,,,,,,,,,,,,,,,,,554,18,Woman,Right,3,36,0.4,1,0,-,0,0.23316539999996166,['n'],1.9977020000005723,1.704,2216.6510047,,,,,554,18,Woman,Right,
,,,,,,,,,,,,,,,,,554,18,Woman,Right,3,77,0.15,2,0,180,0,0.4358807999997225,['n'],0.6141563000001042,1.322,2220.7174537,,,,,554,18,Woman,Right,
,,,,,,,,,,,,,,,,,554,18,Woman,Right,3,69,0.15,2,0,180,0,1.0873431999998502,['n'],0.7267171000003145,1.298,2225.3182963,,,,,554,18,Woman,Right,
,,,,,,,,,,,,,,,,,554,18,Woman,Right,3,60,0.15,1,0,-,0,0.45121759999983624,['n'],0.6952375000000757,1.388,2229.1675588,,,,,554,18,Woman,Right,
,,,,,,,,,,,,,,,,,554,18,Woman,Right,3,12,0.4,1,0,-,0,0.23343560000012076,['n'],0.7309495999998035,1.6360000000000001,2232.7341806000004,,,,,554,18,Woman,Right,
,,,,,,,,,,,,,,,,,554,18,Woman,Right,3,40,0.4,1,0,-,0,0.5633090999999695,['n'],0.6802184999996825,1.322,2236.6008165000003,,,,,554,18,Woman,Right,
,,,,,,,,,,,,,,,,,554,18,Woman,Right,3,53,0.15,2,0,180,0,0.6358866999999009,['n'],1.3848477000001367,1.342,2241.150748,,,,,554,18,Woman,Right,
,,,,,,,,,,,,,,,,,554,18,Woman,Right,3,16,0.4,1,0,-,0,0.19349030000012135,['n'],0.537284200000613,1.544,2244.6683623999998,,,,,554,18,Woman,Right,
,,,,,,,,,,,,,,,,,554,18,Woman,Right,3,18,0.4,1,180,-,180,0.3432258000002548,['n'],0.5538052000001699,1.3820000000000001,2248.6009206999997,,,,,554,18,Woman,Right,
,,,,,,,,,,,,,,,,,554,18,Woman,Right,3,10,0.4,1,180,-,180,0.7797535999998217,['n'],0.8425029999998515,1.428,2253.2510056,,,,,554,18,Woman,Right,
,,,,,,,,,,,,,,,,,554,18,Woman,Right,3,14,0.4,1,180,-,180,0.6166652000001704,['n'],0.7083284999998796,1.54,2257.1677091,,,,,554,18,Woman,Right,
,,,,,,,,,,,,,,,,,554,18,Woman,Right,3,4,1,1,0,-,0,0.3684565000003204,['n'],0.5954597999998441,1.804,2260.818499,,,,,554,18,Woman,Right,
,,,,,,,,,,,,,,,,,554,18,Woman,Right,3,74,0.15,1,180,-,0,0.4738464000001841,['n'],0.7156281999996281,1.5979999999999999,2265.0175199000005,,,,,554,18,Woman,Right,
,,,,,,,,,,,,,,,,,554,18,Woman,Right,3,79,0.15,2,180,0,0,0.4504763999993884,['n'],0.8124649000001227,1.3900000000000001,2268.9184664000004,,,,,554,18,Woman,Right,
,,,,,,,,,,,,,,,,,554,18,Woman,Right,3,38,0.4,1,180,-,0,0.5724848999998358,['y'],0.6288135000004331,1.568,2272.9010251,,,,,554,18,Woman,Right,
,,,,,,,,,,,,,,,,,554,18,Woman,Right,3,35,0.4,2,180,0,0,0.4719623999999385,['y'],0.6372530000007828,1.6059999999999999,2276.8008805,,,,,554,18,Woman,Right,
,,,,,,,,,,,,,,,,,554,18,Woman,Right,4,33,0.4,2,0,180,0,1.63173740000002,['n'],1.7684502000001885,1.452,2302.6341448000003,76.25,97.5,52.5,,554,18,Woman,Right,
,,,,,,,,,,,,,,,,,554,18,Woman,Right,4,58,0.15,1,180,-,0,0.7845108000001346,['n'],0.8492369000005056,1.456,2308.7509552,,,,,554,18,Woman,Right,
,,,,,,,,,,,,,,,,,554,18,Woman,Right,4,59,0.15,2,180,0,0,0.7857336999995823,['y'],0.5459275999992315,1.58,2312.5676953,,,,,554,18,Woman,Right,
,,,,,,,,,,,,,,,,,554,18,Woman,Right,4,49,0.15,2,0,180,0,0.2835697999998956,['n'],0.712021299999833,1.6360000000000001,2316.5675891,,,,,554,18,Woman,Right,
,,,,,,,,,,,,,,,,,554,18,Woman,Right,4,13,0.4,2,0,180,0,0.5824520000005577,['n'],0.6429192999994484,1.56,2320.6341785000004,,,,,554,18,Woman,Right,
,,,,,,,,,,,,,,,,,554,18,Woman,Right,4,66,0.15,1,180,-,0,0.33161199999995006,['n'],0.6598523000002388,1.42,2324.1177212000002,,,,,554,18,Woman,Right,
,,,,,,,,,,,,,,,,,554,18,Woman,Right,4,25,0.4,2,0,180,0,0.14258350000000064,['n'],0.9236763000008068,1.434,2328.5843473000004,,,,,554,18,Woman,Right,
,,,,,,,,,,,,,,,,,554,18,Woman,Right,4,60,0.15,1,0,-,0,0.08230720000028668,['n'],0.6524140000001353,1.612,2334.1677486999997,,,,,554,18,Woman,Right,
,,,,,,,,,,,,,,,,,554,18,Woman,Right,4,43,0.4,2,180,0,0,0.4040728999998464,['y'],0.4852848000000449,1.612,2334.1677486999997,,,,,554,18,Woman,Right,
,,,,,,,,,,,,,,,,,554,18,Woman,Right,4,39,0.4,2,180,0,0,0.3402102999998533,['y'],0.4861369999998715,1.5979999999999999,2341.2176933,,,,,554,18,Woman,Right,
,,,,,,,,,,,,,,,,,554,18,Woman,Right,4,50,0.15,1,180,-,180,0.4621297000003324,['n'],0.6704282000000603,1.6320000000000001,2345.0508995,,,,,554,18,Woman,Right,
,,,,,,,,,,,,,,,,,554,18,Woman,Right,4,37,0.4,2,0,180,180,0.8431312000002436,['y'],0.48680049999984476,1.5739999999999998,2349.2352472000002,,,,,554,18,Woman,Right,
,,,,,,,,,,,,,,,,,554,18,Woman,Right,4,14,0.4,1,180,-,0,0.5666462999997748,['n'],0.5973351000002367,1.548,2354.1350250000005,,,,,554,18,Woman,Right,
,,,,,,,,,,,,,,,,,554,18,Woman,Right,4,28,0.4,1,0,-,0,0.5675041999993482,['n'],0.5916829000007056,1.58,2357.8675089,,,,,554,18,Woman,Right,
,,,,,,,,,,,,,,,,,554,18,Woman,Right,4,69,0.15,2,0,180,0,1.1402955000003203,['n'],0.5285116999993988,1.5819999999999999,2362.2011112,,,,,554,18,Woman,Right,
,,,,,,,,,,,,,,,,,554,18,Woman,Right,4,31,0.4,2,180,0,0,0.24306890000025305,['n'],0.6726638999998613,1.576,2365.9341033,,,,,554,18,Woman,Right,
,,,,,,,,,,,,,,,,,554,18,Woman,Right,4,45,0.15,2,0,180,0,0.48762970000007044,['n'],0.5856662999995024,1.5939999999999999,2369.6841136000003,,,,,554,18,Woman,Right,
,,,,,,,,,,,,,,,,,554,18,Woman,Right,4,35,0.4,2,180,0,0,0.49724570000034873,['n'],0.6333027000000584,1.556,2374.4517788000003,,,,,554,18,Woman,Right,
,,,,,,,,,,,,,,,,,554,18,Woman,Right,4,16,0.4,1,0,-,0,0.2466997999999876,['n'],0.6507245000002513,1.38,2378.2183953000003,,,,,554,18,Woman,Right,
,,,,,,,,,,,,,,,,,554,18,Woman,Right,4,51,0.15,2,180,0,0,0.23697880000054283,['n'],1.1387930000000779,1.4060000000000001,2382.2841782000005,,,,,554,18,Woman,Right,
,,,,,,,,,,,,,,,,,554,18,Woman,Right,4,76,0.15,1,0,-,0,0.32221039999967616,['n'],0.6833088999992469,1.396,2386.1675434,,,,,554,18,Woman,Right,
,,,,,,,,,,,,,,,,,554,18,Woman,Right,4,15,0.4,2,180,0,0,0.6829212000002371,['n'],0.628175700000611,1.1179999999999999,2390.1510274,,,,,554,18,Woman,Right,
,,,,,,,,,,,,,,,,,554,18,Woman,Right,4,41,0.4,2,0,180,0,0.5287717000001066,['n'],0.6762224000003698,1.228,2394.0841331,,,,,554,18,Woman,Right,
,,,,,,,,,,,,,,,,,554,18,Woman,Right,4,3,1,2,180,0,0,0.5856336999995619,['y'],0.9727648999996745,1.696,2398.7009642000003,,,,,554,18,Woman,Right,
,,,,,,,,,,,,,,,,,554,18,Woman,Right,4,63,0.15,2,180,0,0,0.3942626999996719,['n'],0.7014782000005653,1.532,2403.1174171000002,,,,,554,18,Woman,Right,
,,,,,,,,,,,,,,,,,554,18,Woman,Right,4,22,0.4,1,180,-,180,0.5561793999995643,['n'],0.5657590999999229,1.65,2406.8508622,,,,,554,18,Woman,Right,
,,,,,,,,,,,,,,,,,554,18,Woman,Right,4,62,0.15,1,180,-,0,0.5281716999998025,['n'],0.4782117999993716,1.572,2410.6344736,,,,,554,18,Woman,Right,
,,,,,,,,,,,,,,,,,554,18,Woman,Right,4,2,1,1,180,-,180,1.183714499999951,['n'],0.5274499000006472,1.812,2415.2509195000002,,,,,554,18,Woman,Right,
,,,,,,,,,,,,,,,,,554,18,Woman,Right,4,52,0.15,1,0,-,0,0.38367509999989124,['n'],0.5994375999998738,1.756,2419.7343057999997,,,,,554,18,Woman,Right,
,,,,,,,,,,,,,,,,,554,18,Woman,Right,4,4,1,1,0,-,0,0.3174042999999074,['n'],0.5675596000000951,1.85,2424.0175154999997,,,,,554,18,Woman,Right,
,,,,,,,,,,,,,,,,,554,18,Woman,Right,4,53,0.15,2,0,180,0,0.49745119999988674,['n'],0.568881500000316,1.5819999999999999,2427.8675881,,,,,554,18,Woman,Right,
,,,,,,,,,,,,,,,,,554,18,Woman,Right,4,8,0.4,1,0,-,0,0.633993699999337,['n'],1.2492996999999377,1.596,2432.4344280000005,,,,,554,18,Woman,Right,
,,,,,,,,,,,,,,,,,554,18,Woman,Right,4,7,1,2,180,0,0,0.4169638000003033,['y'],0.6306554000002507,1.798,2436.2844579000002,,,,,554,18,Woman,Right,
,,,,,,,,,,,,,,,,,554,18,Woman,Right,4,32,0.4,1,0,-,0,2.3222667,['n'],1.7144911000004868,1.0,2443.3508813,,,,,554,18,Woman,Right,
,,,,,,,,,,,,,,,,,554,18,Woman,Right,4,78,0.15,1,180,-,0,0.3510517999993681,['n'],0.9149366000001464,1.292,2447.7508900000003,,,,,554,18,Woman,Right,
,,,,,,,,,,,,,,,,,554,18,Woman,Right,4,55,0.15,2,180,0,180,0.3661054000003787,['n'],0.8599677000001975,1.544,2451.7508740000003,,,,,554,18,Woman,Right,
,,,,,,,,,,,,,,,,,554,18,Woman,Right,4,36,0.4,1,0,-,0,0.44859229999929084,['n'],0.7561048999996274,1.566,2455.5177148000002,,,,,554,18,Woman,Right,
,,,,,,,,,,,,,,,,,554,18,Woman,Right,4,54,0.15,1,180,-,180,1.324800000000323,['n'],0.5725775999999314,1.62,2460.3183667000003,,,,,554,18,Woman,Right,
,,,,,,,,,,,,,,,,,554,18,Woman,Right,4,17,0.4,2,0,180,0,1.464885299999878,['y'],0.7257110000000466,1.54,2465.7678564999997,,,,,554,18,Woman,Right,
,,,,,,,,,,,,,,,,,554,18,Woman,Right,4,0,1,1,0,-,0,0.3513271000001623,['n'],0.7022495999999592,1.8719999999999999,2469.6009612,,,,,554,18,Woman,Right,
,,,,,,,,,,,,,,,,,554,18,Woman,Right,4,40,0.4,1,0,-,0,0.6667583999997078,['n'],0.757055300000502,1.596,2473.8009176000005,,,,,554,18,Woman,Right,
,,,,,,,,,,,,,,,,,554,18,Woman,Right,4,64,0.15,1,0,-,180,0.5939418999996633,['n'],0.7029293999994479,1.56,2478.0343769,,,,,554,18,Woman,Right,
,,,,,,,,,,,,,,,,,554,18,Woman,Right,4,48,0.15,1,0,-,180,0.670785700000124,['n'],0.7034441000005245,1.294,2482.5175326999997,,,,,554,18,Woman,Right,
,,,,,,,,,,,,,,,,,554,18,Woman,Right,4,5,1,2,0,180,180,0.5174489999999423,['y'],0.687898000000132,1.794,2486.3009047000005,,,,,554,18,Woman,Right,
,,,,,,,,,,,,,,,,,554,18,Woman,Right,4,77,0.15,2,0,180,0,1.230489700000362,['n'],0.6160837999996147,1.266,2490.7344049000003,,,,,554,18,Woman,Right,
,,,,,,,,,,,,,,,,,554,18,Woman,Right,4,72,0.15,1,0,-,180,0.5748050000001967,['n'],0.6732236000007106,1.306,2494.4675575,,,,,554,18,Woman,Right,
,,,,,,,,,,,,,,,,,554,18,Woman,Right,4,68,0.15,1,0,-,0,0.7539962000000742,['n'],0.6335245999998733,1.3639999999999999,2498.4344504,,,,,554,18,Woman,Right,
,,,,,,,,,,,,,,,,,554,18,Woman,Right,4,29,0.4,2,0,180,0,1.838971500000298,['y'],0.4898851999996623,1.638,2504.2842163000005,,,,,554,18,Woman,Right,
,,,,,,,,,,,,,,,,,554,18,Woman,Right,4,21,0.4,2,0,180,180,1.2954212999993615,['y'],1.0268150000001697,1.3980000000000001,2509.6010211000003,,,,,554,18,Woman,Right,
,,,,,,,,,,,,,,,,,554,18,Woman,Right,4,26,0.4,1,180,-,180,0.48388339999928576,['n'],0.5634953999997379,1.6320000000000001,2513.0508958,,,,,554,18,Woman,Right,
,,,,,,,,,,,,,,,,,554,18,Woman,Right,4,18,0.4,1,180,-,180,0.3073635999999169,['n'],0.5560208999995666,1.3439999999999999,2516.818583,,,,,554,18,Woman,Right,
,,,,,,,,,,,,,,,,,554,18,Woman,Right,4,67,0.15,2,180,0,180,0.6194920999996611,['n'],0.652774700000009,1.4020000000000001,2520.9011216999997,,,,,554,18,Woman,Right,
,,,,,,,,,,,,,,,,,554,18,Woman,Right,4,9,0.4,2,0,180,180,0.9934258000002956,['n'],0.5971740999993926,1.3519999999999999,2525.2508576,,,,,554,18,Woman,Right,
,,,,,,,,,,,,,,,,,554,18,Woman,Right,4,27,0.4,2,180,0,0,0.6233374000003096,['n'],0.5645547000003717,1.26,2529.084285,,,,,554,18,Woman,Right,
,,,,,,,,,,,,,,,,,554,18,Woman,Right,4,20,0.4,1,0,-,180,0.48734129999957077,['n'],0.5421870000000126,1.316,2532.6342157,,,,,554,18,Woman,Right,
,,,,,,,,,,,,,,,,,554,18,Woman,Right,4,38,0.4,1,180,-,180,0.17658040000060282,['n'],0.6541380000007848,1.316,2532.6342157,,,,,554,18,Woman,Right,
,,,,,,,,,,,,,,,,,554,18,Woman,Right,4,73,0.15,2,0,180,180,1.1607887000000119,['n'],0.6149801000001389,1.302,2540.3845171000003,,,,,554,18,Woman,Right,
,,,,,,,,,,,,,,,,,554,18,Woman,Right,4,30,0.4,1,180,-,180,0.2985506999993959,['n'],0.6392009999999573,1.302,2540.3845171000003,,,,,554,18,Woman,Right,
,,,,,,,,,,,,,,,,,554,18,Woman,Right,4,11,0.4,2,180,0,180,0.10525239999969926,['n'],1.0080148000006375,1.5,2546.9149573000004,,,,,554,18,Woman,Right,
,,,,,,,,,,,,,,,,,554,18,Woman,Right,4,61,0.15,2,0,180,180,0.42865400000027876,['n'],0.7601568999998563,1.5,2550.9066326,,,,,554,18,Woman,Right,
,,,,,,,,,,,,,,,,,554,18,Woman,Right,4,6,1,1,180,-,180,0.7005314000007274,['n'],0.6714972999998281,1.748,2556.0344287,,,,,554,18,Woman,Right,
,,,,,,,,,,,,,,,,,554,18,Woman,Right,4,42,0.4,1,180,-,180,0.26691370000025927,['n'],0.5050541999999041,1.6019999999999999,2559.3510103,,,,,554,18,Woman,Right,
,,,,,,,,,,,,,,,,,554,18,Woman,Right,4,10,0.4,1,180,-,180,0.6145497999996223,['n'],0.7697054000000207,1.286,2563.334258,,,,,554,18,Woman,Right,
,,,,,,,,,,,,,,,,,554,18,Woman,Right,4,1,1,2,0,180,180,0.527319300000272,['y'],0.49039709999942716,1.718,2567.5846094999997,,,,,554,18,Woman,Right,
,,,,,,,,,,,,,,,,,554,18,Woman,Right,4,74,0.15,1,180,-,180,0.27261770000040997,['n'],0.5227138999998715,1.036,2571.4344342000004,,,,,554,18,Woman,Right,
,,,,,,,,,,,,,,,,,554,18,Woman,Right,4,23,0.4,2,180,0,0,0.46450970000023517,['y'],0.5231682000003275,1.56,2575.1343999,,,,,554,18,Woman,Right,
,,,,,,,,,,,,,,,,,554,18,Woman,Right,4,34,0.4,1,180,-,180,0.24905299999954877,['n'],0.6036850000000413,1.624,2578.3341799,,,,,554,18,Woman,Right,
,,,,,,,,,,,,,,,,,554,18,Woman,Right,4,71,0.15,2,180,0,180,0.496550699999716,['n'],0.6280586000002586,1.4100000000000001,2582.1344507000003,,,,,554,18,Woman,Right,
,,,,,,,,,,,,,,,,,554,18,Woman,Right,4,70,0.15,1,180,-,180,0.5346226999999999,['n'],0.5727518000003329,1.312,2585.9343621999997,,,,,554,18,Woman,Right,
,,,,,,,,,,,,,,,,,554,18,Woman,Right,4,19,0.4,2,180,0,0,0.8053721999995105,['y'],2.2372287999996843,1.424,2592.2844655999997,,,,,554,18,Woman,Right,
,,,,,,,,,,,,,,,,,554,18,Woman,Right,4,47,0.15,2,180,0,180,0.6334939999997005,['n'],1.1259422000002814,1.346,2596.6175931,,,,,554,18,Woman,Right,
,,,,,,,,,,,,,,,,,554,18,Woman,Right,4,79,0.15,2,180,0,180,0.6220244999994975,['n'],0.7102852999996685,1.3860000000000001,2600.3509151,,,,,554,18,Woman,Right,
,,,,,,,,,,,,,,,,,554,18,Woman,Right,4,44,0.15,1,0,-,0,0.4305401999999958,['n'],0.7027600000001257,1.35,2603.9509874000005,,,,,554,18,Woman,Right,
,,,,,,,,,,,,,,,,,554,18,Woman,Right,4,46,0.15,1,180,-,180,0.34456219999992754,['n'],0.5271893999997701,1.35,2603.9509874000005,,,,,554,18,Woman,Right,
,,,,,,,,,,,,,,,,,554,18,Woman,Right,4,56,0.15,1,0,-,0,0.38461310000002413,['n'],0.6716066000008141,1.264,2610.8178811,,,,,554,18,Woman,Right,
,,,,,,,,,,,,,,,,,554,18,Woman,Right,4,57,0.15,2,0,180,0,0.044390199999725155,['n'],2.0404853000000003,1.282,2615.9175931,,,,,554,18,Woman,Right,
,,,,,,,,,,,,,,,,,554,18,Woman,Right,4,24,0.4,1,0,-,0,0.7183773999995537,['n'],0.7932644000002256,1.592,2620.3843607999997,,,,,554,18,Woman,Right,
,,,,,,,,,,,,,,,,,554,18,Woman,Right,4,65,0.15,2,0,180,180,0.741701799999646,['n'],0.6818792999993093,1.236,2624.5009321999996,,,,,554,18,Woman,Right,
,,,,,,,,,,,,,,,,,554,18,Woman,Right,4,12,0.4,1,0,-,0,0.316302899999755,['n'],0.6418493000001035,1.6,2629.9343265999996,,,,,554,18,Woman,Right,
,,,,,,,,,,,,,,,,,554,18,Woman,Right,4,75,0.15,2,180,0,0,0.34451609999996435,['n'],0.7225259999995615,1.308,2633.6676892000005,,,,,554,18,Woman,Right,
,,,,,,,,,,,,,,,,,554,18,Woman,Right,5,10,0.4,1,180,-,180,0.5657946000001175,['n'],1.4764169000000038,1.6059999999999999,2648.2176319,66.25,100.0,32.5,,554,18,Woman,Right,
,,,,,,,,,,,,,,,,,554,18,Woman,Right,5,25,0.4,2,0,180,0,0.8351585999998861,['y'],0.5088682000005065,1.6139999999999999,2652.2010024,,,,,554,18,Woman,Right,
,,,,,,,,,,,,,,,,,554,18,Woman,Right,5,62,0.15,1,180,-,180,0.19431149999945774,['n'],0.5663709000000381,1.366,2655.9843288,,,,,554,18,Woman,Right,
,,,,,,,,,,,,,,,,,554,18,Woman,Right,5,63,0.15,2,180,0,180,0.3660884000000806,['n'],0.6377540000003137,1.3940000000000001,2659.4509651999997,,,,,554,18,Woman,Right,
,,,,,,,,,,,,,,,,,554,18,Woman,Right,5,12,0.4,1,0,-,0,0.4996488999995563,['n'],0.6547832000005656,1.556,2664.0847357000002,,,,,554,18,Woman,Right,
,,,,,,,,,,,,,,,,,554,18,Woman,Right,5,74,0.15,1,180,-,180,0.7571118999994724,['n'],0.470843999999488,1.388,2667.8009848,,,,,554,18,Woman,Right,
,,,,,,,,,,,,,,,,,554,18,Woman,Right,5,21,0.4,2,0,180,180,0.8664767000000211,['y'],0.4393755000000965,1.532,2671.6843502,,,,,554,18,Woman,Right,
,,,,,,,,,,,,,,,,,554,18,Woman,Right,5,55,0.15,2,180,0,180,0.39539390000027197,['n'],0.599895700000161,1.388,2674.9681868,,,,,554,18,Woman,Right,
,,,,,,,,,,,,,,,,,554,18,Woman,Right,5,28,0.4,1,0,-,0,0.42311139999947045,['n'],0.5202277999997023,1.5939999999999999,2678.4843941999998,,,,,554,18,Woman,Right,
,,,,,,,,,,,,,,,,,554,18,Woman,Right,5,6,1,1,180,-,180,0.5201892999994016,['n'],0.7529474000002665,1.6640000000000001,2682.5509528000002,,,,,554,18,Woman,Right,
,,,,,,,,,,,,,,,,,554,18,Woman,Right,5,7,1,2,180,0,0,0.4471390999997311,['y'],0.5935921999998754,1.616,2686.8179146,,,,,554,18,Woman,Right,
,,,,,,,,,,,,,,,,,554,18,Woman,Right,5,37,0.4,2,0,180,180,0.7163168000006408,['y'],0.4020073000001503,1.566,2690.6180946000004,,,,,554,18,Woman,Right,
,,,,,,,,,,,,,,,,,554,18,Woman,Right,5,41,0.4,2,0,180,180,0.49365690000013274,['y'],0.45046800000000076,1.57,2694.3178276999997,,,,,554,18,Woman,Right,
,,,,,,,,,,,,,,,,,554,18,Woman,Right,5,40,0.4,1,0,-,0,0.48373220000030415,['n'],0.8907183999999688,1.694,2699.067623,,,,,554,18,Woman,Right,
,,,,,,,,,,,,,,,,,554,18,Woman,Right,5,24,0.4,1,0,-,0,0.4929373000004489,['n'],0.5714084999999614,1.592,2704.6179422000005,,,,,554,18,Woman,Right,
,,,,,,,,,,,,,,,,,554,18,Woman,Right,5,69,0.15,2,0,180,0,0.48748759999944014,['n'],0.8524455999995553,1.3900000000000001,2709.7845329,,,,,554,18,Woman,Right,
,,,,,,,,,,,,,,,,,554,18,Woman,Right,5,57,0.15,2,0,180,0,0.5935094000005847,['n'],0.6687747999994826,1.412,2713.7176302,,,,,554,18,Woman,Right,
,,,,,,,,,,,,,,,,,554,18,Woman,Right,5,35,0.4,2,180,0,0,0.42143880000003264,['y'],0.9657353000002331,1.354,2718.4846035,,,,,554,18,Woman,Right,
,,,,,,,,,,,,,,,,,554,18,Woman,Right,5,49,0.15,2,0,180,0,0.42111300000033225,['n'],0.7337063000004491,1.556,2722.9678731000004,,,,,554,18,Woman,Right,
,,,,,,,,,,,,,,,,,554,18,Woman,Right,5,73,0.15,2,0,180,0,0.5568026000000827,['n'],3.09498209999947,1.424,2729.5510139,,,,,554,18,Woman,Right,
,,,,,,,,,,,,,,,,,554,18,Woman,Right,5,0,1,1,0,-,0,0.37835420000010345,['n'],0.5109646000000794,1.716,2733.1845346,,,,,554,18,Woman,Right,
,,,,,,,,,,,,,,,,,554,18,Woman,Right,5,60,0.15,1,0,-,0,0.29503569999997126,['n'],0.5200592000001052,1.448,2737.2510221000002,,,,,554,18,Woman,Right,
,,,,,,,,,,,,,,,,,554,18,Woman,Right,5,26,0.4,1,180,-,180,0.28341679999994085,['n'],0.5282662999998138,1.5899999999999999,2741.2176691000004,,,,,554,18,Woman,Right,
,,,,,,,,,,,,,,,,,554,18,Woman,Right,5,36,0.4,1,0,-,0,0.26828589999968244,['n'],0.6249769999994896,1.748,2744.6509947000004,,,,,554,18,Woman,Right,
,,,,,,,,,,,,,,,,,554,18,Woman,Right,5,31,0.4,2,180,0,0,0.44418060000043624,['y'],0.6173899999994319,1.5819999999999999,2748.1509971000005,,,,,554,18,Woman,Right,
,,,,,,,,,,,,,,,,,554,18,Woman,Right,5,52,0.15,1,0,-,180,0.45667349999985163,['n'],0.4890059999997902,1.49,2751.7510328,,,,,554,18,Woman,Right,
,,,,,,,,,,,,,,,,,554,18,Woman,Right,5,65,0.15,2,0,180,0,0.41928490000009333,['n'],0.4980838000001313,1.592,2755.0845355,,,,,554,18,Woman,Right,
,,,,,,,,,,,,,,,,,554,18,Woman,Right,5,11,0.4,2,180,0,0,0.4249646999996912,['y'],0.618446600000425,1.592,2755.0845355,,,,,554,18,Woman,Right,
,,,,,,,,,,,,,,,,,554,18,Woman,Right,5,58,0.15,1,180,-,180,0.6495738000003257,['n'],0.6354749000001902,1.568,2762.8010381000004,,,,,554,18,Woman,Right,
,,,,,,,,,,,,,,,,,554,18,Woman,Right,5,71,0.15,2,180,0,180,1.3800453000003472,['n'],0.5074920999995811,1.26,2767.2676991,,,,,554,18,Woman,Right,
,,,,,,,,,,,,,,,,,554,18,Woman,Right,5,48,0.15,1,0,-,180,0.695608799999718,['n'],0.5642829000007623,1.052,2771.1012216999998,,,,,554,18,Woman,Right,
,,,,,,,,,,,,,,,,,554,18,Woman,Right,5,79,0.15,2,180,0,180,0.350086100000226,['n'],0.5271308000001227,1.0,2774.8184186999997,,,,,554,18,Woman,Right,
,,,,,,,,,,,,,,,,,554,18,Woman,Right,5,43,0.4,2,180,0,0,0.5835283000005802,['y'],0.645166600000266,1.0,2774.8184186999997,,,,,554,18,Woman,Right,
,,,,,,,,,,,,,,,,,554,18,Woman,Right,5,51,0.15,2,180,0,180,0.44749940000019706,['n'],0.3814012000002549,1.3900000000000001,2781.9676443999997,,,,,554,18,Woman,Right,
,,,,,,,,,,,,,,,,,554,18,Woman,Right,5,8,0.4,1,0,-,0,0.5533378999998604,['n'],0.7259138999997958,1.552,2785.8185394,,,,,554,18,Woman,Right,
,,,,,,,,,,,,,,,,,554,18,Woman,Right,5,15,0.4,2,180,0,0,1.1608900000001086,['y'],0.5903412999996362,1.552,2785.8185394,,,,,554,18,Woman,Right,
,,,,,,,,,,,,,,,,,554,18,Woman,Right,5,2,1,1,180,-,180,0.47601880000001984,['n'],0.5753188999997292,1.702,2794.1679259000002,,,,,554,18,Woman,Right,
,,,,,,,,,,,,,,,,,554,18,Woman,Right,5,14,0.4,1,180,-,180,0.40744739999991,['n'],0.5112059000002773,1.5899999999999999,2797.9009885000005,,,,,554,18,Woman,Right,
,,,,,,,,,,,,,,,,,554,18,Woman,Right,5,20,0.4,1,0,-,0,0.6396448999994391,['n'],1.0798852000007173,1.5859999999999999,2802.534404,,,,,554,18,Woman,Right,
,,,,,,,,,,,,,,,,,554,18,Woman,Right,5,46,0.15,1,180,-,180,0.6087511999994604,['n'],0.48071970000000874,1.266,2805.9842992000004,,,,,554,18,Woman,Right,
,,,,,,,,,,,,,,,,,554,18,Woman,Right,5,38,0.4,1,180,-,180,0.8760902000003625,['n'],0.34487130000070465,1.266,2805.9842992000004,,,,,554,18,Woman,Right,
,,,,,,,,,,,,,,,,,554,18,Woman,Right,5,54,0.15,1,180,-,180,0.47339560000000347,['n'],0.5532786000003398,1.616,2813.6510282,,,,,554,18,Woman,Right,
,,,,,,,,,,,,,,,,,554,18,Woman,Right,5,53,0.15,2,0,180,0,0.6353259000006801,['n'],0.6098332999999911,1.3719999999999999,2817.5676519,,,,,554,18,Woman,Right,
,,,,,,,,,,,,,,,,,554,18,Woman,Right,5,77,0.15,2,0,180,180,0.26622500000030414,['n'],0.6422407000000021,1.338,2821.001015,,,,,554,18,Woman,Right,
,,,,,,,,,,,,,,,,,554,18,Woman,Right,5,67,0.15,2,180,0,0,0.44022360000053595,['n'],0.6190925000000789,1.6320000000000001,2824.7510721,,,,,554,18,Woman,Right,
,,,,,,,,,,,,,,,,,554,18,Woman,Right,5,16,0.4,1,0,-,0,0.2674115999998321,['n'],0.6915601999999126,1.596,2828.9512115999996,,,,,554,18,Woman,Right,
,,,,,,,,,,,,,,,,,554,18,Woman,Right,5,42,0.4,1,180,-,180,0.4305520999996588,['n'],0.49230939999961265,1.314,2832.3510913,,,,,554,18,Woman,Right,
,,,,,,,,,,,,,,,,,554,18,Woman,Right,5,70,0.15,1,180,-,180,0.31735269999990123,['n'],0.5325247999999192,1.272,2835.7510358,,,,,554,18,Woman,Right,
,,,,,,,,,,,,,,,,,554,18,Woman,Right,5,29,0.4,2,0,180,180,1.4227728999994724,['y'],1.3088932999999088,1.558,2841.1343751000004,,,,,554,18,Woman,Right,
,,,,,,,,,,,,,,,,,554,18,Woman,Right,5,18,0.4,1,180,-,180,0.3649554999992688,['n'],0.6931588999996166,1.27,2844.9343615999996,,,,,554,18,Woman,Right,
,,,,,,,,,,,,,,,,,554,18,Woman,Right,5,72,0.15,1,0,-,180,0.42911999999978434,['n'],0.5024428000006083,1.27,2848.4845764,,,,,554,18,Woman,Right,
,,,,,,,,,,,,,,,,,554,18,Woman,Right,5,64,0.15,1,0,-,0,0.20873709999978018,['n'],0.6622826000002533,1.5979999999999999,2852.0344262,,,,,554,18,Woman,Right,
,,,,,,,,,,,,,,,,,554,18,Woman,Right,5,39,0.4,2,180,0,0,0.4499608999994962,['y'],0.5610243000000992,1.5979999999999999,2856.0010432,,,,,554,18,Woman,Right,
,,,,,,,,,,,,,,,,,554,18,Woman,Right,5,68,0.15,1,0,-,0,0.3366301999994903,['n'],0.687238200000138,1.548,2860.0177298,,,,,554,18,Woman,Right,
,,,,,,,,,,,,,,,,,554,18,Woman,Right,5,45,0.15,2,0,180,180,0.5066999999999098,['n'],0.6397399000006772,1.548,2860.0177298,,,,,554,18,Woman,Right,
,,,,,,,,,,,,,,,,,554,18,Woman,Right,5,75,0.15,2,180,0,0,0.11466079999991052,['n'],0.7605178000003434,1.5,2866.6265095999997,,,,,554,18,Woman,Right,
,,,,,,,,,,,,,,,,,554,18,Woman,Right,5,1,1,2,0,180,180,0.6019501999999193,['y'],0.40087620000031166,1.5,2870.1708205000004,,,,,554,18,Woman,Right,
,,,,,,,,,,,,,,,,,554,18,Woman,Right,5,13,0.4,2,0,180,180,0.5338332000001174,['y'],0.3536757000001671,1.5,2873.7555979999997,,,,,554,18,Woman,Right,
,,,,,,,,,,,,,,,,,554,18,Woman,Right,5,61,0.15,2,0,180,180,0.9747600000000602,['y'],0.41756900000018504,1.5779999999999998,2878.4176918000003,,,,,554,18,Woman,Right,
,,,,,,,,,,,,,,,,,554,18,Woman,Right,5,3,1,2,180,0,0,0.4045265999993717,['y'],0.4660897000003388,1.764,2882.1180989000004,,,,,554,18,Woman,Right,
,,,,,,,,,,,,,,,,,554,18,Woman,Right,5,9,0.4,2,0,180,180,0.39176490000045305,['y'],0.3621071999996275,1.694,2885.6677596,,,,,554,18,Woman,Right,
,,,,,,,,,,,,,,,,,554,18,Woman,Right,5,33,0.4,2,0,180,180,0.4726197999998476,['y'],0.7150851000005787,1.792,2889.5179988,,,,,554,18,Woman,Right,
,,,,,,,,,,,,,,,,,554,18,Woman,Right,5,34,0.4,1,180,-,0,0.3612692999995488,['y'],0.46756249999998545,1.702,2892.9010017,,,,,554,18,Woman,Right,
,,,,,,,,,,,,,,,,,554,18,Woman,Right,5,50,0.15,1,180,-,0,0.437866700000086,['n'],0.6201951000002737,1.696,2896.3678038999997,,,,,554,18,Woman,Right,
,,,,,,,,,,,,,,,,,554,18,Woman,Right,5,47,0.15,2,180,0,0,0.4191123000000516,['y'],0.9165640999999596,1.5899999999999999,2900.1677109,,,,,554,18,Woman,Right,
,,,,,,,,,,,,,,,,,554,18,Woman,Right,5,5,1,2,0,180,180,0.3657013000001825,['y'],0.4527545999999347,2.0,2903.5679492,,,,,554,18,Woman,Right,
,,,,,,,,,,,,,,,,,554,18,Woman,Right,5,22,0.4,1,180,-,0,0.40996570000061183,['y'],0.8534452000003512,1.5819999999999999,2907.3519936000002,,,,,554,18,Woman,Right,
,,,,,,,,,,,,,,,,,554,18,Woman,Right,5,66,0.15,1,180,-,0,0.49848910000036994,['n'],0.79777920000015,1.4140000000000001,2911.301112,,,,,554,18,Woman,Right,
,,,,,,,,,,,,,,,,,554,18,Woman,Right,5,59,0.15,2,180,0,180,0.8836184000001595,['n'],0.5538243999999395,1.318,2915.1511029000003,,,,,554,18,Woman,Right,
,,,,,,,,,,,,,,,,,554,18,Woman,Right,5,78,0.15,1,180,-,180,0.3971037000001161,['n'],0.510692900000322,1.27,2918.4014202,,,,,554,18,Woman,Right,
,,,,,,,,,,,,,,,,,554,18,Woman,Right,5,32,0.4,1,0,-,0,0.26912090000041644,['n'],0.6081016999996791,1.196,2921.7681949999997,,,,,554,18,Woman,Right,
,,,,,,,,,,,,,,,,,554,18,Woman,Right,5,44,0.15,1,0,-,0,0.19589790000009089,['n'],0.7038876000005985,1.308,2925.1846118000003,,,,,554,18,Woman,Right,
,,,,,,,,,,,,,,,,,554,18,Woman,Right,5,19,0.4,2,180,0,0,0.04573100000015984,['n'],1.9280484000000797,1.308,2930.4179300000005,,,,,554,18,Woman,Right,
,,,,,,,,,,,,,,,,,554,18,Woman,Right,5,4,1,1,0,-,0,0.22983949999979814,['n'],0.5051579000000856,1.766,2933.601114,,,,,554,18,Woman,Right,
,,,,,,,,,,,,,,,,,554,18,Woman,Right,5,23,0.4,2,180,0,0,0.4541080000008151,['y'],0.7691223000001628,1.4140000000000001,2937.5010807,,,,,554,18,Woman,Right,
,,,,,,,,,,,,,,,,,554,18,Woman,Right,5,17,0.4,2,0,180,180,1.1295953999997437,['y'],0.9136861999995745,1.552,2942.2676712,,,,,554,18,Woman,Right,
,,,,,,,,,,,,,,,,,554,18,Woman,Right,5,76,0.15,1,0,-,0,0.18790890000036597,['n'],0.9225493000003553,1.552,2942.2676712,,,,,554,18,Woman,Right,
,,,,,,,,,,,,,,,,,554,18,Woman,Right,5,30,0.4,1,180,-,180,0.2383788999995886,['n'],0.5708752000000459,1.5,2948.4611407,,,,,554,18,Woman,Right,
,,,,,,,,,,,,,,,,,554,18,Woman,Right,5,56,0.15,1,0,-,0,0.3748174000002109,['n'],0.6987361999999848,1.5,2951.9249568000005,,,,,554,18,Woman,Right,
,,,,,,,,,,,,,,,,,554,18,Woman,Right,5,27,0.4,2,180,0,0,0.3671292999997604,['n'],0.8890156000006755,1.5,2955.557968,,,,,554,18,Woman,Right,
,,,,,,,,,,,,,,,,,,,,,,,,,,,,,,,,,75.0,95.0,55.0,2427.8392415999997,,,,,
