p_block,p_section,p_coherence,p_direction1,p_direction2,p_direction_response,p_direction_RT,p_change_response,p_change_RT,p_confidence,p_full_correct,p_without5_correct,p_full_total,p_without5_total,p_full_avg,p_witout5_avg,p_total_time,sub,age,sex,handedness,loop,trial randomization,coherence,condition,direction1,direction2,direction_response,direction_RT,change_response,change_RT,change_confidence,change_confidence_RT,block_direction_avg,block_stable_avg,block_change_avg,total_time,sub,age,sex,handedness,
1,1,1.0,0,-,0,0.26758460000019113,-,-,-,,,,,,,,577,18,Woman,Right,,,,,,,,,,,,,,,,,577,18,Woman,Right,
1,1,1.0,180,-,180,1.466713300000265,-,-,-,,,,,,,,577,18,Woman,Right,,,,,,,,,,,,,,,,,577,18,Woman,Right,
1,1,1.0,0,-,0,0.5668766999997388,-,-,-,,,,,,,,577,18,Woman,Right,,,,,,,,,,,,,,,,,577,18,Woman,Right,
1,1,1.0,0,-,0,0.2773304999991524,-,-,-,,,,,,,,577,18,Woman,Right,,,,,,,,,,,,,,,,,577,18,Woman,Right,
1,1,1.0,0,-,0,0.052541300000484625,-,-,-,,,,,,,,577,18,Woman,Right,,,,,,,,,,,,,,,,,577,18,Woman,Right,
1,1,1.0,180,-,180,0.01687820000006468,-,-,-,,,,,,,,577,18,Woman,Right,,,,,,,,,,,,,,,,,577,18,Woman,Right,
1,1,1.0,180,-,180,0.5820278000001053,-,-,-,,,,,,,,577,18,Woman,Right,,,,,,,,,,,,,,,,,577,18,Woman,Right,
1,1,1.0,180,-,180,0.35274329999992915,-,-,-,,,,,,,,577,18,Woman,Right,,,,,,,,,,,,,,,,,577,18,Woman,Right,
1,1,1.0,180,-,180,0.01699170000028971,-,-,-,,,,,,,,577,18,Woman,Right,,,,,,,,,,,,,,,,,577,18,Woman,Right,
1,1,1.0,0,-,0,0.01664219999929628,-,-,-,10,10,10,10,1.0,1.0,,577,18,Woman,Right,,,,,,,,,,,,,,,,,577,18,Woman,Right,
2,1,0.15,180,-,180,1.2280577999999878,-,-,-,,,,,,,,577,18,Woman,Right,,,,,,,,,,,,,,,,,577,18,Woman,Right,
2,1,0.15,180,-,0,0.10951840000052471,-,-,-,,,,,,,,577,18,Woman,Right,,,,,,,,,,,,,,,,,577,18,Woman,Right,
2,1,0.4,180,-,180,0.016634999999951106,-,-,-,,,,,,,,577,18,Woman,Right,,,,,,,,,,,,,,,,,577,18,Woman,Right,
2,1,0.4,180,-,180,0.6688523000002533,-,-,-,,,,,,,,577,18,Woman,Right,,,,,,,,,,,,,,,,,577,18,Woman,Right,
2,1,0.15,0,-,0,0.016753199999584467,-,-,-,,,,,,,,577,18,Woman,Right,,,,,,,,,,,,,,,,,577,18,Woman,Right,
2,1,0.15,180,-,0,0.9332203000003574,-,-,-,,,,,,,,577,18,Woman,Right,,,,,,,,,,,,,,,,,577,18,Woman,Right,
2,1,0.15,0,-,0,0.01665930000035587,-,-,-,,,,,,,,577,18,Woman,Right,,,,,,,,,,,,,,,,,577,18,Woman,Right,
2,1,0.4,180,-,180,0.23543869999957678,-,-,-,,,,,,,,577,18,Woman,Right,,,,,,,,,,,,,,,,,577,18,Woman,Right,
2,1,0.4,180,-,0,0.2440311999998812,-,-,-,,,,,,,,577,18,Woman,Right,,,,,,,,,,,,,,,,,577,18,Woman,Right,
2,1,0.4,180,-,180,0.2289426999996067,-,-,-,7,4,10,5,0.7,0.8,,577,18,Woman,Right,,,,,,,,,,,,,,,,,577,18,Woman,Right,
3,2,1.0,180,0,0,1.779311800000869,['y'],2.2368990000004487,2,,,,,,,,577,18,Woman,Right,,,,,,,,,,,,,,,,,577,18,Woman,Right,
3,2,1.0,180,0,0,0.8981480000002193,['y'],1.1678154999999606,2.0,,,,,,,,577,18,Woman,Right,,,,,,,,,,,,,,,,,577,18,Woman,Right,
3,2,1.0,180,0,0,0.7542765000007421,['y'],1.2938156999998682,1.99,,,,,,,,577,18,Woman,Right,,,,,,,,,,,,,,,,,577,18,Woman,Right,
3,2,1.0,180,0,0,1.3334193999999115,['y'],0.8089568999994299,1.99,,,,,,,,577,18,Woman,Right,,,,,,,,,,,,,,,,,577,18,Woman,Right,
3,2,1.0,180,0,0,0.807840500000566,['y'],0.8979633999997532,2.0,,,,,,,,577,18,Woman,Right,,,,,,,,,,,,,,,,,577,18,Woman,Right,
3,2,1.0,180,0,0,0.3246857000003729,['y'],0.29029259999970236,2.0,,,,,,,,577,18,Woman,Right,,,,,,,,,,,,,,,,,577,18,Woman,Right,
3,2,1.0,180,0,0,0.3858732999997301,['y'],0.28416310000011435,2.0,,,,,,,,577,18,Woman,Right,,,,,,,,,,,,,,,,,577,18,Woman,Right,
3,2,1.0,0,180,180,0.5540051999996649,['y'],0.9421642000006614,2.0,,,,,,,,577,18,Woman,Right,,,,,,,,,,,,,,,,,577,18,Woman,Right,
3,2,1.0,180,0,0,0.4468482000002041,['y'],0.5359640000006038,2.0,,,,,,,,577,18,Woman,Right,,,,,,,,,,,,,,,,,577,18,Woman,Right,
3,2,1.0,0,180,180,0.36799299999984214,['y'],0.6585076000001209,2.0,10,10,10,10,1.0,1.0,,577,18,Woman,Right,,,,,,,,,,,,,,,,,577,18,Woman,Right,
4,2,0.15,0,180,0,0.8224299000003157,['y'],1.1024004000000787,2.0,,,,,,,,577,18,Woman,Right,,,,,,,,,,,,,,,,,577,18,Woman,Right,
4,2,0.15,180,0,0,3.784538899999461,['n'],0.9303287000002456,1.194,,,,,,,,577,18,Woman,Right,,,,,,,,,,,,,,,,,577,18,Woman,Right,
4,2,0.4,180,0,0,0.7069845999994868,['y'],3.1126766000006683,1.926,,,,,,,,577,18,Woman,Right,,,,,,,,,,,,,,,,,577,18,Woman,Right,
4,2,0.15,0,180,180,1.1996808000003512,['y'],1.3289198000002216,1.928,,,,,,,,577,18,Woman,Right,,,,,,,,,,,,,,,,,577,18,Woman,Right,
4,2,0.15,180,0,0,0.7095542999995814,['y'],0.8347020999999586,1.716,,,,,,,,577,18,Woman,Right,,,,,,,,,,,,,,,,,577,18,Woman,Right,
4,2,0.4,180,0,0,0.5779416000004858,['y'],0.6604536999993798,1.96,,,,,,,,577,18,Woman,Right,,,,,,,,,,,,,,,,,577,18,Woman,Right,
4,2,0.4,0,180,180,0.5750348999999915,['y'],0.27319510000052105,1.924,,,,,,,,577,18,Woman,Right,,,,,,,,,,,,,,,,,577,18,Woman,Right,
4,2,0.15,0,180,180,0.5168445999997857,['y'],0.620211599999493,1.926,,,,,,,,577,18,Woman,Right,,,,,,,,,,,,,,,,,577,18,Woman,Right,
4,2,0.4,0,180,180,0.2423783000003823,['y'],0.2897414999997636,1.97,,,,,,,,577,18,Woman,Right,,,,,,,,,,,,,,,,,577,18,Woman,Right,
4,2,0.15,0,180,180,0.8978278999993563,['y'],0.319903599999634,1.97,9,4,10,4,0.9,1.0,,577,18,Woman,Right,,,,,,,,,,,,,,,,,577,18,Woman,Right,
5,3,0.4,180,0,0,0.6328718000004301,['y'],0.6170504000001529,1.946,,,,,,,,577,18,Woman,Right,,,,,,,,,,,,,,,,,577,18,Woman,Right,
5,3,1.0,0,180,180,0.29335189999983413,['y'],0.29105279999930644,1.946,,,,,,,,577,18,Woman,Right,,,,,,,,,,,,,,,,,577,18,Woman,Right,
5,3,1.0,180,0,0,0.4413363000003301,['y'],0.45659880000039266,1.946,,,,,,,,577,18,Woman,Right,,,,,,,,,,,,,,,,,577,18,Woman,Right,
5,3,0.4,0,-,0,1.2433006999999634,['n'],0.33149279999997816,1.946,,,,,,,,577,18,Woman,Right,,,,,,,,,,,,,,,,,577,18,Woman,Right,
5,3,1.0,0,180,180,0.35400939999999537,['y'],0.590507400000206,1.946,,,,,,,,577,18,Woman,Right,,,,,,,,,,,,,,,,,577,18,Woman,Right,
5,3,0.15,0,-,0,1.1085246000002371,['n'],0.3148363000000245,1.932,,,,,,,,577,18,Woman,Right,,,,,,,,,,,,,,,,,577,18,Woman,Right,
5,3,0.4,0,-,0,0.4330128000001423,['y'],0.553091000000677,1.944,,,,,,,,577,18,Woman,Right,,,,,,,,,,,,,,,,,577,18,Woman,Right,
5,3,0.15,0,180,0,0.6836179000001721,['n'],5.457743599999958,1.194,,,,,,,,577,18,Woman,Right,,,,,,,,,,,,,,,,,577,18,Woman,Right,
5,3,0.4,180,0,0,1.2687543000001824,['y'],1.0113502000003791,1.566,,,,,,,,577,18,Woman,Right,,,,,,,,,,,,,,,,,577,18,Woman,Right,
5,3,0.15,0,-,0,0.8335793999995076,['y'],1.8412241999994876,1.3719999999999999,9,7,10,7,0.9,1.0,,577,18,Woman,Right,,,,,,,,,,,,,,,,,577,18,Woman,Right,
,,,,,,,,,,,,,,,,6.70000008540228e-06,577,18,Woman,Right,,,,,,,,,,,,,,,,,577,18,Woman,Right,
,,,,,,,,,,,,,,,,,577,18,Woman,Right,0,57,0.15,2,0,180,180,1.8085509000002276,['y'],1.8066918999993504,1.242,326.49721560000035,,,,,577,18,Woman,Right,
,,,,,,,,,,,,,,,,,577,18,Woman,Right,0,38,0.4,1,180,-,0,1.3230894999996963,['y'],2.2152766999997766,1.228,334.13038890000007,,,,,577,18,Woman,Right,
,,,,,,,,,,,,,,,,,577,18,Woman,Right,0,30,0.4,1,180,-,180,1.6413097999993624,['n'],1.126720999999634,1.278,340.08042190000015,,,,,577,18,Woman,Right,
,,,,,,,,,,,,,,,,,577,18,Woman,Right,0,56,0.15,1,0,-,0,1.119119399999363,['n'],2.4228923999999097,1.6480000000000001,346.6470807000005,,,,,577,18,Woman,Right,
,,,,,,,,,,,,,,,,,577,18,Woman,Right,0,22,0.4,1,180,-,0,3.8222022999998444,['n'],1.2464547999998103,1.242,355.0302512999997,,,,,577,18,Woman,Right,
,,,,,,,,,,,,,,,,,577,18,Woman,Right,0,76,0.15,1,0,-,0,0.46531319999940024,['n'],0.9748626000000513,1.26,358.9970419000001,,,,,577,18,Woman,Right,
,,,,,,,,,,,,,,,,,577,18,Woman,Right,0,0,1,1,0,-,0,0.546417499999734,['y'],1.599076000000423,1.896,366.38089779999973,,,,,577,18,Woman,Right,
,,,,,,,,,,,,,,,,,577,18,Woman,Right,0,61,0.15,2,0,180,180,0.653270099999645,['n'],2.4709507999996276,1.712,372.73025419999976,,,,,577,18,Woman,Right,
,,,,,,,,,,,,,,,,,577,18,Woman,Right,0,43,0.4,2,180,0,0,1.2054129999996803,['y'],1.0711296999998012,1.774,378.0138157000001,,,,,577,18,Woman,Right,
,,,,,,,,,,,,,,,,,577,18,Woman,Right,0,66,0.15,1,180,-,0,0.9035851999997249,['n'],0.9507125000000087,1.334,383.88024680000035,,,,,577,18,Woman,Right,
,,,,,,,,,,,,,,,,,577,18,Woman,Right,0,54,0.15,1,180,-,0,2.916766500000449,['n'],1.4063026000003447,1.01,391.7135662999999,,,,,577,18,Woman,Right,
,,,,,,,,,,,,,,,,,577,18,Woman,Right,0,14,0.4,1,180,-,0,0.952820000000429,['y'],1.2709138000000166,1.634,397.1968631999998,,,,,577,18,Woman,Right,
,,,,,,,,,,,,,,,,,577,18,Woman,Right,0,49,0.15,2,0,180,0,0.6142164000002595,['n'],1.1188570000003892,1.424,403.2967752000004,,,,,577,18,Woman,Right,
,,,,,,,,,,,,,,,,,577,18,Woman,Right,0,79,0.15,2,180,0,0,0.4778228000004674,['n'],0.6386284999998679,1.686,407.4467758999999,,,,,577,18,Woman,Right,
,,,,,,,,,,,,,,,,,577,18,Woman,Right,0,1,1,2,0,180,180,1.0742792000000918,['y'],0.6471068999999261,1.692,412.2134292999999,,,,,577,18,Woman,Right,
,,,,,,,,,,,,,,,,,577,18,Woman,Right,0,23,0.4,2,180,0,0,0.7491987000003064,['y'],0.8546225999998569,1.692,416.9467288000005,,,,,577,18,Woman,Right,
,,,,,,,,,,,,,,,,,577,18,Woman,Right,0,67,0.15,2,180,0,0,1.1741326999999728,['y'],0.6551224000004368,1.692,421.4467869,,,,,577,18,Woman,Right,
,,,,,,,,,,,,,,,,,577,18,Woman,Right,0,58,0.15,1,180,-,0,1.2567771000003631,['y'],0.8233358999996199,1.226,426.91322880000007,,,,,577,18,Woman,Right,
,,,,,,,,,,,,,,,,,577,18,Woman,Right,0,62,0.15,1,180,-,0,1.0182371999999305,['y'],0.7998797000000195,1.616,431.88001840000015,,,,,577,18,Woman,Right,
,,,,,,,,,,,,,,,,,577,18,Woman,Right,0,44,0.15,1,0,-,180,1.7875114999997095,['y'],0.8704021000003195,1.338,438.8132824000004,,,,,577,18,Woman,Right,
,,,,,,,,,,,,,,,,,577,18,Woman,Right,0,73,0.15,2,0,180,180,1.1220617999997557,['y'],0.8230124000001524,1.252,443.8635231999997,,,,,577,18,Woman,Right,
,,,,,,,,,,,,,,,,,577,18,Woman,Right,0,69,0.15,2,0,180,0,1.2003795000000537,['n'],3.2864589999999225,1.176,452.5132530000001,,,,,577,18,Woman,Right,
,,,,,,,,,,,,,,,,,577,18,Woman,Right,0,52,0.15,1,0,-,180,0.5556988999996975,['y'],3.8478809999996884,1.734,462.5465744000003,,,,,577,18,Woman,Right,
,,,,,,,,,,,,,,,,,577,18,Woman,Right,0,45,0.15,2,0,180,180,0.9776188000005277,['y'],0.807349400000021,1.646,467.9965140000004,,,,,577,18,Woman,Right,
,,,,,,,,,,,,,,,,,577,18,Woman,Right,0,17,0.4,2,0,180,180,0.6580024000004414,['y'],0.630916399999478,1.972,472.5133009000001,,,,,577,18,Woman,Right,
,,,,,,,,,,,,,,,,,577,18,Woman,Right,0,29,0.4,2,0,180,180,0.8971043000001373,['y'],1.7349381000003632,2.0,478.04645830000027,,,,,577,18,Woman,Right,
,,,,,,,,,,,,,,,,,577,18,Woman,Right,0,55,0.15,2,180,0,0,0.47978190000048926,['y'],0.9272769999997763,2.0,482.54648090000046,,,,,577,18,Woman,Right,
,,,,,,,,,,,,,,,,,577,18,Woman,Right,0,42,0.4,1,180,-,0,0.6161134000003585,['y'],1.1746207999995022,2.0,487.4963456000005,,,,,577,18,Woman,Right,
,,,,,,,,,,,,,,,,,577,18,Woman,Right,0,8,0.4,1,0,-,0,1.0112052999993466,['n'],0.9351405000006707,1.638,492.91300630000023,,,,,577,18,Woman,Right,
,,,,,,,,,,,,,,,,,577,18,Woman,Right,0,64,0.15,1,0,-,180,1.0584804999998596,['y'],0.703126099999281,1.202,498.4629577000005,,,,,577,18,Woman,Right,
,,,,,,,,,,,,,,,,,577,18,Woman,Right,0,48,0.15,1,0,-,180,1.8109214000005522,['y'],0.9186789000004865,1.33,503.88008230000014,,,,,577,18,Woman,Right,
,,,,,,,,,,,,,,,,,577,18,Woman,Right,0,33,0.4,2,0,180,180,0.6715125999999145,['y'],3.063342499999635,1.734,511.6794842999998,,,,,577,18,Woman,Right,
,,,,,,,,,,,,,,,,,577,18,Woman,Right,0,74,0.15,1,180,-,0,2.7519553000001906,['y'],2.0706214000001637,1.05,519.7961611000001,,,,,577,18,Woman,Right,
,,,,,,,,,,,,,,,,,577,18,Woman,Right,0,13,0.4,2,0,180,180,0.6084225000004153,['y'],1.4230575000001409,1.952,526.4961475,,,,,577,18,Woman,Right,
,,,,,,,,,,,,,,,,,577,18,Woman,Right,0,72,0.15,1,0,-,180,0.6905864999998812,['y'],0.8869426999999632,1.672,531.7627969000005,,,,,577,18,Woman,Right,
,,,,,,,,,,,,,,,,,577,18,Woman,Right,0,26,0.4,1,180,-,0,0.862907599999744,['y'],0.4866078999993988,1.658,536.5961175000002,,,,,577,18,Woman,Right,
,,,,,,,,,,,,,,,,,577,18,Woman,Right,0,4,1,1,0,-,0,0.6939119999997274,['n'],1.110412400000314,1.788,541.4462523000002,,,,,577,18,Woman,Right,
,,,,,,,,,,,,,,,,,577,18,Woman,Right,0,63,0.15,2,180,0,0,0.7515625999994882,['y'],0.6712524999993548,1.722,545.4460724999999,,,,,577,18,Woman,Right,
,,,,,,,,,,,,,,,,,577,18,Woman,Right,0,71,0.15,2,180,0,180,1.7626725000000079,['y'],1.7829234999999244,1.146,552.8796583000003,,,,,577,18,Woman,Right,
,,,,,,,,,,,,,,,,,577,18,Woman,Right,0,25,0.4,2,0,180,180,0.6386526999995112,['y'],0.8393417999996018,1.704,557.2628344000004,,,,,577,18,Woman,Right,
,,,,,,,,,,,,,,,,,577,18,Woman,Right,0,6,1,1,180,-,180,0.9113289000006262,['n'],0.8234049000002415,1.9060000000000001,562.2960352,,,,,577,18,Woman,Right,
,,,,,,,,,,,,,,,,,577,18,Woman,Right,0,15,0.4,2,180,0,0,0.48775279999972554,['y'],0.6866028000004007,1.8559999999999999,566.1962476999997,,,,,577,18,Woman,Right,
,,,,,,,,,,,,,,,,,577,18,Woman,Right,0,35,0.4,2,180,0,0,0.29587699999956385,['y'],2.4949420000002647,1.81,571.6625832999998,,,,,577,18,Woman,Right,
,,,,,,,,,,,,,,,,,577,18,Woman,Right,0,11,0.4,2,180,0,0,0.26478380000025936,['y'],4.454521199999363,1.988,578.8792117000003,,,,,577,18,Woman,Right,
,,,,,,,,,,,,,,,,,577,18,Woman,Right,0,46,0.15,1,180,-,0,0.9542802999994819,['y'],0.8148832999995648,1.976,583.3125473999999,,,,,577,18,Woman,Right,
,,,,,,,,,,,,,,,,,577,18,Woman,Right,0,65,0.15,2,0,180,180,0.5038097999995443,['y'],0.8070969000000332,1.998,587.4627490000003,,,,,577,18,Woman,Right,
,,,,,,,,,,,,,,,,,577,18,Woman,Right,0,51,0.15,2,180,0,0,1.0154394000001048,['n'],1.1354663000001892,1.672,592.2792187000005,,,,,577,18,Woman,Right,
,,,,,,,,,,,,,,,,,577,18,Woman,Right,0,3,1,2,180,0,0,2.1686727000005703,['y'],0.6626492000004873,1.8940000000000001,598.3624613000002,,,,,577,18,Woman,Right,
,,,,,,,,,,,,,,,,,577,18,Woman,Right,0,28,0.4,1,0,-,0,1.6543383999996877,['n'],1.1908287999995082,1.676,604.2623845999997,,,,,577,18,Woman,Right,
,,,,,,,,,,,,,,,,,577,18,Woman,Right,0,50,0.15,1,180,-,180,1.7346038999994562,['n'],1.390664999999899,1.324,610.5957061999998,,,,,577,18,Woman,Right,
,,,,,,,,,,,,,,,,,577,18,Woman,Right,0,9,0.4,2,0,180,180,1.025823500000115,['y'],0.6706546000004892,1.804,615.4289813000005,,,,,577,18,Woman,Right,
,,,,,,,,,,,,,,,,,577,18,Woman,Right,0,70,0.15,1,180,-,0,1.9614449000000604,['y'],0.47035200000027544,1.604,620.4290325000002,,,,,577,18,Woman,Right,
,,,,,,,,,,,,,,,,,577,18,Woman,Right,0,34,0.4,1,180,-,0,1.4003047000005608,['n'],3.7037288999999873,1.692,628.6789561000005,,,,,577,18,Woman,Right,
,,,,,,,,,,,,,,,,,577,18,Woman,Right,0,7,1,2,180,0,0,0.9856269000001703,['y'],0.5910174000000552,1.998,634.2289289,,,,,577,18,Woman,Right,
,,,,,,,,,,,,,,,,,577,18,Woman,Right,0,77,0.15,2,0,180,0,3.841855900000155,['n'],2.750809400000435,1.26,643.7788542999997,,,,,577,18,Woman,Right,
,,,,,,,,,,,,,,,,,577,18,Woman,Right,0,53,0.15,2,0,180,180,0.5651947000005748,['y'],0.6142528999998831,2.0,647.6788805000006,,,,,577,18,Woman,Right,
,,,,,,,,,,,,,,,,,577,18,Woman,Right,0,78,0.15,1,180,-,0,1.5913056999997934,['y'],0.4471843000001172,1.806,652.2788620000001,,,,,577,18,Woman,Right,
,,,,,,,,,,,,,,,,,577,18,Woman,Right,0,21,0.4,2,0,180,180,0.43659609999940585,['y'],1.4557016999997359,1.748,656.8788670000004,,,,,577,18,Woman,Right,
,,,,,,,,,,,,,,,,,577,18,Woman,Right,0,47,0.15,2,180,0,0,1.6160696000006283,['y'],1.8628931000002922,1.836,664.4287522000004,,,,,577,18,Woman,Right,
,,,,,,,,,,,,,,,,,577,18,Woman,Right,0,2,1,1,180,-,180,1.1267275000000154,['n'],0.5588501000001997,1.812,669.2620648000002,,,,,577,18,Woman,Right,
,,,,,,,,,,,,,,,,,577,18,Woman,Right,0,18,0.4,1,180,-,180,1.243447699999706,['y'],1.0942337000005864,1.1480000000000001,675.7787518000005,,,,,577,18,Woman,Right,
,,,,,,,,,,,,,,,,,577,18,Woman,Right,0,60,0.15,1,0,-,0,0.9508089999999356,['n'],0.6788199000002351,1.764,679.9955961000005,,,,,577,18,Woman,Right,
,,,,,,,,,,,,,,,,,577,18,Woman,Right,0,16,0.4,1,0,-,0,0.8503049000000829,['n'],0.7258927000002586,1.704,684.1953045,,,,,577,18,Woman,Right,
,,,,,,,,,,,,,,,,,577,18,Woman,Right,0,40,0.4,1,0,-,0,0.48329540000031557,['n'],0.8063520000005155,1.698,687.9287887,,,,,577,18,Woman,Right,
,,,,,,,,,,,,,,,,,577,18,Woman,Right,0,5,1,2,0,180,180,0.9270747000000483,['y'],0.7908628999994107,1.688,692.1120066000003,,,,,577,18,Woman,Right,
,,,,,,,,,,,,,,,,,577,18,Woman,Right,0,59,0.15,2,180,0,0,1.0832630999993853,['y'],0.6552178000001732,1.688,697.1119311000002,,,,,577,18,Woman,Right,
,,,,,,,,,,,,,,,,,577,18,Woman,Right,0,36,0.4,1,0,-,180,0.5120030999996743,['y'],1.2634350000007544,1.78,701.8452717999999,,,,,577,18,Woman,Right,
,,,,,,,,,,,,,,,,,577,18,Woman,Right,0,41,0.4,2,0,180,180,0.375412100000176,['y'],0.6070332999997845,1.798,705.5785483,,,,,577,18,Woman,Right,
,,,,,,,,,,,,,,,,,577,18,Woman,Right,0,20,0.4,1,0,-,0,0.5360308999997869,['n'],0.646838900000148,1.802,709.2287054999997,,,,,577,18,Woman,Right,
,,,,,,,,,,,,,,,,,577,18,Woman,Right,0,75,0.15,2,180,0,0,1.1701893999997992,['y'],0.9272519000005559,1.476,715.2293583000001,,,,,577,18,Woman,Right,
,,,,,,,,,,,,,,,,,577,18,Woman,Right,0,12,0.4,1,0,-,0,0.6439794999996593,['n'],0.5508733999995457,1.74,718.7953907000001,,,,,577,18,Woman,Right,
,,,,,,,,,,,,,,,,,577,18,Woman,Right,0,24,0.4,1,0,-,0,0.47291779999977734,['n'],0.6231874999994034,1.74,722.3618787000005,,,,,577,18,Woman,Right,
,,,,,,,,,,,,,,,,,577,18,Woman,Right,0,19,0.4,2,180,0,0,0.45884990000013204,['y'],0.6870722000003298,1.74,726.2118461999999,,,,,577,18,Woman,Right,
,,,,,,,,,,,,,,,,,577,18,Woman,Right,0,37,0.4,2,0,180,180,0.4061690999997154,['y'],1.1430172000000312,1.854,731.0951438000002,,,,,577,18,Woman,Right,
,,,,,,,,,,,,,,,,,577,18,Woman,Right,0,10,0.4,1,180,-,180,1.3355605000006108,['y'],0.6788151999999172,1.83,738.4959159999999,,,,,577,18,Woman,Right,
,,,,,,,,,,,,,,,,,577,18,Woman,Right,0,27,0.4,2,180,0,0,0.46142150000014226,['y'],2.7749613999994835,1.916,744.5117909999999,,,,,577,18,Woman,Right,
,,,,,,,,,,,,,,,,,577,18,Woman,Right,0,39,0.4,2,180,0,0,0.4862005000004501,['y'],0.7349556999997731,1.978,748.4783586000003,,,,,577,18,Woman,Right,
,,,,,,,,,,,,,,,,,577,18,Woman,Right,0,68,0.15,1,0,-,0,1.5144674000002851,['y'],0.9586577999998553,2.0,754.7116713000005,,,,,577,18,Woman,Right,
,,,,,,,,,,,,,,,,,577,18,Woman,Right,0,32,0.4,1,0,-,180,0.7836416000000099,['n'],5.007140900000195,1.81,763.6116149,,,,,577,18,Woman,Right,
,,,,,,,,,,,,,,,,,577,18,Woman,Right,0,31,0.4,2,180,0,0,0.5028312000004007,['y'],0.6633051999997406,1.84,767.7450699000001,,,,,577,18,Woman,Right,
,,,,,,,,,,,,,,,,,577,18,Woman,Right,1,67,0.15,2,180,0,0,0.6920221000000311,['y'],4.8470305000000735,1.8980000000000001,803.6614133000003,68.75,50.0,85.0,,577,18,Woman,Right,
,,,,,,,,,,,,,,,,,577,18,Woman,Right,1,77,0.15,2,0,180,180,3.0671120999995765,['y'],2.2775845999995,1.76,811.8946207999998,,,,,577,18,Woman,Right,
,,,,,,,,,,,,,,,,,577,18,Woman,Right,1,47,0.15,2,180,0,0,0.3589707000000999,['y'],1.3274051999997027,1.756,816.0448912000002,,,,,577,18,Woman,Right,
,,,,,,,,,,,,,,,,,577,18,Woman,Right,1,7,1,2,180,0,0,0.3059991000000082,['y'],0.9268535999999585,1.966,820.3281661999999,,,,,577,18,Woman,Right,
,,,,,,,,,,,,,,,,,577,18,Woman,Right,1,17,0.4,2,0,180,180,0.1949083999998038,['y'],0.8070451000003231,1.922,823.5784442000004,,,,,577,18,Woman,Right,
,,,,,,,,,,,,,,,,,577,18,Woman,Right,1,10,0.4,1,180,-,0,0.41135059999942314,['y'],1.3749564999998256,1.922,827.9281570000003,,,,,577,18,Woman,Right,
,,,,,,,,,,,,,,,,,577,18,Woman,Right,1,6,1,1,180,-,180,0.46379890000025625,['n'],0.4945233999997072,1.866,831.7445944000001,,,,,577,18,Woman,Right,
,,,,,,,,,,,,,,,,,577,18,Woman,Right,1,20,0.4,1,0,-,180,1.2048928000003798,['y'],0.4150418000008358,1.824,835.8778846000005,,,,,577,18,Woman,Right,
,,,,,,,,,,,,,,,,,577,18,Woman,Right,1,13,0.4,2,0,180,180,0.35870619999968767,['y'],0.5992064000001847,1.824,839.2612651,,,,,577,18,Woman,Right,
,,,,,,,,,,,,,,,,,577,18,Woman,Right,1,15,0.4,2,180,0,0,0.27864039999985835,['y'],0.9350189000006139,1.824,842.9122120000002,,,,,577,18,Woman,Right,
,,,,,,,,,,,,,,,,,577,18,Woman,Right,1,58,0.15,1,180,-,0,0.5292813999994905,['y'],0.9270067000006748,1.824,846.9111386000004,,,,,577,18,Woman,Right,
,,,,,,,,,,,,,,,,,577,18,Woman,Right,1,38,0.4,1,180,-,0,1.7393794999998136,['y'],0.6469031999995423,1.824,851.7113829,,,,,577,18,Woman,Right,
,,,,,,,,,,,,,,,,,577,18,Woman,Right,1,12,0.4,1,0,-,0,0.3642072000002372,['n'],1.2068459000001894,1.824,856.0944833000003,,,,,577,18,Woman,Right,
,,,,,,,,,,,,,,,,,577,18,Woman,Right,1,44,0.15,1,0,-,180,1.0807377000000997,['y'],0.6068895999997039,1.824,860.144456,,,,,577,18,Woman,Right,
,,,,,,,,,,,,,,,,,577,18,Woman,Right,1,55,0.15,2,180,0,180,1.0503182000002198,['y'],0.5203209000001152,1.824,864.1116207000005,,,,,577,18,Woman,Right,
,,,,,,,,,,,,,,,,,577,18,Woman,Right,1,64,0.15,1,0,-,0,0.9261685000001307,['y'],0.40693869999995513,1.824,869.4110013,,,,,577,18,Woman,Right,
,,,,,,,,,,,,,,,,,577,18,Woman,Right,1,61,0.15,2,0,180,180,1.5325223999998343,['y'],0.6465101000003415,1.824,873.9109628000006,,,,,577,18,Woman,Right,
,,,,,,,,,,,,,,,,,577,18,Woman,Right,1,54,0.15,1,180,-,180,1.3749876000001677,['y'],0.5832744999997885,1.824,878.8779695000003,,,,,577,18,Woman,Right,
,,,,,,,,,,,,,,,,,577,18,Woman,Right,1,70,0.15,1,180,-,0,1.246825500000341,['y'],1.478968100000202,1.824,883.9776812999999,,,,,577,18,Woman,Right,
,,,,,,,,,,,,,,,,,577,18,Woman,Right,1,37,0.4,2,0,180,180,0.4239549000003535,['y'],0.774758099999417,1.824,888.1776263000002,,,,,577,18,Woman,Right,
,,,,,,,,,,,,,,,,,577,18,Woman,Right,1,41,0.4,2,0,180,180,0.495603200000005,['y'],0.46342939999976807,1.994,891.8109597000002,,,,,577,18,Woman,Right,
,,,,,,,,,,,,,,,,,577,18,Woman,Right,1,1,1,2,0,180,180,0.330716499999653,['y'],1.446952400000555,2.0,896.3442328000001,,,,,577,18,Woman,Right,
,,,,,,,,,,,,,,,,,577,18,Woman,Right,1,26,0.4,1,180,-,180,0.7336574000000837,['n'],1.0946561000000656,1.8860000000000001,900.6944448000004,,,,,577,18,Woman,Right,
,,,,,,,,,,,,,,,,,577,18,Woman,Right,1,57,0.15,2,0,180,180,0.3990055999993274,['y'],0.6069457999992665,1.8860000000000001,904.1277839000004,,,,,577,18,Woman,Right,
,,,,,,,,,,,,,,,,,577,18,Woman,Right,1,39,0.4,2,180,0,0,0.30771610000010696,['y'],0.5111779999997452,1.8860000000000001,907.4940961000002,,,,,577,18,Woman,Right,
,,,,,,,,,,,,,,,,,577,18,Woman,Right,1,50,0.15,1,180,-,0,0.8378073000003496,['n'],1.182878399999936,1.8860000000000001,911.8941468000003,,,,,577,18,Woman,Right,
,,,,,,,,,,,,,,,,,577,18,Woman,Right,1,21,0.4,2,0,180,180,1.381384700000126,['y'],0.5108123999998497,1.8860000000000001,916.2941245000002,,,,,577,18,Woman,Right,
,,,,,,,,,,,,,,,,,577,18,Woman,Right,1,52,0.15,1,0,-,0,0.24816929999997228,['n'],0.72660039999937,1.94,920.1941465,,,,,577,18,Woman,Right,
,,,,,,,,,,,,,,,,,577,18,Woman,Right,1,24,0.4,1,0,-,0,0.38352730000042357,['n'],1.4071387000003597,1.942,924.3940760000005,,,,,577,18,Woman,Right,
,,,,,,,,,,,,,,,,,577,18,Woman,Right,1,18,0.4,1,180,-,180,0.4233085999994728,['n'],0.7187267999997857,1.8860000000000001,927.9943238000005,,,,,577,18,Woman,Right,
,,,,,,,,,,,,,,,,,577,18,Woman,Right,1,9,0.4,2,0,180,180,0.3984792000001107,['y'],0.6548456999998962,1.874,931.3443434999999,,,,,577,18,Woman,Right,
,,,,,,,,,,,,,,,,,577,18,Woman,Right,1,56,0.15,1,0,-,0,1.1170000000001892,['y'],0.5428944999994201,1.874,935.3439408000004,,,,,577,18,Woman,Right,
,,,,,,,,,,,,,,,,,577,18,Woman,Right,1,0,1,1,0,-,0,0.34168469999985973,['n'],0.406994100000702,1.874,938.4273647,,,,,577,18,Woman,Right,
,,,,,,,,,,,,,,,,,577,18,Woman,Right,1,14,0.4,1,180,-,180,0.3057823000008284,['n'],1.3511469999994006,2.0,942.8273647000005,,,,,577,18,Woman,Right,
,,,,,,,,,,,,,,,,,577,18,Woman,Right,1,72,0.15,1,0,-,180,1.4285804999999527,['y'],0.6072956999996677,1.978,947.193937,,,,,577,18,Woman,Right,
,,,,,,,,,,,,,,,,,577,18,Woman,Right,1,48,0.15,1,0,-,180,0.44439990000046237,['y'],1.0710854999997537,1.912,951.5774894000006,,,,,577,18,Woman,Right,
,,,,,,,,,,,,,,,,,577,18,Woman,Right,1,19,0.4,2,180,0,0,0.3290828999997757,['y'],1.095463500000733,1.92,955.3440774999999,,,,,577,18,Woman,Right,
,,,,,,,,,,,,,,,,,577,18,Woman,Right,1,69,0.15,2,0,180,180,0.33647389999987354,['n'],0.8710836000000199,1.866,958.9274272000002,,,,,577,18,Woman,Right,
,,,,,,,,,,,,,,,,,577,18,Woman,Right,1,59,0.15,2,180,0,0,0.36786970000048314,['y'],0.6234907000007297,1.85,962.2604683999998,,,,,577,18,Woman,Right,
,,,,,,,,,,,,,,,,,577,18,Woman,Right,1,5,1,2,0,180,180,0.6024568000002546,['y'],1.0145369000001665,1.818,966.2939008000003,,,,,577,18,Woman,Right,
,,,,,,,,,,,,,,,,,577,18,Woman,Right,1,51,0.15,2,180,0,0,0.8315552000003663,['y'],1.7427365999992617,1.82,971.2608582000003,,,,,577,18,Woman,Right,
,,,,,,,,,,,,,,,,,577,18,Woman,Right,1,35,0.4,2,180,0,0,0.26677460000064457,['y'],0.5428380000003017,2.0,974.8606927999999,,,,,577,18,Woman,Right,
,,,,,,,,,,,,,,,,,577,18,Woman,Right,1,25,0.4,2,0,180,180,0.37232399999993504,['y'],0.5905306000004202,1.992,978.9275005,,,,,577,18,Woman,Right,
,,,,,,,,,,,,,,,,,577,18,Woman,Right,1,68,0.15,1,0,-,0,0.737893399999848,['n'],0.9275495000001683,1.912,983.1271488000002,,,,,577,18,Woman,Right,
,,,,,,,,,,,,,,,,,577,18,Woman,Right,1,36,0.4,1,0,-,0,0.320756999999503,['n'],0.839407200000096,1.888,986.6104377000001,,,,,577,18,Woman,Right,
,,,,,,,,,,,,,,,,,577,18,Woman,Right,1,23,0.4,2,180,0,0,0.3168660000001182,['y'],0.5495231999993848,1.8559999999999999,989.8939572999998,,,,,577,18,Woman,Right,
,,,,,,,,,,,,,,,,,577,18,Woman,Right,1,27,0.4,2,180,0,0,0.2573456999998598,['y'],0.5034900000000562,1.8599999999999999,992.8604323999998,,,,,577,18,Woman,Right,
,,,,,,,,,,,,,,,,,577,18,Woman,Right,1,62,0.15,1,180,-,180,1.2109873999997944,['n'],0.6786640999998781,1.8559999999999999,997.0605694000005,,,,,577,18,Woman,Right,
,,,,,,,,,,,,,,,,,577,18,Woman,Right,1,29,0.4,2,0,180,180,0.3092034999999669,['y'],0.4305888999997478,1.822,1000.1269963000004,,,,,577,18,Woman,Right,
,,,,,,,,,,,,,,,,,577,18,Woman,Right,1,31,0.4,2,180,0,0,0.7153988999998546,['y'],0.9428642000002583,1.988,1004.7603320999997,,,,,577,18,Woman,Right,
,,,,,,,,,,,,,,,,,577,18,Woman,Right,1,73,0.15,2,0,180,180,0.29622829999971145,['y'],0.4395489999997153,1.978,1007.7775326000001,,,,,577,18,Woman,Right,
,,,,,,,,,,,,,,,,,577,18,Woman,Right,1,32,0.4,1,0,-,0,1.2047370000000228,['y'],0.40666849999979604,1.984,1011.7102218999999,,,,,577,18,Woman,Right,
,,,,,,,,,,,,,,,,,577,18,Woman,Right,1,71,0.15,2,180,0,0,0.7910049000001891,['y'],0.43877579999934824,1.982,1015.2272025000002,,,,,577,18,Woman,Right,
,,,,,,,,,,,,,,,,,577,18,Woman,Right,1,66,0.15,1,180,-,0,0.8108770000008008,['n'],1.2072746000003463,1.924,1019.4770165999998,,,,,577,18,Woman,Right,
,,,,,,,,,,,,,,,,,577,18,Woman,Right,1,33,0.4,2,0,180,180,1.32146130000001,['y'],0.8389475000003586,2.0,1025.0769188000004,,,,,577,18,Woman,Right,
,,,,,,,,,,,,,,,,,577,18,Woman,Right,1,28,0.4,1,0,-,0,1.2316538000004584,['n'],0.5586080000002767,1.95,1029.3936404000005,,,,,577,18,Woman,Right,
,,,,,,,,,,,,,,,,,577,18,Woman,Right,1,8,0.4,1,0,-,0,1.7319868000004135,['n'],0.35842129999946337,1.988,1036.3768491,,,,,577,18,Woman,Right,
,,,,,,,,,,,,,,,,,577,18,Woman,Right,1,4,1,1,0,-,0,0.3090119999997114,['n'],2.0470497000005707,1.984,1041.2434574999997,,,,,577,18,Woman,Right,
,,,,,,,,,,,,,,,,,577,18,Woman,Right,1,11,0.4,2,180,0,0,0.9838270999998713,['y'],0.3818271000000095,1.946,1044.8933569,,,,,577,18,Woman,Right,
,,,,,,,,,,,,,,,,,577,18,Woman,Right,1,16,0.4,1,0,-,0,0.30972529999962717,['n'],0.4072685000001002,1.944,1048.0768753000002,,,,,577,18,Woman,Right,
,,,,,,,,,,,,,,,,,577,18,Woman,Right,1,63,0.15,2,180,0,0,0.8006651999994574,['y'],0.3913457999997263,1.944,1052.1433828999998,,,,,577,18,Woman,Right,
,,,,,,,,,,,,,,,,,577,18,Woman,Right,1,40,0.4,1,0,-,180,1.0277303999992,['y'],1.1668992000004437,1.994,1057.4600794999997,,,,,577,18,Woman,Right,
,,,,,,,,,,,,,,,,,577,18,Woman,Right,1,34,0.4,1,180,-,0,1.058014700000058,['y'],0.6386216000000786,1.862,1061.5433695000002,,,,,577,18,Woman,Right,
,,,,,,,,,,,,,,,,,577,18,Woman,Right,1,2,1,1,180,-,180,0.7560632000004261,['n'],0.5829080999992584,1.8719999999999999,1065.3766266000002,,,,,577,18,Woman,Right,
,,,,,,,,,,,,,,,,,577,18,Woman,Right,1,76,0.15,1,0,-,0,1.251649499999985,['y'],1.478601400000116,1.8719999999999999,1070.5765899999997,,,,,577,18,Woman,Right,
,,,,,,,,,,,,,,,,,577,18,Woman,Right,1,46,0.15,1,180,-,0,1.4532045000005382,['n'],1.9429754000002504,1.772,1076.5442093000001,,,,,577,18,Woman,Right,
,,,,,,,,,,,,,,,,,577,18,Woman,Right,1,43,0.4,2,180,0,0,0.5211472999999387,['y'],0.5189227999999275,1.956,1080.3766004999998,,,,,577,18,Woman,Right,
,,,,,,,,,,,,,,,,,577,18,Woman,Right,1,60,0.15,1,0,-,0,0.3761062999992646,['n'],3.006846299999779,1.8860000000000001,1086.1932650999997,,,,,577,18,Woman,Right,
,,,,,,,,,,,,,,,,,577,18,Woman,Right,1,49,0.15,2,0,180,180,0.9932077000003119,['y'],0.7911168000000544,1.866,1090.2932256000004,,,,,577,18,Woman,Right,
,,,,,,,,,,,,,,,,,577,18,Woman,Right,1,22,0.4,1,180,-,0,0.3860774999993737,['y'],0.47911150000072666,1.8719999999999999,1093.6599046000001,,,,,577,18,Woman,Right,
,,,,,,,,,,,,,,,,,577,18,Woman,Right,1,65,0.15,2,0,180,0,0.35529789999964123,['n'],0.8868808999995963,1.8719999999999999,1097.1265381000003,,,,,577,18,Woman,Right,
,,,,,,,,,,,,,,,,,577,18,Woman,Right,1,45,0.15,2,0,180,180,0.6658524000004036,['y'],0.4868907999998555,1.8719999999999999,1100.6265389,,,,,577,18,Woman,Right,
,,,,,,,,,,,,,,,,,577,18,Woman,Right,1,78,0.15,1,180,-,0,0.5833677999999054,['y'],0.3785177999998268,1.8719999999999999,1104.0098927,,,,,577,18,Woman,Right,
,,,,,,,,,,,,,,,,,577,18,Woman,Right,1,75,0.15,2,180,0,0,0.21383890000015526,['n'],0.719253000000208,1.8719999999999999,1107.4432704,,,,,577,18,Woman,Right,
,,,,,,,,,,,,,,,,,577,18,Woman,Right,1,53,0.15,2,0,180,180,0.41671169999972335,['y'],0.4337305999997625,1.8719999999999999,1110.6598187999998,,,,,577,18,Woman,Right,
,,,,,,,,,,,,,,,,,577,18,Woman,Right,1,79,0.15,2,180,0,0,0.4375779000001785,['n'],0.5826778000000559,1.8719999999999999,1113.8766278000003,,,,,577,18,Woman,Right,
,,,,,,,,,,,,,,,,,577,18,Woman,Right,1,3,1,2,180,0,0,0.5705078999999387,['y'],0.4549393000006603,1.8719999999999999,1117.1433054999998,,,,,577,18,Woman,Right,
,,,,,,,,,,,,,,,,,577,18,Woman,Right,1,30,0.4,1,180,-,0,0.4418650000006892,['y'],0.3584746000005907,1.8719999999999999,1120.0766296000002,,,,,577,18,Woman,Right,
,,,,,,,,,,,,,,,,,577,18,Woman,Right,1,42,0.4,1,180,-,180,0.5453350999996474,['y'],0.39890209999975923,1.8719999999999999,1123.1763960999997,,,,,577,18,Woman,Right,
,,,,,,,,,,,,,,,,,577,18,Woman,Right,1,74,0.15,1,180,-,0,0.4366944000003059,['n'],0.3030751999995118,1.8719999999999999,1126.2931017,,,,,577,18,Woman,Right,
,,,,,,,,,,,,,,,,,577,18,Woman,Right,2,28,0.4,1,0,-,0,0.19621850000021368,['y'],0.686672599999838,1.8900000000000001,1136.7437701,76.25,52.5,90.0,,577,18,Woman,Right,
,,,,,,,,,,,,,,,,,577,18,Woman,Right,2,67,0.15,2,180,0,0,1.6989178000003449,['y'],0.5027833999993163,1.888,1140.9429859000002,,,,,577,18,Woman,Right,
,,,,,,,,,,,,,,,,,577,18,Woman,Right,2,22,0.4,1,180,-,180,0.5979207000000315,['y'],0.5348713000003045,1.888,1144.3765977000003,,,,,577,18,Woman,Right,
,,,,,,,,,,,,,,,,,577,18,Woman,Right,2,78,0.15,1,180,-,0,1.468792100000428,['y'],0.8549560999999812,1.888,1148.9599887000004,,,,,577,18,Woman,Right,
,,,,,,,,,,,,,,,,,577,18,Woman,Right,2,51,0.15,2,180,0,0,1.776719999999841,['y'],0.5268739999992249,1.888,1153.3596044000005,,,,,577,18,Woman,Right,
,,,,,,,,,,,,,,,,,577,18,Woman,Right,2,10,0.4,1,180,-,0,0.8235521999995399,['y'],0.5029102999997122,1.888,1156.8095469,,,,,577,18,Woman,Right,
,,,,,,,,,,,,,,,,,577,18,Woman,Right,2,65,0.15,2,0,180,180,1.0049065000002884,['y'],0.42337529999986145,1.888,1160.4594777000002,,,,,577,18,Woman,Right,
,,,,,,,,,,,,,,,,,577,18,Woman,Right,2,31,0.4,2,180,0,0,0.5335758999999598,['y'],0.2997112000002744,1.888,1164.0764133000002,,,,,577,18,Woman,Right,
,,,,,,,,,,,,,,,,,577,18,Woman,Right,2,5,1,2,0,180,180,0.41802610000013374,['y'],0.31892040000002453,2.0,1167.7263703999997,,,,,577,18,Woman,Right,
,,,,,,,,,,,,,,,,,577,18,Woman,Right,2,45,0.15,2,0,180,180,0.571276200000284,['y'],0.3826037000008,1.968,1171.1761711999998,,,,,577,18,Woman,Right,
,,,,,,,,,,,,,,,,,577,18,Woman,Right,2,63,0.15,2,180,0,0,0.6248631999997087,['n'],1.0467800999995234,1.87,1175.2594672000005,,,,,577,18,Woman,Right,
,,,,,,,,,,,,,,,,,577,18,Woman,Right,2,47,0.15,2,180,0,0,0.548719099999289,['y'],0.3349195000000691,1.87,1178.3429771,,,,,577,18,Woman,Right,
,,,,,,,,,,,,,,,,,577,18,Woman,Right,2,21,0.4,2,0,180,180,0.4581508000001122,['y'],0.3511631999999736,1.87,1181.2761627999998,,,,,577,18,Woman,Right,
,,,,,,,,,,,,,,,,,577,18,Woman,Right,2,42,0.4,1,180,-,0,0.7083271999999852,['y'],0.9107880000001387,1.87,1185.0427188000003,,,,,577,18,Woman,Right,
,,,,,,,,,,,,,,,,,577,18,Woman,Right,2,16,0.4,1,0,-,180,1.045703699999649,['y'],0.26281939999989845,1.87,1188.4593413000002,,,,,577,18,Woman,Right,
,,,,,,,,,,,,,,,,,577,18,Woman,Right,2,50,0.15,1,180,-,0,0.7096271000000343,['y'],0.26318689999970957,1.87,1191.5761272,,,,,577,18,Woman,Right,
,,,,,,,,,,,,,,,,,577,18,Woman,Right,2,34,0.4,1,180,-,0,0.43440499999996973,['y'],0.29477329999917856,1.87,1194.3929702000005,,,,,577,18,Woman,Right,
,,,,,,,,,,,,,,,,,577,18,Woman,Right,2,79,0.15,2,180,0,0,0.49500889999944775,['y'],0.2628714000002219,1.87,1197.2593251999997,,,,,577,18,Woman,Right,
,,,,,,,,,,,,,,,,,577,18,Woman,Right,2,7,1,2,180,0,0,0.30239700000038283,['y'],0.3192501000003176,1.87,1199.9595086999998,,,,,577,18,Woman,Right,
,,,,,,,,,,,,,,,,,577,18,Woman,Right,2,36,0.4,1,0,-,0,0.6237639999999374,['y'],0.27889409999988857,1.87,1202.9425754999993,,,,,577,18,Woman,Right,
,,,,,,,,,,,,,,,,,577,18,Woman,Right,2,0,1,1,0,-,0,0.6977449000005436,['n'],0.28691989999970247,1.87,1206.0762125,,,,,577,18,Woman,Right,
,,,,,,,,,,,,,,,,,577,18,Woman,Right,2,43,0.4,2,180,0,0,0.48181360000126006,['y'],0.3512211000015668,1.87,1209.1429564999999,,,,,577,18,Woman,Right,
,,,,,,,,,,,,,,,,,577,18,Woman,Right,2,54,0.15,1,180,-,180,0.6190857000001415,['y'],0.4869029000001319,1.87,1213.6425080000008,,,,,577,18,Woman,Right,
,,,,,,,,,,,,,,,,,577,18,Woman,Right,2,48,0.15,1,0,-,0,0.36707969999952184,['y'],0.30310080000163,1.87,1216.5426478999998,,,,,577,18,Woman,Right,
,,,,,,,,,,,,,,,,,577,18,Woman,Right,2,72,0.15,1,0,-,0,0.46420130000115023,['y'],0.3188061999990168,1.87,1219.4758894999995,,,,,577,18,Woman,Right,
,,,,,,,,,,,,,,,,,577,18,Woman,Right,2,15,0.4,2,180,0,0,0.15650410000125703,['y'],0.3108467000001838,1.87,1222.7591740999997,,,,,577,18,Woman,Right,
,,,,,,,,,,,,,,,,,577,18,Woman,Right,2,44,0.15,1,0,-,0,0.6791278000000602,['y'],0.2548544999990554,1.87,1225.8425692,,,,,577,18,Woman,Right,
,,,,,,,,,,,,,,,,,577,18,Woman,Right,2,19,0.4,2,180,0,0,0.1724938999996084,['y'],0.2948163000000932,1.87,1228.8759831000007,,,,,577,18,Woman,Right,
,,,,,,,,,,,,,,,,,577,18,Woman,Right,2,64,0.15,1,0,-,0,1.1165445999995427,['y'],0.31968849999975646,1.87,1232.5426917000004,,,,,577,18,Woman,Right,
,,,,,,,,,,,,,,,,,577,18,Woman,Right,2,41,0.4,2,0,180,180,0.3225337000003492,['y'],0.31085259999963455,1.87,1235.292453600001,,,,,577,18,Woman,Right,
,,,,,,,,,,,,,,,,,577,18,Woman,Right,2,13,0.4,2,0,180,180,0.45101830000021437,['y'],0.27892439999959606,1.87,1238.3091222000003,,,,,577,18,Woman,Right,
,,,,,,,,,,,,,,,,,577,18,Woman,Right,2,68,0.15,1,0,-,0,0.3771931000010227,['y'],0.30320149999897694,1.87,1241.1925561999997,,,,,577,18,Woman,Right,
,,,,,,,,,,,,,,,,,577,18,Woman,Right,2,12,0.4,1,0,-,180,0.33722519999901124,['y'],0.2469197999998869,1.87,1243.8926205000007,,,,,577,18,Woman,Right,
,,,,,,,,,,,,,,,,,577,18,Woman,Right,2,46,0.15,1,180,-,0,0.6267040000002453,['y'],0.3425870999999461,1.87,1247.0757577999993,,,,,577,18,Woman,Right,
,,,,,,,,,,,,,,,,,577,18,Woman,Right,2,30,0.4,1,180,-,0,0.6224423000003299,['y'],0.2868897999996989,1.87,1250.0924228999993,,,,,577,18,Woman,Right,
,,,,,,,,,,,,,,,,,577,18,Woman,Right,2,55,0.15,2,180,0,180,1.8673443000006955,['y'],0.24673900000016147,1.87,1254.3436655999994,,,,,577,18,Woman,Right,
,,,,,,,,,,,,,,,,,577,18,Woman,Right,2,74,0.15,1,180,-,0,0.6572651000005862,['y'],0.2632223000000522,1.87,1257.3591512000003,,,,,577,18,Woman,Right,
,,,,,,,,,,,,,,,,,577,18,Woman,Right,2,25,0.4,2,0,180,180,1.7770117000000027,['y'],0.2868718000008812,1.87,1261.5089602000007,,,,,577,18,Woman,Right,
,,,,,,,,,,,,,,,,,577,18,Woman,Right,2,58,0.15,1,180,-,180,2.0840975000010076,['y'],0.24878829999943264,1.87,1265.8422862999996,,,,,577,18,Woman,Right,
,,,,,,,,,,,,,,,,,577,18,Woman,Right,2,27,0.4,2,180,0,0,0.9912134000005608,['y'],0.302886599998601,1.87,1269.1922114999998,,,,,577,18,Woman,Right,
,,,,,,,,,,,,,,,,,577,18,Woman,Right,2,1,1,2,0,180,180,0.842081099999632,['y'],0.24735860000146204,1.87,1272.3423526999995,,,,,577,18,Woman,Right,
,,,,,,,,,,,,,,,,,577,18,Woman,Right,2,24,0.4,1,0,-,180,1.1633858999994118,['y'],0.37488680000024033,1.87,1275.9755518000002,,,,,577,18,Woman,Right,
,,,,,,,,,,,,,,,,,577,18,Woman,Right,2,59,0.15,2,180,0,0,2.0654104000004736,['y'],1.046792600000117,1.702,1282.1922589000005,,,,,577,18,Woman,Right,
,,,,,,,,,,,,,,,,,577,18,Woman,Right,2,75,0.15,2,180,0,180,1.0720748000003368,['y'],0.2714728999999352,1.822,1285.5755308000007,,,,,577,18,Woman,Right,
,,,,,,,,,,,,,,,,,577,18,Woman,Right,2,37,0.4,2,0,180,180,0.7774116000000504,['y'],0.4472667999998521,1.774,1289.0590665,,,,,577,18,Woman,Right,
,,,,,,,,,,,,,,,,,577,18,Woman,Right,2,11,0.4,2,180,0,0,0.7835381000004418,['y'],0.7330853000003117,1.854,1292.9755626000006,,,,,577,18,Woman,Right,
,,,,,,,,,,,,,,,,,577,18,Woman,Right,2,6,1,1,180,-,0,0.6515902000010101,['y'],0.2627854999991541,1.826,1296.1264692000004,,,,,577,18,Woman,Right,
,,,,,,,,,,,,,,,,,577,18,Woman,Right,2,26,0.4,1,180,-,180,1.628159300000334,['y'],0.21481750000020838,1.824,1299.9588215999993,,,,,577,18,Woman,Right,
,,,,,,,,,,,,,,,,,577,18,Woman,Right,2,70,0.15,1,180,-,0,0.8022376999997505,['y'],0.22323490000053425,1.726,1303.3256428000004,,,,,577,18,Woman,Right,
,,,,,,,,,,,,,,,,,577,18,Woman,Right,2,71,0.15,2,180,0,0,0.5884705999997095,['y'],0.21492330000000948,1.65,1306.4756125999993,,,,,577,18,Woman,Right,
,,,,,,,,,,,,,,,,,577,18,Woman,Right,2,73,0.15,2,0,180,180,0.6081014999999752,['y'],2.89560370000072,1.6600000000000001,1311.975362700001,,,,,577,18,Woman,Right,
,,,,,,,,,,,,,,,,,577,18,Woman,Right,2,60,0.15,1,0,-,0,0.8037481000010303,['y'],2.278654199999437,1.798,1317.2587924,,,,,577,18,Woman,Right,
,,,,,,,,,,,,,,,,,577,18,Woman,Right,2,69,0.15,2,0,180,0,0.7522257999989961,['y'],0.3828837000000931,1.798,1320.4587061000002,,,,,577,18,Woman,Right,
,,,,,,,,,,,,,,,,,577,18,Woman,Right,2,53,0.15,2,0,180,0,0.5274934000008216,['y'],0.6222450000004756,1.798,1323.8755476000006,,,,,577,18,Woman,Right,
,,,,,,,,,,,,,,,,,577,18,Woman,Right,2,62,0.15,1,180,-,0,0.3735188000009657,['y'],0.9588319999984378,1.794,1327.6253453000008,,,,,577,18,Woman,Right,
,,,,,,,,,,,,,,,,,577,18,Woman,Right,2,20,0.4,1,0,-,0,0.46684110000023793,['y'],0.5028550000006362,1.794,1330.7423314999996,,,,,577,18,Woman,Right,
,,,,,,,,,,,,,,,,,577,18,Woman,Right,2,38,0.4,1,180,-,0,0.6968677000004391,['y'],0.2634630000011384,1.794,1333.791885300001,,,,,577,18,Woman,Right,
,,,,,,,,,,,,,,,,,577,18,Woman,Right,2,39,0.4,2,180,0,0,1.455714599998828,['y'],0.4792192000004434,1.74,1338.0086463999996,,,,,577,18,Woman,Right,
,,,,,,,,,,,,,,,,,577,18,Woman,Right,2,29,0.4,2,0,180,180,0.6283763000010367,['y'],0.2548416999998153,1.74,1341.5086295,,,,,577,18,Woman,Right,
,,,,,,,,,,,,,,,,,577,18,Woman,Right,2,56,0.15,1,0,-,0,0.7346035999999003,['y'],0.6559710999990784,1.748,1345.4586354999992,,,,,577,18,Woman,Right,
,,,,,,,,,,,,,,,,,577,18,Woman,Right,2,17,0.4,2,0,180,180,1.2323326000005181,['y'],0.2552397999988898,1.93,1349.0752976000003,,,,,577,18,Woman,Right,
,,,,,,,,,,,,,,,,,577,18,Woman,Right,2,3,1,2,180,0,0,1.359544900000401,['y'],1.022957099999985,1.916,1353.7251453999997,,,,,577,18,Woman,Right,
,,,,,,,,,,,,,,,,,577,18,Woman,Right,2,8,0.4,1,0,-,180,0.7942929999990156,['y'],0.663310799998726,1.956,1357.9419202000008,,,,,577,18,Woman,Right,
,,,,,,,,,,,,,,,,,577,18,Woman,Right,2,23,0.4,2,180,0,0,0.4696760999995604,['y'],0.3507666999994399,1.762,1360.9420477999993,,,,,577,18,Woman,Right,
,,,,,,,,,,,,,,,,,577,18,Woman,Right,2,49,0.15,2,0,180,180,0.7687955000001239,['y'],0.29454029999942577,1.946,1364.258382600001,,,,,577,18,Woman,Right,
,,,,,,,,,,,,,,,,,577,18,Woman,Right,2,9,0.4,2,0,180,180,2.613925300000119,['y'],0.334739100000661,1.892,1369.3584069000008,,,,,577,18,Woman,Right,
,,,,,,,,,,,,,,,,,577,18,Woman,Right,2,35,0.4,2,180,0,180,0.3535643999985041,['y'],2.423031500000434,1.932,1374.4251251000005,,,,,577,18,Woman,Right,
,,,,,,,,,,,,,,,,,577,18,Woman,Right,2,4,1,1,0,-,180,1.7862074000004213,['y'],0.3667189999996481,1.858,1378.8250948999994,,,,,577,18,Woman,Right,
,,,,,,,,,,,,,,,,,577,18,Woman,Right,2,66,0.15,1,180,-,0,0.3966954000006808,['y'],0.2796245000008639,1.87,1381.6919945000009,,,,,577,18,Woman,Right,
,,,,,,,,,,,,,,,,,577,18,Woman,Right,2,52,0.15,1,0,-,0,0.41917219999959343,['y'],0.27109700000073644,1.87,1384.5584911999995,,,,,577,18,Woman,Right,
,,,,,,,,,,,,,,,,,577,18,Woman,Right,2,77,0.15,2,0,180,0,2.2819498000008025,['y'],0.3186243000000104,1.84,1390.1752496999998,,,,,577,18,Woman,Right,
,,,,,,,,,,,,,,,,,577,18,Woman,Right,2,2,1,1,180,-,0,0.7837197999997443,['y'],0.2468408000004274,1.91,1393.5424549,,,,,577,18,Woman,Right,
,,,,,,,,,,,,,,,,,577,18,Woman,Right,2,18,0.4,1,180,-,0,0.8029043999995338,['y'],0.2305952000006073,1.908,1397.1416181999994,,,,,577,18,Woman,Right,
,,,,,,,,,,,,,,,,,577,18,Woman,Right,2,76,0.15,1,0,-,180,0.6830699999991339,['y'],0.24744420000024547,1.8900000000000001,1400.4582233,,,,,577,18,Woman,Right,
,,,,,,,,,,,,,,,,,577,18,Woman,Right,2,57,0.15,2,0,180,0,0.62517520000074,['y'],0.2945782999995572,1.854,1404.5084979999992,,,,,577,18,Woman,Right,
,,,,,,,,,,,,,,,,,577,18,Woman,Right,2,33,0.4,2,0,180,180,0.4685042000000976,['y'],0.28723360000003595,1.854,1407.4918159999997,,,,,577,18,Woman,Right,
,,,,,,,,,,,,,,,,,577,18,Woman,Right,2,14,0.4,1,180,-,0,0.397576499999559,['y'],0.3034575000001496,1.854,1410.6582118000006,,,,,577,18,Woman,Right,
,,,,,,,,,,,,,,,,,577,18,Woman,Right,2,32,0.4,1,0,-,0,1.4378952999995818,['n'],0.31152020000081393,1.854,1414.6582233000008,,,,,577,18,Woman,Right,
,,,,,,,,,,,,,,,,,577,18,Woman,Right,2,61,0.15,2,0,180,0,0.8933346999983769,['n'],0.8949283999991167,1.854,1418.8081865000004,,,,,577,18,Woman,Right,
,,,,,,,,,,,,,,,,,577,18,Woman,Right,2,40,0.4,1,0,-,0,0.28656319999936386,['n'],0.27116449999994074,1.854,1422.6081981000007,,,,,577,18,Woman,Right,
,,,,,,,,,,,,,,,,,577,18,Woman,Right,3,41,0.4,2,0,180,180,0.7999479999998584,['y'],1.1505717000000004,1.85,1438.2248746000005,62.5,7.5,95.0,,577,18,Woman,Right,
,,,,,,,,,,,,,,,,,577,18,Woman,Right,3,49,0.15,2,0,180,0,0.6633910000000469,['n'],0.41489000000001397,1.846,1441.7918381,,,,,577,18,Woman,Right,
,,,,,,,,,,,,,,,,,577,18,Woman,Right,3,71,0.15,2,180,0,0,0.5099601999991137,['n'],0.9343733999994583,1.846,1445.9081413000004,,,,,577,18,Woman,Right,
,,,,,,,,,,,,,,,,,577,18,Woman,Right,3,0,1,1,0,-,0,0.9001155999994808,['n'],0.38320589999966614,1.846,1449.5085357999997,,,,,577,18,Woman,Right,
,,,,,,,,,,,,,,,,,577,18,Woman,Right,3,31,0.4,2,180,0,0,1.3377561000015703,['y'],0.3586998000009771,1.846,1453.5748819,,,,,577,18,Woman,Right,
,,,,,,,,,,,,,,,,,577,18,Woman,Right,3,42,0.4,1,180,-,180,0.5192985000012413,['n'],1.0946842000012111,1.846,1457.4913195000008,,,,,577,18,Woman,Right,
,,,,,,,,,,,,,,,,,577,18,Woman,Right,3,2,1,1,180,-,180,0.31421290000071167,['n'],0.4547065999995539,1.846,1460.6415706000007,,,,,577,18,Woman,Right,
,,,,,,,,,,,,,,,,,577,18,Woman,Right,3,6,1,1,180,-,180,0.29989759999989474,['n'],0.34578719999990426,1.846,1463.74136,,,,,577,18,Woman,Right,
,,,,,,,,,,,,,,,,,577,18,Woman,Right,3,37,0.4,2,0,180,180,0.8013656000002811,['y'],0.5264415999990888,1.846,1467.4418592000002,,,,,577,18,Woman,Right,
,,,,,,,,,,,,,,,,,577,18,Woman,Right,3,72,0.15,1,0,-,0,0.507110600001397,['n'],0.35089909999987867,1.846,1470.6745996999998,,,,,577,18,Woman,Right,
,,,,,,,,,,,,,,,,,577,18,Woman,Right,3,45,0.15,2,0,180,0,1.1927467999994406,['n'],0.31888160000016796,1.846,1474.9245585000008,,,,,577,18,Woman,Right,
,,,,,,,,,,,,,,,,,577,18,Woman,Right,3,79,0.15,2,180,0,0,0.7175149000013334,['y'],0.4949149000003672,1.846,1478.4914007000007,,,,,577,18,Woman,Right,
,,,,,,,,,,,,,,,,,577,18,Woman,Right,3,59,0.15,2,180,0,0,0.4670170999997936,['y'],0.41492639999887615,1.846,1481.6244516999996,,,,,577,18,Woman,Right,
,,,,,,,,,,,,,,,,,577,18,Woman,Right,3,58,0.15,1,180,-,180,0.40299009999944246,['n'],0.6630275000006804,1.846,1485.0911238000008,,,,,577,18,Woman,Right,
,,,,,,,,,,,,,,,,,577,18,Woman,Right,3,60,0.15,1,0,-,0,0.20278760000110196,['n'],0.39890469999954803,1.846,1488.0078510999992,,,,,577,18,Woman,Right,
,,,,,,,,,,,,,,,,,577,18,Woman,Right,3,54,0.15,1,180,-,0,0.30901430000085384,['n'],0.29479189999983646,1.846,1491.0912207000001,,,,,577,18,Woman,Right,
,,,,,,,,,,,,,,,,,577,18,Woman,Right,3,62,0.15,1,180,-,180,0.43502280000029714,['n'],0.47141459999875224,1.846,1494.2247389999993,,,,,577,18,Woman,Right,
,,,,,,,,,,,,,,,,,577,18,Woman,Right,3,11,0.4,2,180,0,0,1.3010014000010415,['y'],0.3828553000003012,1.846,1498.5244445000008,,,,,577,18,Woman,Right,
,,,,,,,,,,,,,,,,,577,18,Woman,Right,3,36,0.4,1,0,-,0,0.851611199999752,['n'],0.44688459999997576,1.846,1502.0077674000004,,,,,577,18,Woman,Right,
,,,,,,,,,,,,,,,,,577,18,Woman,Right,3,30,0.4,1,180,-,180,0.3209770000012213,['n'],0.29545239999970363,1.846,1505.5910674000006,,,,,577,18,Woman,Right,
,,,,,,,,,,,,,,,,,577,18,Woman,Right,3,8,0.4,1,0,-,0,0.22563320000153908,['n'],0.3106166999987181,1.846,1508.307919500001,,,,,577,18,Woman,Right,
,,,,,,,,,,,,,,,,,577,18,Woman,Right,3,9,0.4,2,0,180,180,0.2671161000016582,['n'],0.32676659999924595,1.846,1511.5747702999997,,,,,577,18,Woman,Right,
,,,,,,,,,,,,,,,,,577,18,Woman,Right,3,12,0.4,1,0,-,0,0.23354719999952067,['n'],0.32693709999875864,1.846,1514.3410664000003,,,,,577,18,Woman,Right,
,,,,,,,,,,,,,,,,,577,18,Woman,Right,3,39,0.4,2,180,0,0,1.1609836999996332,['n'],0.27899600000091596,1.846,1517.9578691000006,,,,,577,18,Woman,Right,
,,,,,,,,,,,,,,,,,577,18,Woman,Right,3,57,0.15,2,0,180,0,0.28983250000055705,['n'],0.26332840000031865,1.846,1520.6577335000002,,,,,577,18,Woman,Right,
,,,,,,,,,,,,,,,,,577,18,Woman,Right,3,68,0.15,1,0,-,0,1.933230900000126,['y'],0.7599952000000485,1.846,1525.574321,,,,,577,18,Woman,Right,
,,,,,,,,,,,,,,,,,577,18,Woman,Right,3,38,0.4,1,180,-,0,0.705153099999734,['y'],0.4310645999994449,1.846,1528.9742545999998,,,,,577,18,Woman,Right,
,,,,,,,,,,,,,,,,,577,18,Woman,Right,3,15,0.4,2,180,0,0,1.0169115999997302,['y'],1.7828587999993033,1.8479999999999999,1534.1575919000006,,,,,577,18,Woman,Right,
,,,,,,,,,,,,,,,,,577,18,Woman,Right,3,18,0.4,1,180,-,0,0.5199228999990737,['y'],0.3513157000015781,1.84,1537.3243113999997,,,,,577,18,Woman,Right,
,,,,,,,,,,,,,,,,,577,18,Woman,Right,3,16,0.4,1,0,-,180,0.6278922999990755,['y'],0.3908038999998098,1.836,1540.9913070000002,,,,,577,18,Woman,Right,
,,,,,,,,,,,,,,,,,577,18,Woman,Right,3,51,0.15,2,180,0,0,0.7519178999991709,['y'],0.4548323999988497,1.836,1544.4074746999995,,,,,577,18,Woman,Right,
,,,,,,,,,,,,,,,,,577,18,Woman,Right,3,63,0.15,2,180,0,180,0.8433586999999534,['y'],0.3510987000008754,1.836,1547.8741207999992,,,,,577,18,Woman,Right,
,,,,,,,,,,,,,,,,,577,18,Woman,Right,3,78,0.15,1,180,-,180,0.8203472999994119,['y'],0.3508700999991561,1.836,1551.6410467999995,,,,,577,18,Woman,Right,
,,,,,,,,,,,,,,,,,577,18,Woman,Right,3,52,0.15,1,0,-,180,0.4484743000011804,['y'],0.5028865000003861,1.836,1554.840838600001,,,,,577,18,Woman,Right,
,,,,,,,,,,,,,,,,,577,18,Woman,Right,3,75,0.15,2,180,0,0,0.6628839999993943,['y'],0.31887790000109817,1.836,1557.974250700001,,,,,577,18,Woman,Right,
,,,,,,,,,,,,,,,,,577,18,Woman,Right,3,55,0.15,2,180,0,180,0.3545505999991292,['y'],0.29520880000018224,1.836,1560.7410412000008,,,,,577,18,Woman,Right,
,,,,,,,,,,,,,,,,,577,18,Woman,Right,3,28,0.4,1,0,-,180,0.37132390000078885,['y'],0.8788543999999092,1.836,1564.0743602000002,,,,,577,18,Woman,Right,
,,,,,,,,,,,,,,,,,577,18,Woman,Right,3,43,0.4,2,180,0,0,0.3164957000008144,['y'],0.2902374000004784,1.836,1566.7742980999992,,,,,577,18,Woman,Right,
,,,,,,,,,,,,,,,,,577,18,Woman,Right,3,24,0.4,1,0,-,0,1.057750500000111,['y'],0.2868686000001617,1.836,1570.2075841999995,,,,,577,18,Woman,Right,
,,,,,,,,,,,,,,,,,577,18,Woman,Right,3,13,0.4,2,0,180,180,0.44059329999981856,['y'],0.25496649999877263,1.836,1573.0240594000006,,,,,577,18,Woman,Right,
,,,,,,,,,,,,,,,,,577,18,Woman,Right,3,76,0.15,1,0,-,180,0.3366038000003755,['y'],0.2228534000005311,1.836,1575.6577682999996,,,,,577,18,Woman,Right,
,,,,,,,,,,,,,,,,,577,18,Woman,Right,3,66,0.15,1,180,-,0,0.3752154000012524,['y'],0.2069181999995635,1.836,1578.3406971000004,,,,,577,18,Woman,Right,
,,,,,,,,,,,,,,,,,577,18,Woman,Right,3,14,0.4,1,180,-,0,0.3659818999985873,['y'],0.23928060000071127,1.836,1580.957556200001,,,,,577,18,Woman,Right,
,,,,,,,,,,,,,,,,,577,18,Woman,Right,3,50,0.15,1,180,-,180,0.9003060000013647,['y'],0.2799427999998443,1.836,1584.1245651999998,,,,,577,18,Woman,Right,
,,,,,,,,,,,,,,,,,577,18,Woman,Right,3,21,0.4,2,0,180,180,0.30140120000032766,['y'],0.20700790000046254,1.836,1586.674191,,,,,577,18,Woman,Right,
,,,,,,,,,,,,,,,,,577,18,Woman,Right,3,25,0.4,2,0,180,180,0.3752948999990622,['y'],0.25490950000130397,1.836,1589.3908747000005,,,,,577,18,Woman,Right,
,,,,,,,,,,,,,,,,,577,18,Woman,Right,3,23,0.4,2,180,0,0,1.9669262999996135,['y'],0.23947320000115724,1.836,1594.2908521999998,,,,,577,18,Woman,Right,
,,,,,,,,,,,,,,,,,577,18,Woman,Right,3,47,0.15,2,180,0,0,0.31145480000122916,['y'],0.2789001000001008,1.836,1597.0572634,,,,,577,18,Woman,Right,
,,,,,,,,,,,,,,,,,577,18,Woman,Right,3,4,1,1,0,-,0,0.6824157999999443,['n'],0.7906753000006574,1.836,1601.3074658000005,,,,,577,18,Woman,Right,
,,,,,,,,,,,,,,,,,577,18,Woman,Right,3,1,1,2,0,180,180,0.6501254000013432,['y'],0.735280299999431,1.836,1605.0073539000005,,,,,577,18,Woman,Right,
,,,,,,,,,,,,,,,,,577,18,Woman,Right,3,22,0.4,1,180,-,0,0.44077000000106636,['y'],0.26290489999882993,1.836,1607.8075021000004,,,,,577,18,Woman,Right,
,,,,,,,,,,,,,,,,,577,18,Woman,Right,3,56,0.15,1,0,-,0,0.6028542000003654,['n'],0.7989533999989362,1.836,1611.490531200001,,,,,577,18,Woman,Right,
,,,,,,,,,,,,,,,,,577,18,Woman,Right,3,64,0.15,1,0,-,0,0.3967971000001853,['n'],0.39057430000138993,1.836,1614.5407350999994,,,,,577,18,Woman,Right,
,,,,,,,,,,,,,,,,,577,18,Woman,Right,3,61,0.15,2,0,180,0,1.1782359000008,['n'],1.3269077000004472,1.836,1619.1906073999999,,,,,577,18,Woman,Right,
,,,,,,,,,,,,,,,,,577,18,Woman,Right,3,67,0.15,2,180,0,0,1.2408613999996305,['y'],0.5432216999997763,1.836,1623.2904904999996,,,,,577,18,Woman,Right,
,,,,,,,,,,,,,,,,,577,18,Woman,Right,3,70,0.15,1,180,-,180,3.850268500000311,['y'],0.4627607000002172,1.742,1630.8236644000008,,,,,577,18,Woman,Right,
,,,,,,,,,,,,,,,,,577,18,Woman,Right,3,34,0.4,1,180,-,0,2.5876843000005465,['y'],1.023085099999662,1.244,1636.773928300001,,,,,577,18,Woman,Right,
,,,,,,,,,,,,,,,,,577,18,Woman,Right,3,20,0.4,1,0,-,0,1.6316064999991795,['n'],0.6551926000011008,1.8719999999999999,1641.8237370999996,,,,,577,18,Woman,Right,
,,,,,,,,,,,,,,,,,577,18,Woman,Right,3,17,0.4,2,0,180,180,1.3277468000014778,['y'],0.5594996000018,1.814,1645.9739888000004,,,,,577,18,Woman,Right,
,,,,,,,,,,,,,,,,,577,18,Woman,Right,3,40,0.4,1,0,-,0,0.5934922999986156,['n'],0.34347949999937555,1.808,1649.2238285999993,,,,,577,18,Woman,Right,
,,,,,,,,,,,,,,,,,577,18,Woman,Right,3,7,1,2,180,0,0,0.9834365999995498,['y'],0.41564759999891976,1.806,1652.8737256000004,,,,,577,18,Woman,Right,
,,,,,,,,,,,,,,,,,577,18,Woman,Right,3,46,0.15,1,180,-,0,0.8696622000006755,['n'],0.2787871999989875,1.806,1656.2069683000009,,,,,577,18,Woman,Right,
,,,,,,,,,,,,,,,,,577,18,Woman,Right,3,26,0.4,1,180,-,180,1.0388364999998885,['n'],0.7425296999990678,1.806,1660.5905519999997,,,,,577,18,Woman,Right,
,,,,,,,,,,,,,,,,,577,18,Woman,Right,3,48,0.15,1,0,-,0,0.7871258999985002,['n'],0.8629363999989437,1.806,1664.4571192000003,,,,,577,18,Woman,Right,
,,,,,,,,,,,,,,,,,577,18,Woman,Right,3,32,0.4,1,0,-,0,0.31168480000087584,['n'],0.2632716000007349,1.806,1667.3069465000008,,,,,577,18,Woman,Right,
,,,,,,,,,,,,,,,,,577,18,Woman,Right,3,33,0.4,2,0,180,180,0.6264336999993247,['y'],0.5749070000001666,1.806,1671.1071525999996,,,,,577,18,Woman,Right,
,,,,,,,,,,,,,,,,,577,18,Woman,Right,3,19,0.4,2,180,0,0,1.6559097000008478,['y'],0.4067987999987963,1.794,1675.4405473000006,,,,,577,18,Woman,Right,
,,,,,,,,,,,,,,,,,577,18,Woman,Right,3,35,0.4,2,180,0,0,0.5392025000001013,['y'],0.33417740000004414,1.8,1678.5904735999993,,,,,577,18,Woman,Right,
,,,,,,,,,,,,,,,,,577,18,Woman,Right,3,53,0.15,2,0,180,180,1.5610828999997466,['y'],0.3349006000007648,1.8,1682.6568432999993,,,,,577,18,Woman,Right,
,,,,,,,,,,,,,,,,,577,18,Woman,Right,3,74,0.15,1,180,-,0,0.7052501999987726,['n'],0.9107804000013857,1.8,1686.6903524999998,,,,,577,18,Woman,Right,
,,,,,,,,,,,,,,,,,577,18,Woman,Right,3,27,0.4,2,180,0,0,0.30316319999838015,['y'],0.559369799999331,1.8,1689.7404272999993,,,,,577,18,Woman,Right,
,,,,,,,,,,,,,,,,,577,18,Woman,Right,3,3,1,2,180,0,0,0.30636450000019977,['y'],0.31090100000074017,1.8,1692.4901558000001,,,,,577,18,Woman,Right,
,,,,,,,,,,,,,,,,,577,18,Woman,Right,3,77,0.15,2,0,180,180,0.6555095000003348,['y'],0.27089839999825926,1.8,1695.4400022999998,,,,,577,18,Woman,Right,
,,,,,,,,,,,,,,,,,577,18,Woman,Right,3,73,0.15,2,0,180,0,0.402343200001269,['y'],0.2628693000006024,1.8,1698.2067759000001,,,,,577,18,Woman,Right,
,,,,,,,,,,,,,,,,,577,18,Woman,Right,3,5,1,2,0,180,180,0.4119952999990346,['y'],0.24725049999869952,1.8,1700.8904512999998,,,,,577,18,Woman,Right,
,,,,,,,,,,,,,,,,,577,18,Woman,Right,3,10,0.4,1,180,-,0,0.6501157000002422,['y'],0.3037008999999671,1.8,1704.0902573999992,,,,,577,18,Woman,Right,
,,,,,,,,,,,,,,,,,577,18,Woman,Right,3,44,0.15,1,0,-,0,0.7425415999987308,['y'],0.2548746000011306,1.8,1707.1744249000003,,,,,577,18,Woman,Right,
,,,,,,,,,,,,,,,,,577,18,Woman,Right,3,65,0.15,2,0,180,180,0.6367205000005924,['y'],0.2228675000005751,1.8,1710.0570186999994,,,,,577,18,Woman,Right,
,,,,,,,,,,,,,,,,,577,18,Woman,Right,3,29,0.4,2,0,180,180,0.3667760000007547,['y'],0.22486860000026354,1.8,1712.6737123999992,,,,,577,18,Woman,Right,
,,,,,,,,,,,,,,,,,577,18,Woman,Right,3,69,0.15,2,0,180,0,3.2883192999997846,['y'],0.3429565000005823,1.8,1718.9066354000006,,,,,577,18,Woman,Right,
,,,,,,,,,,,,,,,,,577,18,Woman,Right,4,23,0.4,2,180,0,0,1.4037626999997883,['n'],0.3108812999998918,1.346,1729.8734255,72.5,57.5,82.5,,577,18,Woman,Right,
,,,,,,,,,,,,,,,,,577,18,Woman,Right,4,65,0.15,2,0,180,180,1.682580999999118,['y'],0.5185196000002179,1.798,1734.556592500001,,,,,577,18,Woman,Right,
,,,,,,,,,,,,,,,,,577,18,Woman,Right,4,67,0.15,2,180,0,0,0.4117474000013317,['y'],0.3744511999993847,1.788,1737.6731935999996,,,,,577,18,Woman,Right,
,,,,,,,,,,,,,,,,,577,18,Woman,Right,4,78,0.15,1,180,-,0,0.41735829999925045,['y'],0.3186571999995067,1.788,1740.6397880999994,,,,,577,18,Woman,Right,
,,,,,,,,,,,,,,,,,577,18,Woman,Right,4,43,0.4,2,180,0,0,0.28115319999960775,['y'],0.2946515999992698,1.784,1743.2898922999993,,,,,577,18,Woman,Right,
,,,,,,,,,,,,,,,,,577,18,Woman,Right,4,7,1,2,180,0,0,0.23743629999989935,['y'],0.27099319999979343,1.784,1745.9398359000006,,,,,577,18,Woman,Right,
,,,,,,,,,,,,,,,,,577,18,Woman,Right,4,10,0.4,1,180,-,180,0.46750710000014806,['y'],0.2629743999987113,1.784,1748.757369500001,,,,,577,18,Woman,Right,
,,,,,,,,,,,,,,,,,577,18,Woman,Right,4,2,1,1,180,-,0,0.3889092999997956,['y'],0.24692870000035327,1.784,1751.4397042,,,,,577,18,Woman,Right,
,,,,,,,,,,,,,,,,,577,18,Woman,Right,4,26,0.4,1,180,-,0,0.5220827000011923,['y'],0.22321349999947415,1.784,1754.2232034999997,,,,,577,18,Woman,Right,
,,,,,,,,,,,,,,,,,577,18,Woman,Right,4,21,0.4,2,0,180,180,3.104046800001015,['y'],0.21484670000063488,1.784,1760.8897643,,,,,577,18,Woman,Right,
,,,,,,,,,,,,,,,,,577,18,Woman,Right,4,14,0.4,1,180,-,0,0.3834428999998636,['y'],0.402894799999558,1.784,1764.6731627999998,,,,,577,18,Woman,Right,
,,,,,,,,,,,,,,,,,577,18,Woman,Right,4,36,0.4,1,0,-,0,0.5210117000005994,['n'],0.6061384000004182,1.784,1767.989690800001,,,,,577,18,Woman,Right,
,,,,,,,,,,,,,,,,,577,18,Woman,Right,4,6,1,1,180,-,180,0.8986922000003688,['n'],0.36638659999880474,1.784,1771.4563665000005,,,,,577,18,Woman,Right,
,,,,,,,,,,,,,,,,,577,18,Woman,Right,4,60,0.15,1,0,-,0,0.483343199999581,['n'],0.7527456999996502,1.784,1775.1396820999998,,,,,577,18,Woman,Right,
,,,,,,,,,,,,,,,,,577,18,Woman,Right,4,57,0.15,2,0,180,0,0.43295450000005076,['n'],0.36697989999993297,1.784,1778.4729318999998,,,,,577,18,Woman,Right,
,,,,,,,,,,,,,,,,,577,18,Woman,Right,4,63,0.15,2,180,0,0,1.2291061000014452,['y'],0.8472983000010572,1.782,1782.9733185000005,,,,,577,18,Woman,Right,
,,,,,,,,,,,,,,,,,577,18,Woman,Right,4,59,0.15,2,180,0,0,0.343689400000585,['n'],0.2952826000000641,1.782,1785.8395211999996,,,,,577,18,Woman,Right,
,,,,,,,,,,,,,,,,,577,18,Woman,Right,4,77,0.15,2,0,180,0,0.5917592000005243,['n'],0.32619229999909294,1.782,1788.9562781000004,,,,,577,18,Woman,Right,
,,,,,,,,,,,,,,,,,577,18,Woman,Right,4,49,0.15,2,0,180,0,0.29881209999985003,['n'],0.27092390000143496,1.782,1791.6729362999995,,,,,577,18,Woman,Right,
,,,,,,,,,,,,,,,,,577,18,Woman,Right,4,25,0.4,2,0,180,180,0.5043756000013673,['n'],0.2949148999996396,1.782,1794.5395742,,,,,577,18,Woman,Right,
,,,,,,,,,,,,,,,,,577,18,Woman,Right,4,47,0.15,2,180,0,0,0.43841430000065884,['n'],0.26294679999955406,1.782,1798.1062454999992,,,,,577,18,Woman,Right,
,,,,,,,,,,,,,,,,,577,18,Woman,Right,4,42,0.4,1,180,-,180,0.605532100000346,['n'],0.29493559999900754,1.782,1801.4229586000001,,,,,577,18,Woman,Right,
,,,,,,,,,,,,,,,,,577,18,Woman,Right,4,20,0.4,1,0,-,0,0.2517876999991131,['n'],0.2631670999999187,1.782,1804.1731211999995,,,,,577,18,Woman,Right,
,,,,,,,,,,,,,,,,,577,18,Woman,Right,4,5,1,2,0,180,180,1.4284155999994255,['y'],0.3431318000002648,1.782,1808.1062839000006,,,,,577,18,Woman,Right,
,,,,,,,,,,,,,,,,,577,18,Woman,Right,4,50,0.15,1,180,-,0,0.7570916000004217,['n'],0.3353255000001809,1.782,1811.4064013000007,,,,,577,18,Woman,Right,
,,,,,,,,,,,,,,,,,577,18,Woman,Right,4,0,1,1,0,-,0,0.36235390000001644,['n'],0.24722200000178418,1.782,1814.1062308,,,,,577,18,Woman,Right,
,,,,,,,,,,,,,,,,,577,18,Woman,Right,4,9,0.4,2,0,180,180,0.5495752000006178,['y'],0.7348287000004348,1.962,1817.9062584999992,,,,,577,18,Woman,Right,
,,,,,,,,,,,,,,,,,577,18,Woman,Right,4,74,0.15,1,180,-,0,1.7591014999998151,['n'],0.26402860000052897,1.8439999999999999,1822.1561777999996,,,,,577,18,Woman,Right,
,,,,,,,,,,,,,,,,,577,18,Woman,Right,4,39,0.4,2,180,0,0,1.58627290000004,['y'],0.2549161999995704,1.824,1826.3233120000004,,,,,577,18,Woman,Right,
,,,,,,,,,,,,,,,,,577,18,Woman,Right,4,15,0.4,2,180,0,180,2.089182499999879,['y'],0.6068586000001233,1.978,1831.7393828000004,,,,,577,18,Woman,Right,
,,,,,,,,,,,,,,,,,577,18,Woman,Right,4,68,0.15,1,0,-,180,1.7666424999988521,['y'],0.406616700000086,1.986,1836.106063700001,,,,,577,18,Woman,Right,
,,,,,,,,,,,,,,,,,577,18,Woman,Right,4,8,0.4,1,0,-,0,0.7518370000016148,['n'],0.8949690999997983,1.9,1840.1726856000005,,,,,577,18,Woman,Right,
,,,,,,,,,,,,,,,,,577,18,Woman,Right,4,79,0.15,2,180,0,180,0.7886468000015157,['y'],2.2947005000005447,1.942,1845.5059972,,,,,577,18,Woman,Right,
,,,,,,,,,,,,,,,,,577,18,Woman,Right,4,35,0.4,2,180,0,0,1.0980584999997518,['y'],0.6702797999987524,1.918,1849.7893378999997,,,,,577,18,Woman,Right,
,,,,,,,,,,,,,,,,,577,18,Woman,Right,4,17,0.4,2,0,180,180,1.643929100000605,['y'],0.34236690000034287,1.978,1854.0561572999995,,,,,577,18,Woman,Right,
,,,,,,,,,,,,,,,,,577,18,Woman,Right,4,55,0.15,2,180,0,0,1.7363699999987148,['y'],0.4545516000016505,1.866,1858.4892965,,,,,577,18,Woman,Right,
,,,,,,,,,,,,,,,,,577,18,Woman,Right,4,30,0.4,1,180,-,180,0.7898979000001418,['n'],1.8716058999998495,1.8820000000000001,1863.6392472000007,,,,,577,18,Woman,Right,
,,,,,,,,,,,,,,,,,577,18,Woman,Right,4,64,0.15,1,0,-,0,0.5196285999991233,['n'],1.7747111000007862,1.8599999999999999,1868.5558235999997,,,,,577,18,Woman,Right,
,,,,,,,,,,,,,,,,,577,18,Woman,Right,4,16,0.4,1,0,-,0,0.4999854999987292,['n'],0.32687239999904705,1.8599999999999999,1871.6063156,,,,,577,18,Woman,Right,
,,,,,,,,,,,,,,,,,577,18,Woman,Right,4,61,0.15,2,0,180,0,0.89808709999852,['n'],0.2873027000005095,1.8599999999999999,1874.9061091000003,,,,,577,18,Woman,Right,
,,,,,,,,,,,,,,,,,577,18,Woman,Right,4,46,0.15,1,180,-,180,1.4633995000003779,['y'],0.5589052000013908,1.93,1879.2391110000008,,,,,577,18,Woman,Right,
,,,,,,,,,,,,,,,,,577,18,Woman,Right,4,48,0.15,1,0,-,0,1.1798502000001463,['n'],0.2947758000009344,1.85,1883.0725105000001,,,,,577,18,Woman,Right,
,,,,,,,,,,,,,,,,,577,18,Woman,Right,4,45,0.15,2,0,180,0,0.6382453000005626,['n'],0.26256950000060897,1.81,1886.1559815,,,,,577,18,Woman,Right,
,,,,,,,,,,,,,,,,,577,18,Woman,Right,4,56,0.15,1,0,-,180,0.5067851000003429,['n'],2.487003400001413,1.97,1893.2226547999999,,,,,577,18,Woman,Right,
,,,,,,,,,,,,,,,,,577,18,Woman,Right,4,1,1,2,0,180,180,0.9728451000009954,['y'],0.5983905000011873,2.0,1897.0723892999995,,,,,577,18,Woman,Right,
,,,,,,,,,,,,,,,,,577,18,Woman,Right,4,62,0.15,1,180,-,0,1.3423359999997047,['n'],1.4870113000015408,1.8639999999999999,1902.3224246000009,,,,,577,18,Woman,Right,
,,,,,,,,,,,,,,,,,577,18,Woman,Right,4,72,0.15,1,0,-,0,2.7598627999996097,['n'],1.0705918999992718,1.97,1909.8231713000005,,,,,577,18,Woman,Right,
,,,,,,,,,,,,,,,,,577,18,Woman,Right,4,58,0.15,1,180,-,0,1.2175354000009975,['y'],0.4869277999987389,1.914,1914.3058712000002,,,,,577,18,Woman,Right,
,,,,,,,,,,,,,,,,,577,18,Woman,Right,4,76,0.15,1,0,-,0,1.3835103000001254,['y'],2.383630500000436,1.054,1920.6728903999992,,,,,577,18,Woman,Right,
,,,,,,,,,,,,,,,,,577,18,Woman,Right,4,4,1,1,0,-,0,0.3772265999996307,['n'],0.31899019999946177,1.982,1923.6222665000005,,,,,577,18,Woman,Right,
,,,,,,,,,,,,,,,,,577,18,Woman,Right,4,3,1,2,180,0,0,0.7917230000002746,['y'],0.2468071000002965,2.0,1926.9557490000007,,,,,577,18,Woman,Right,
,,,,,,,,,,,,,,,,,577,18,Woman,Right,4,73,0.15,2,0,180,180,1.3568801999990683,['y'],1.7822402000001603,1.16,1932.6721042999998,,,,,577,18,Woman,Right,
,,,,,,,,,,,,,,,,,577,18,Woman,Right,4,52,0.15,1,0,-,0,1.1599129999995057,['y'],1.5266114999994898,1.1280000000000001,1937.5888099000003,,,,,577,18,Woman,Right,
,,,,,,,,,,,,,,,,,577,18,Woman,Right,4,69,0.15,2,0,180,180,0.9473446000010881,['y'],0.3264400999996724,1.826,1941.1888258,,,,,577,18,Woman,Right,
,,,,,,,,,,,,,,,,,577,18,Woman,Right,4,24,0.4,1,0,-,180,1.4506195000012667,['y'],0.6546766999999818,1.818,1946.2554768999998,,,,,577,18,Woman,Right,
,,,,,,,,,,,,,,,,,577,18,Woman,Right,4,75,0.15,2,180,0,0,0.8751348000005237,['y'],0.9271318999999494,1.804,1950.1556201999992,,,,,577,18,Woman,Right,
,,,,,,,,,,,,,,,,,577,18,Woman,Right,4,38,0.4,1,180,-,0,0.6694126000002143,['y'],0.3184865000002901,1.876,1953.472098100001,,,,,577,18,Woman,Right,
,,,,,,,,,,,,,,,,,577,18,Woman,Right,4,18,0.4,1,180,-,0,0.5368381999996927,['y'],0.31894240000110585,1.9,1956.6054162,,,,,577,18,Woman,Right,
,,,,,,,,,,,,,,,,,577,18,Woman,Right,4,29,0.4,2,0,180,180,2.4095863999991707,['y'],0.29442609999932756,1.184,1962.0553629999995,,,,,577,18,Woman,Right,
,,,,,,,,,,,,,,,,,577,18,Woman,Right,4,32,0.4,1,0,-,180,1.2506321000000753,['y'],0.30263510000077076,1.87,1965.7553351999995,,,,,577,18,Woman,Right,
,,,,,,,,,,,,,,,,,577,18,Woman,Right,4,51,0.15,2,180,0,0,0.8283248999996431,['y'],0.33493929999895045,1.954,1969.0729087,,,,,577,18,Woman,Right,
,,,,,,,,,,,,,,,,,577,18,Woman,Right,4,34,0.4,1,180,-,0,1.6800684999998339,['y'],0.2952222999992955,1.948,1973.3054329999995,,,,,577,18,Woman,Right,
,,,,,,,,,,,,,,,,,577,18,Woman,Right,4,44,0.15,1,0,-,0,0.6575334999997722,['y'],0.27850369999941904,1.912,1976.3219659999995,,,,,577,18,Woman,Right,
,,,,,,,,,,,,,,,,,577,18,Woman,Right,4,12,0.4,1,0,-,180,0.8329104000004008,['y'],0.24689459999899555,1.912,1979.4722593000006,,,,,577,18,Woman,Right,
,,,,,,,,,,,,,,,,,577,18,Woman,Right,4,27,0.4,2,180,0,0,0.6746602000002895,['y'],0.22284279999985301,1.8519999999999999,1982.4221218000002,,,,,577,18,Woman,Right,
,,,,,,,,,,,,,,,,,577,18,Woman,Right,4,71,0.15,2,180,0,0,0.6603312999995978,['y'],0.22338590000072145,1.8519999999999999,1985.3221587000007,,,,,577,18,Woman,Right,
,,,,,,,,,,,,,,,,,577,18,Woman,Right,4,33,0.4,2,0,180,180,1.168897300000026,['y'],0.25427830000080576,1.92,1988.9885709999999,,,,,577,18,Woman,Right,
,,,,,,,,,,,,,,,,,577,18,Woman,Right,4,40,0.4,1,0,-,180,1.6385701999988669,['y'],1.1588904999989609,1.866,1994.0560987999997,,,,,577,18,Woman,Right,
,,,,,,,,,,,,,,,,,577,18,Woman,Right,4,31,0.4,2,180,0,0,0.9785234999999375,['y'],0.5748890999984724,2.0,1998.3884515000009,,,,,577,18,Woman,Right,
,,,,,,,,,,,,,,,,,577,18,Woman,Right,4,13,0.4,2,0,180,180,1.3635655000016413,['y'],0.4793196999999054,1.972,2002.7721965,,,,,577,18,Woman,Right,
,,,,,,,,,,,,,,,,,577,18,Woman,Right,4,19,0.4,2,180,0,0,3.7426042999995843,['y'],0.6788738000013836,1.0,2009.7221233,,,,,577,18,Woman,Right,
,,,,,,,,,,,,,,,,,577,18,Woman,Right,4,66,0.15,1,180,-,0,1.98377359999904,['y'],1.4224917999999889,1.83,2015.3551097,,,,,577,18,Woman,Right,
,,,,,,,,,,,,,,,,,577,18,Woman,Right,4,53,0.15,2,0,180,0,0.6877385999996477,['y'],0.2151228999991872,1.824,2018.3885420999995,,,,,577,18,Woman,Right,
,,,,,,,,,,,,,,,,,577,18,Woman,Right,4,11,0.4,2,180,0,0,0.45313010000063514,['y'],0.19894060000115132,1.824,2021.0389111000004,,,,,577,18,Woman,Right,
,,,,,,,,,,,,,,,,,577,18,Woman,Right,4,28,0.4,1,0,-,0,0.2681517000000895,['y'],0.16725339999902644,1.316,2024.5884702999992,,,,,577,18,Woman,Right,
,,,,,,,,,,,,,,,,,577,18,Woman,Right,4,37,0.4,2,0,180,180,0.664204200000313,['y'],1.3588019999988319,1.866,2029.2384526000005,,,,,577,18,Woman,Right,
,,,,,,,,,,,,,,,,,577,18,Woman,Right,4,41,0.4,2,0,180,180,0.6620665999998891,['y'],0.390609800000675,1.806,2032.4552853999994,,,,,577,18,Woman,Right,
,,,,,,,,,,,,,,,,,577,18,Woman,Right,4,22,0.4,1,180,-,180,0.6819046999989951,['y'],0.3353843000004417,1.786,2035.5385547000005,,,,,577,18,Woman,Right,
,,,,,,,,,,,,,,,,,577,18,Woman,Right,4,70,0.15,1,180,-,0,0.39802400000007765,['y'],0.23087320000013278,1.786,2038.1716395999993,,,,,577,18,Woman,Right,
,,,,,,,,,,,,,,,,,577,18,Woman,Right,4,54,0.15,1,180,-,0,0.5669723999999405,['y'],1.1188764999988052,1.786,2042.0384212999998,,,,,577,18,Woman,Right,
,,,,,,,,,,,,,,,,,577,18,Woman,Right,5,2,1,1,180,-,180,1.8421443000006548,['y'],1.6388559999995778,1.88,2054.055096,65.0,42.5,77.5,,577,18,Woman,Right,
,,,,,,,,,,,,,,,,,577,18,Woman,Right,5,44,0.15,1,0,-,0,0.7694649999993999,['n'],0.4228856999998243,1.824,2057.4715823999995,,,,,577,18,Woman,Right,
,,,,,,,,,,,,,,,,,577,18,Woman,Right,5,7,1,2,180,0,0,0.6872767000004387,['y'],0.6305652999999438,1.928,2061.2885377000002,,,,,577,18,Woman,Right,
,,,,,,,,,,,,,,,,,577,18,Woman,Right,5,65,0.15,2,0,180,0,0.559418499999083,['n'],0.3434187999991991,1.84,2064.388407300001,,,,,577,18,Woman,Right,
,,,,,,,,,,,,,,,,,577,18,Woman,Right,5,71,0.15,2,180,0,0,0.3722168000003876,['n'],0.27121599999918544,1.84,2067.1215685000006,,,,,577,18,Woman,Right,
,,,,,,,,,,,,,,,,,577,18,Woman,Right,5,59,0.15,2,180,0,0,0.9402510999989317,['y'],0.3671487999999954,1.84,2070.8550288000006,,,,,577,18,Woman,Right,
,,,,,,,,,,,,,,,,,577,18,Woman,Right,5,51,0.15,2,180,0,0,0.5892266999999265,['y'],1.0387267000005522,1.8559999999999999,2074.7215452,,,,,577,18,Woman,Right,
,,,,,,,,,,,,,,,,,577,18,Woman,Right,5,25,0.4,2,0,180,180,0.558191899999656,['y'],0.39927650000026915,1.85,2077.955114800001,,,,,577,18,Woman,Right,
,,,,,,,,,,,,,,,,,577,18,Woman,Right,5,52,0.15,1,0,-,0,0.4506316000006336,['n'],0.34242559999984223,1.842,2081.004938600001,,,,,577,18,Woman,Right,
,,,,,,,,,,,,,,,,,577,18,Woman,Right,5,72,0.15,1,0,-,0,0.2476341000001412,['n'],0.31080130000009376,1.842,2083.7546965,,,,,577,18,Woman,Right,
,,,,,,,,,,,,,,,,,577,18,Woman,Right,5,4,1,1,0,-,0,0.2135102000011102,['n'],0.2709586999990279,1.842,2086.487974400001,,,,,577,18,Woman,Right,
,,,,,,,,,,,,,,,,,577,18,Woman,Right,5,18,0.4,1,180,-,0,1.2076740999982576,['n'],0.2951374999993277,1.27,2092.7880929000003,,,,,577,18,Woman,Right,
,,,,,,,,,,,,,,,,,577,18,Woman,Right,5,26,0.4,1,180,-,0,0.8485764999986714,['y'],0.5511352000012266,1.858,2096.3046911,,,,,577,18,Woman,Right,
,,,,,,,,,,,,,,,,,577,18,Woman,Right,5,42,0.4,1,180,-,0,0.5012593000010384,['y'],0.4946390999994037,1.8599999999999999,2099.4880221000003,,,,,577,18,Woman,Right,
,,,,,,,,,,,,,,,,,577,18,Woman,Right,5,64,0.15,1,0,-,0,1.183081499999389,['n'],0.3513416000005236,1.8599999999999999,2103.2879453999994,,,,,577,18,Woman,Right,
,,,,,,,,,,,,,,,,,577,18,Woman,Right,5,78,0.15,1,180,-,0,0.5313382999993337,['n'],0.4145176000001811,1.8599999999999999,2107.1714630000006,,,,,577,18,Woman,Right,
,,,,,,,,,,,,,,,,,577,18,Woman,Right,5,22,0.4,1,180,-,0,0.3402798000006442,['n'],0.2949048999998922,1.8599999999999999,2110.0048343,,,,,577,18,Woman,Right,
,,,,,,,,,,,,,,,,,577,18,Woman,Right,5,66,0.15,1,180,-,0,0.6591171000000031,['n'],0.2387537999984488,1.8599999999999999,2113.0056649,,,,,577,18,Woman,Right,
,,,,,,,,,,,,,,,,,577,18,Woman,Right,5,61,0.15,2,0,180,180,1.1877438000010443,['y'],0.734916899999007,1.8599999999999999,2117.588068700001,,,,,577,18,Woman,Right,
,,,,,,,,,,,,,,,,,577,18,Woman,Right,5,1,1,2,0,180,180,0.5965364000003319,['y'],1.3349765999992087,1.8599999999999999,2121.6878677000004,,,,,577,18,Woman,Right,
,,,,,,,,,,,,,,,,,577,18,Woman,Right,5,24,0.4,1,0,-,0,0.9669315000010101,['n'],0.24901879999924859,1.8599999999999999,2125.054744000001,,,,,577,18,Woman,Right,
,,,,,,,,,,,,,,,,,577,18,Woman,Right,5,5,1,2,0,180,180,1.531148399999438,['y'],0.5189707999998063,1.8599999999999999,2130.0380587,,,,,577,18,Woman,Right,
,,,,,,,,,,,,,,,,,577,18,Woman,Right,5,67,0.15,2,180,0,0,0.4990156999992905,['n'],3.183055000001332,1.8599999999999999,2135.7878129,,,,,577,18,Woman,Right,
,,,,,,,,,,,,,,,,,577,18,Woman,Right,5,13,0.4,2,0,180,180,0.7012517999992269,['y'],0.4151605999995809,1.8599999999999999,2139.371189900001,,,,,577,18,Woman,Right,
,,,,,,,,,,,,,,,,,577,18,Woman,Right,5,70,0.15,1,180,-,0,0.4399451000008412,['n'],0.9750861000011355,1.8599999999999999,2144.704404100001,,,,,577,18,Woman,Right,
,,,,,,,,,,,,,,,,,577,18,Woman,Right,5,12,0.4,1,0,-,180,0.8452364000004309,['y'],0.35086039999987406,1.8599999999999999,2150.3045906000007,,,,,577,18,Woman,Right,
,,,,,,,,,,,,,,,,,577,18,Woman,Right,5,37,0.4,2,0,180,180,0.35194550000051095,['y'],0.3111472999989928,1.8599999999999999,2153.0710822,,,,,577,18,Woman,Right,
,,,,,,,,,,,,,,,,,577,18,Woman,Right,5,30,0.4,1,180,-,0,0.4645289000000048,['n'],0.30290579999928013,1.8599999999999999,2155.9543347,,,,,577,18,Woman,Right,
,,,,,,,,,,,,,,,,,577,18,Woman,Right,5,63,0.15,2,180,0,0,0.42122639999979583,['n'],0.7589652999995451,1.8599999999999999,2159.2046038999997,,,,,577,18,Woman,Right,
,,,,,,,,,,,,,,,,,577,18,Woman,Right,5,57,0.15,2,0,180,180,0.6686102000003302,['y'],0.3588952000009158,1.8599999999999999,2162.3377001999997,,,,,577,18,Woman,Right,
,,,,,,,,,,,,,,,,,577,18,Woman,Right,5,17,0.4,2,0,180,180,1.250048899999456,['y'],0.37943690000065544,1.8599999999999999,2166.1376674000003,,,,,577,18,Woman,Right,
,,,,,,,,,,,,,,,,,577,18,Woman,Right,5,73,0.15,2,0,180,0,0.38804720000007364,['n'],0.7594119999994291,1.8900000000000001,2170.0052242,,,,,577,18,Woman,Right,
,,,,,,,,,,,,,,,,,577,18,Woman,Right,5,39,0.4,2,180,0,0,0.5894411000008404,['y'],0.4069486999997025,1.992,2173.3546516000006,,,,,577,18,Woman,Right,
,,,,,,,,,,,,,,,,,577,18,Woman,Right,5,0,1,1,0,-,0,0.2947439999989001,['y'],0.29532599999947706,1.936,2176.0212518999997,,,,,577,18,Woman,Right,
,,,,,,,,,,,,,,,,,577,18,Woman,Right,5,35,0.4,2,180,0,0,0.5974526999998488,['y'],0.26356940000005125,1.936,2178.9042728000004,,,,,577,18,Woman,Right,
,,,,,,,,,,,,,,,,,577,18,Woman,Right,5,29,0.4,2,0,180,180,0.5294387000012648,['y'],0.27925599999980477,1.936,2181.7545642000005,,,,,577,18,Woman,Right,
,,,,,,,,,,,,,,,,,577,18,Woman,Right,5,46,0.15,1,180,-,180,0.5670165000010456,['n'],0.5040824999996403,1.936,2184.8542228999995,,,,,577,18,Woman,Right,
,,,,,,,,,,,,,,,,,577,18,Woman,Right,5,34,0.4,1,180,-,0,1.1653979000002437,['y'],0.46304260000033537,1.936,2188.487755599999,,,,,577,18,Woman,Right,
,,,,,,,,,,,,,,,,,577,18,Woman,Right,5,41,0.4,2,0,180,180,0.48348430000078224,['y'],0.27108679999946617,1.938,2191.1875677999997,,,,,577,18,Woman,Right,
,,,,,,,,,,,,,,,,,577,18,Woman,Right,5,76,0.15,1,0,-,0,0.9500278000014077,['y'],0.22440970000025118,1.938,2194.354129200001,,,,,577,18,Woman,Right,
,,,,,,,,,,,,,,,,,577,18,Woman,Right,5,60,0.15,1,0,-,0,0.3119596999986243,['y'],0.23120810000000347,1.938,2196.8708031999995,,,,,577,18,Woman,Right,
,,,,,,,,,,,,,,,,,577,18,Woman,Right,5,11,0.4,2,180,0,0,0.4188309000001027,['y'],0.2151694000003772,1.938,2199.5040671999996,,,,,577,18,Woman,Right,
,,,,,,,,,,,,,,,,,577,18,Woman,Right,5,54,0.15,1,180,-,180,0.37810910000007425,['y'],0.39945319999969797,1.938,2202.3540527999994,,,,,577,18,Woman,Right,
,,,,,,,,,,,,,,,,,577,18,Woman,Right,5,19,0.4,2,180,0,0,0.21393729999908828,['y'],0.75841279999986,1.938,2205.5046041999994,,,,,577,18,Woman,Right,
,,,,,,,,,,,,,,,,,577,18,Woman,Right,5,36,0.4,1,0,-,0,0.33694830000058573,['y'],0.2547564999986207,1.19,2209.737656699999,,,,,577,18,Woman,Right,
,,,,,,,,,,,,,,,,,577,18,Woman,Right,5,23,0.4,2,180,0,0,0.2864637999991828,['y'],0.36655810000047495,1.924,2212.6041564999996,,,,,577,18,Woman,Right,
,,,,,,,,,,,,,,,,,577,18,Woman,Right,5,10,0.4,1,180,-,0,0.6345431999998254,['y'],0.2866333999991184,1.924,2215.6544851,,,,,577,18,Woman,Right,
,,,,,,,,,,,,,,,,,577,18,Woman,Right,5,31,0.4,2,180,0,0,1.090961399999287,['y'],0.3908133999993879,1.924,2219.2544878999997,,,,,577,18,Woman,Right,
,,,,,,,,,,,,,,,,,577,18,Woman,Right,5,55,0.15,2,180,0,0,0.6720068999984505,['n'],0.35926870000002964,1.924,2222.5383629000007,,,,,577,18,Woman,Right,
,,,,,,,,,,,,,,,,,577,18,Woman,Right,5,28,0.4,1,0,-,0,0.896649599999364,['n'],0.2949155000005703,1.924,2227.070727800001,,,,,577,18,Woman,Right,
,,,,,,,,,,,,,,,,,577,18,Woman,Right,5,47,0.15,2,180,0,0,0.3829926999987947,['n'],0.3112639000009949,1.924,2230.0040606000002,,,,,577,18,Woman,Right,
,,,,,,,,,,,,,,,,,577,18,Woman,Right,5,49,0.15,2,0,180,0,0.15355540000018664,['n'],0.39135710000118706,1.924,2232.7540281,,,,,577,18,Woman,Right,
,,,,,,,,,,,,,,,,,577,18,Woman,Right,5,79,0.15,2,180,0,0,0.28690219999953115,['n'],0.21483600000101433,1.924,2235.354188699999,,,,,577,18,Woman,Right,
,,,,,,,,,,,,,,,,,577,18,Woman,Right,5,15,0.4,2,180,0,0,0.3896691000009014,['n'],0.6311472000015783,1.924,2238.4706733000003,,,,,577,18,Woman,Right,
,,,,,,,,,,,,,,,,,577,18,Woman,Right,5,40,0.4,1,0,-,0,0.4296191999983421,['n'],0.2548781000004965,1.924,2241.770555000001,,,,,577,18,Woman,Right,
,,,,,,,,,,,,,,,,,577,18,Woman,Right,5,32,0.4,1,0,-,0,0.2833769000008033,['n'],0.29086339999958,1.924,2244.4710077,,,,,577,18,Woman,Right,
,,,,,,,,,,,,,,,,,577,18,Woman,Right,5,3,1,2,180,0,0,0.8729536999999254,['y'],0.35865349999949103,1.924,2247.9873511999995,,,,,577,18,Woman,Right,
,,,,,,,,,,,,,,,,,577,18,Woman,Right,5,21,0.4,2,0,180,180,0.6257831000002625,['y'],0.5108713999998145,1.924,2251.3871586999994,,,,,577,18,Woman,Right,
,,,,,,,,,,,,,,,,,577,18,Woman,Right,5,14,0.4,1,180,-,180,0.4498702000000776,['n'],0.30393220000041765,1.924,2254.3705291999995,,,,,577,18,Woman,Right,
,,,,,,,,,,,,,,,,,577,18,Woman,Right,5,74,0.15,1,180,-,0,0.23633350000091013,['n'],0.278952599999684,1.924,2257.2038632999993,,,,,577,18,Woman,Right,
,,,,,,,,,,,,,,,,,577,18,Woman,Right,5,53,0.15,2,0,180,180,1.0318471000009595,['n'],0.2556674999996176,1.924,2261.3538768,,,,,577,18,Woman,Right,
,,,,,,,,,,,,,,,,,577,18,Woman,Right,5,6,1,1,180,-,180,0.3996869999991759,['n'],1.2389760999994905,1.924,2265.0539826999993,,,,,577,18,Woman,Right,
,,,,,,,,,,,,,,,,,577,18,Woman,Right,5,69,0.15,2,0,180,180,0.5861058999998932,['y'],0.5904308999997738,1.924,2268.4538501000006,,,,,577,18,Woman,Right,
,,,,,,,,,,,,,,,,,577,18,Woman,Right,5,45,0.15,2,0,180,180,1.105790599998727,['y'],0.1908428000006097,1.924,2272.1036614000004,,,,,577,18,Woman,Right,
,,,,,,,,,,,,,,,,,577,18,Woman,Right,5,77,0.15,2,0,180,180,1.4092012000000977,['y'],0.28681930000129796,1.924,2275.9372784000007,,,,,577,18,Woman,Right,
,,,,,,,,,,,,,,,,,577,18,Woman,Right,5,38,0.4,1,180,-,180,0.7739557000004424,['y'],0.6311330000007729,1.924,2279.6538268000004,,,,,577,18,Woman,Right,
,,,,,,,,,,,,,,,,,577,18,Woman,Right,5,16,0.4,1,0,-,0,0.5403957999988052,['n'],0.4629694000013842,1.924,2282.6871174000007,,,,,577,18,Woman,Right,
,,,,,,,,,,,,,,,,,577,18,Woman,Right,5,48,0.15,1,0,-,180,2.9851727000004757,['y'],1.0710540000000037,1.32,2289.403691900001,,,,,577,18,Woman,Right,
,,,,,,,,,,,,,,,,,577,18,Woman,Right,5,9,0.4,2,0,180,180,1.2306881000004068,['y'],0.5986996999999974,1.962,2293.587002800001,,,,,577,18,Woman,Right,
,,,,,,,,,,,,,,,,,577,18,Woman,Right,5,58,0.15,1,180,-,0,1.534759699999995,['y'],0.7105800999997882,1.27,2298.4037105000007,,,,,577,18,Woman,Right,
,,,,,,,,,,,,,,,,,577,18,Woman,Right,5,43,0.4,2,180,0,0,0.6154667000009795,['y'],0.4146029000003182,1.958,2302.103734100001,,,,,577,18,Woman,Right,
,,,,,,,,,,,,,,,,,577,18,Woman,Right,5,8,0.4,1,0,-,0,0.5001011000003928,['n'],0.5744095999998535,1.918,2305.2703144000006,,,,,577,18,Woman,Right,
,,,,,,,,,,,,,,,,,577,18,Woman,Right,5,56,0.15,1,0,-,0,0.34427990000040154,['n'],0.27872670000033395,1.916,2308.0368973000004,,,,,577,18,Woman,Right,
,,,,,,,,,,,,,,,,,577,18,Woman,Right,5,33,0.4,2,0,180,180,0.6515194000003248,['y'],0.4472399999995105,1.916,2311.2534914000007,,,,,577,18,Woman,Right,
,,,,,,,,,,,,,,,,,577,18,Woman,Right,5,20,0.4,1,0,-,180,0.8833014000010735,['y'],0.4062577999993664,1.916,2315.0702843,,,,,577,18,Woman,Right,
,,,,,,,,,,,,,,,,,577,18,Woman,Right,5,50,0.15,1,180,-,180,0.8019189999995433,['n'],0.4709242000008089,1.916,2318.5368524000005,,,,,577,18,Woman,Right,
,,,,,,,,,,,,,,,,,577,18,Woman,Right,5,27,0.4,2,180,0,0,0.5139902999999322,['y'],0.27049520000036864,1.916,2321.3368253999997,,,,,577,18,Woman,Right,
,,,,,,,,,,,,,,,,,577,18,Woman,Right,5,75,0.15,2,180,0,0,0.4793080999988888,['y'],0.2549427000012656,1.916,2324.1034278000006,,,,,577,18,Woman,Right,
,,,,,,,,,,,,,,,,,577,18,Woman,Right,5,62,0.15,1,180,-,0,0.5046328999997058,['y'],0.2549888000012288,1.914,2327.4034768,,,,,577,18,Woman,Right,
,,,,,,,,,,,,,,,,,577,18,Woman,Right,5,68,0.15,1,0,-,0,1.2153987999990932,['y'],0.4231636000004073,1.914,2331.1701281999995,,,,,577,18,Woman,Right,
,,,,,,,,,,,,,,,,,,,,,,,,,,,,,,,,,76.25,57.5,72.5,2016.5269455999996,,,,,
