p_block,p_section,p_coherence,p_direction1,p_direction2,p_direction_response,p_direction_RT,p_change_response,p_change_RT,p_confidence,p_full_correct,p_without5_correct,p_full_total,p_without5_total,p_full_avg,p_witout5_avg,p_total_time,sub,age,sex,handedness,loop,trial randomization,coherence,condition,direction1,direction2,direction_response,direction_RT,change_response,change_RT,change_confidence,change_confidence_RT,block_direction_avg,block_stable_avg,block_change_avg,total_time,sub,age,sex,handedness,
1,1,1.0,0,-,180,1.474821300000258,-,-,-,,,,,,,,506,29,Man,Right,,,,,,,,,,,,,,,,,506,29,Man,Right,
1,1,1.0,0,-,180,0.8268300999998246,-,-,-,,,,,,,,506,29,Man,Right,,,,,,,,,,,,,,,,,506,29,Man,Right,
1,1,1.0,0,-,0,2.788541500000065,-,-,-,,,,,,,,506,29,Man,Right,,,,,,,,,,,,,,,,,506,29,Man,Right,
1,1,1.0,0,-,180,0.44001269999989745,-,-,-,,,,,,,,506,29,Man,Right,,,,,,,,,,,,,,,,,506,29,Man,Right,
1,1,1.0,180,-,180,0.22493389999999636,-,-,-,,,,,,,,506,29,Man,Right,,,,,,,,,,,,,,,,,506,29,Man,Right,
1,1,1.0,180,-,180,0.2347146000001885,-,-,-,,,,,,,,506,29,Man,Right,,,,,,,,,,,,,,,,,506,29,Man,Right,
1,1,1.0,0,-,180,0.5389041999997062,-,-,-,,,,,,,,506,29,Man,Right,,,,,,,,,,,,,,,,,506,29,Man,Right,
1,1,1.0,0,-,180,2.111661599999934,-,-,-,,,,,,,,506,29,Man,Right,,,,,,,,,,,,,,,,,506,29,Man,Right,
1,1,1.0,0,-,180,0.39013880000038625,-,-,-,,,,,,,,506,29,Man,Right,,,,,,,,,,,,,,,,,506,29,Man,Right,
1,1,1.0,180,-,180,0.033293000000412576,-,-,-,,,,,,,,506,29,Man,Right,,,,,,,,,,,,,,,,,506,29,Man,Right,
1,1,1.0,0,-,180,0.01725310000074387,-,-,-,,,,,,,,506,29,Man,Right,,,,,,,,,,,,,,,,,506,29,Man,Right,
1,1,1.0,180,-,180,0.01679850000073202,-,-,-,,,,,,,,506,29,Man,Right,,,,,,,,,,,,,,,,,506,29,Man,Right,
1,1,1.0,180,-,180,0.032031699999606644,-,-,-,,,,,,,,506,29,Man,Right,,,,,,,,,,,,,,,,,506,29,Man,Right,
1,1,1.0,180,-,180,0.01593959999991057,-,-,-,,,,,,,,506,29,Man,Right,,,,,,,,,,,,,,,,,506,29,Man,Right,
1,1,1.0,0,-,180,2.030385699999897,-,-,-,,,,,,,,506,29,Man,Right,,,,,,,,,,,,,,,,,506,29,Man,Right,
1,1,1.0,180,-,180,0.0889019999995071,-,-,-,,,,,,,,506,29,Man,Right,,,,,,,,,,,,,,,,,506,29,Man,Right,
1,1,1.0,0,-,180,0.5747083999995084,-,-,-,,,,,,,,506,29,Man,Right,,,,,,,,,,,,,,,,,506,29,Man,Right,
1,1,1.0,0,-,180,0.12236829999983456,-,-,-,,,,,,,,506,29,Man,Right,,,,,,,,,,,,,,,,,506,29,Man,Right,
1,1,1.0,0,-,180,0.1833145999999033,-,-,-,,,,,,,,506,29,Man,Right,,,,,,,,,,,,,,,,,506,29,Man,Right,
1,1,1.0,0,-,180,0.016828200000418292,-,-,-,,,,,,,,506,29,Man,Right,,,,,,,,,,,,,,,,,506,29,Man,Right,
1,1,1.0,0,-,180,0.017296799999712675,-,-,-,,,,,,,,506,29,Man,Right,,,,,,,,,,,,,,,,,506,29,Man,Right,
1,1,1.0,180,-,180,0.7099183000000266,-,-,-,,,,,,,,506,29,Man,Right,,,,,,,,,,,,,,,,,506,29,Man,Right,
1,1,1.0,0,-,180,0.016942199999903096,-,-,-,,,,,,,,506,29,Man,Right,,,,,,,,,,,,,,,,,506,29,Man,Right,
1,1,1.0,180,-,180,0.017164400000183377,-,-,-,,,,,,,,506,29,Man,Right,,,,,,,,,,,,,,,,,506,29,Man,Right,
1,1,1.0,180,-,180,0.017247600000700913,-,-,-,,,,,,,,506,29,Man,Right,,,,,,,,,,,,,,,,,506,29,Man,Right,
1,1,1.0,0,-,180,0.2804381000005378,-,-,-,,,,,,,,506,29,Man,Right,,,,,,,,,,,,,,,,,506,29,Man,Right,
1,1,1.0,180,-,180,0.040462000000843545,-,-,-,,,,,,,,506,29,Man,Right,,,,,,,,,,,,,,,,,506,29,Man,Right,
1,1,1.0,0,-,180,0.15313270000024204,-,-,-,,,,,,,,506,29,Man,Right,,,,,,,,,,,,,,,,,506,29,Man,Right,
1,1,1.0,180,-,180,0.5649830000002112,-,-,-,,,,,,,,506,29,Man,Right,,,,,,,,,,,,,,,,,506,29,Man,Right,
1,1,1.0,180,-,180,0.18479989999923419,-,-,-,,,,,,,,506,29,Man,Right,,,,,,,,,,,,,,,,,506,29,Man,Right,
1,1,1.0,0,-,180,1.291567500000383,-,-,-,,,,,,,,506,29,Man,Right,,,,,,,,,,,,,,,,,506,29,Man,Right,
1,1,1.0,0,-,180,0.5392941999998584,-,-,-,,,,,,,,506,29,Man,Right,,,,,,,,,,,,,,,,,506,29,Man,Right,
1,1,1.0,0,-,0,1.6956689999997252,-,-,-,,,,,,,,506,29,Man,Right,,,,,,,,,,,,,,,,,506,29,Man,Right,
1,1,1.0,0,-,0,1.1189918000000034,-,-,-,,,,,,,,506,29,Man,Right,,,,,,,,,,,,,,,,,506,29,Man,Right,
1,1,1.0,180,-,180,0.044141899999885936,-,-,-,,,,,,,,506,29,Man,Right,,,,,,,,,,,,,,,,,506,29,Man,Right,
1,1,1.0,180,-,180,0.01708619999953953,-,-,-,,,,,,,,506,29,Man,Right,,,,,,,,,,,,,,,,,506,29,Man,Right,
1,1,1.0,180,-,180,0.016805100000055972,-,-,-,,,,,,,,506,29,Man,Right,,,,,,,,,,,,,,,,,506,29,Man,Right,
1,1,1.0,0,-,0,0.409409400000186,-,-,-,,,,,,,,506,29,Man,Right,,,,,,,,,,,,,,,,,506,29,Man,Right,
1,1,1.0,0,-,0,0.699311200000011,-,-,-,,,,,,,,506,29,Man,Right,,,,,,,,,,,,,,,,,506,29,Man,Right,
1,1,1.0,180,-,180,0.5298948999998174,-,-,-,8,8,10,10,0.8,0.8,,506,29,Man,Right,,,,,,,,,,,,,,,,,506,29,Man,Right,
2,1,0.15,0,-,180,1.2716245000001436,-,-,-,,,,,,,,506,29,Man,Right,,,,,,,,,,,,,,,,,506,29,Man,Right,
2,1,0.15,0,-,180,0.49563320000015665,-,-,-,,,,,,,,506,29,Man,Right,,,,,,,,,,,,,,,,,506,29,Man,Right,
2,1,0.15,0,-,180,0.6302735999997822,-,-,-,,,,,,,,506,29,Man,Right,,,,,,,,,,,,,,,,,506,29,Man,Right,
2,1,0.15,0,-,0,0.6718145999993794,-,-,-,,,,,,,,506,29,Man,Right,,,,,,,,,,,,,,,,,506,29,Man,Right,
2,1,0.15,180,-,180,0.8069582999996783,-,-,-,,,,,,,,506,29,Man,Right,,,,,,,,,,,,,,,,,506,29,Man,Right,
2,1,0.4,0,-,0,0.3826461000007839,-,-,-,,,,,,,,506,29,Man,Right,,,,,,,,,,,,,,,,,506,29,Man,Right,
2,1,0.4,0,-,0,0.35546510000040143,-,-,-,,,,,,,,506,29,Man,Right,,,,,,,,,,,,,,,,,506,29,Man,Right,
2,1,0.15,180,-,180,0.2635691000004954,-,-,-,,,,,,,,506,29,Man,Right,,,,,,,,,,,,,,,,,506,29,Man,Right,
2,1,0.15,0,-,180,0.1835561999996571,-,-,-,,,,,,,,506,29,Man,Right,,,,,,,,,,,,,,,,,506,29,Man,Right,
2,1,0.15,0,-,180,0.016903300000194577,-,-,-,,,,,,,,506,29,Man,Right,,,,,,,,,,,,,,,,,506,29,Man,Right,
2,1,0.15,180,-,0,0.25248520000059216,-,-,-,,,,,,,,506,29,Man,Right,,,,,,,,,,,,,,,,,506,29,Man,Right,
2,1,0.15,180,-,180,0.01604940000015631,-,-,-,,,,,,,,506,29,Man,Right,,,,,,,,,,,,,,,,,506,29,Man,Right,
2,1,0.4,0,-,180,0.6612578999993275,-,-,-,,,,,,,,506,29,Man,Right,,,,,,,,,,,,,,,,,506,29,Man,Right,
2,1,0.4,0,-,180,0.6609057999994548,-,-,-,,,,,,,,506,29,Man,Right,,,,,,,,,,,,,,,,,506,29,Man,Right,
2,1,0.15,0,-,0,0.3169664000006378,-,-,-,,,,,,,,506,29,Man,Right,,,,,,,,,,,,,,,,,506,29,Man,Right,
2,1,0.15,180,-,0,0.6901982999997927,-,-,-,,,,,,,,506,29,Man,Right,,,,,,,,,,,,,,,,,506,29,Man,Right,
2,1,0.15,180,-,0,0.5771577999994406,-,-,-,,,,,,,,506,29,Man,Right,,,,,,,,,,,,,,,,,506,29,Man,Right,
2,1,0.4,0,-,0,0.6443105000007563,-,-,-,,,,,,,,506,29,Man,Right,,,,,,,,,,,,,,,,,506,29,Man,Right,
2,1,0.15,0,-,180,0.9012904000001072,-,-,-,,,,,,,,506,29,Man,Right,,,,,,,,,,,,,,,,,506,29,Man,Right,
2,1,0.15,0,-,180,0.5869634000000588,-,-,-,,,,,,,,506,29,Man,Right,,,,,,,,,,,,,,,,,506,29,Man,Right,
2,1,0.4,0,-,0,0.7829220000003261,-,-,-,,,,,,,,506,29,Man,Right,,,,,,,,,,,,,,,,,506,29,Man,Right,
2,1,0.15,0,-,0,0.15226330000041344,-,-,-,,,,,,,,506,29,Man,Right,,,,,,,,,,,,,,,,,506,29,Man,Right,
2,1,0.15,180,-,180,0.04924639999990177,-,-,-,,,,,,,,506,29,Man,Right,,,,,,,,,,,,,,,,,506,29,Man,Right,
2,1,0.4,180,-,180,0.016973100000541308,-,-,-,,,,,,,,506,29,Man,Right,,,,,,,,,,,,,,,,,506,29,Man,Right,
2,1,0.15,180,-,180,0.5663010999996914,-,-,-,,,,,,,,506,29,Man,Right,,,,,,,,,,,,,,,,,506,29,Man,Right,
2,1,0.4,180,-,180,0.490063199999895,-,-,-,,,,,,,,506,29,Man,Right,,,,,,,,,,,,,,,,,506,29,Man,Right,
2,1,0.15,0,-,180,0.1852552000000287,-,-,-,,,,,,,,506,29,Man,Right,,,,,,,,,,,,,,,,,506,29,Man,Right,
2,1,0.4,0,-,0,0.3324024000003192,-,-,-,,,,,,,,506,29,Man,Right,,,,,,,,,,,,,,,,,506,29,Man,Right,
2,1,0.4,180,-,180,0.016659299999446375,-,-,-,,,,,,,,506,29,Man,Right,,,,,,,,,,,,,,,,,506,29,Man,Right,
2,1,0.15,0,-,180,0.20316420000017388,-,-,-,8,5,10,5,0.8,1.0,,506,29,Man,Right,,,,,,,,,,,,,,,,,506,29,Man,Right,
3,2,1.0,0,180,180,1.199137300000075,['y'],3.5593487999994977,2,,,,,,,,506,29,Man,Right,,,,,,,,,,,,,,,,,506,29,Man,Right,
3,2,1.0,0,180,0,1.9943598999998358,['y'],1.5908288999999058,1.47,,,,,,,,506,29,Man,Right,,,,,,,,,,,,,,,,,506,29,Man,Right,
3,2,1.0,180,0,0,1.0598020000006727,['y'],1.4215573999999833,2.0,,,,,,,,506,29,Man,Right,,,,,,,,,,,,,,,,,506,29,Man,Right,
3,2,1.0,0,180,180,0.6669751000008546,['y'],1.1797148999994533,2.0,,,,,,,,506,29,Man,Right,,,,,,,,,,,,,,,,,506,29,Man,Right,
3,2,1.0,180,0,0,0.6602603000001181,['y'],1.286838699999862,2.0,,,,,,,,506,29,Man,Right,,,,,,,,,,,,,,,,,506,29,Man,Right,
3,2,1.0,0,180,180,0.633279699999548,['y'],1.2356840000002194,2.0,,,,,,,,506,29,Man,Right,,,,,,,,,,,,,,,,,506,29,Man,Right,
3,2,1.0,0,180,180,0.589970899999571,['y'],1.0910776999999143,2.0,,,,,,,,506,29,Man,Right,,,,,,,,,,,,,,,,,506,29,Man,Right,
3,2,1.0,180,0,180,0.4846348000000944,['y'],1.2850545999999667,1.312,,,,,,,,506,29,Man,Right,,,,,,,,,,,,,,,,,506,29,Man,Right,
3,2,1.0,0,180,180,0.5681012999993982,['y'],1.1820342000000892,2.0,,,,,,,,506,29,Man,Right,,,,,,,,,,,,,,,,,506,29,Man,Right,
3,2,1.0,180,0,0,0.6358309999995981,['y'],1.021383700000115,2.0,8,8,10,10,0.8,0.8,,506,29,Man,Right,,,,,,,,,,,,,,,,,506,29,Man,Right,
4,2,0.4,180,0,0,0.7810388999996576,['y'],1.233681499999875,1.818,,,,,,,,506,29,Man,Right,,,,,,,,,,,,,,,,,506,29,Man,Right,
4,2,0.4,0,180,180,0.6456322000003638,['y'],1.1196663000000626,1.794,,,,,,,,506,29,Man,Right,,,,,,,,,,,,,,,,,506,29,Man,Right,
4,2,0.15,0,180,0,0.7826001000003089,['y'],1.2900126000004093,1.0,,,,,,,,506,29,Man,Right,,,,,,,,,,,,,,,,,506,29,Man,Right,
4,2,0.4,180,0,0,0.6118673999999373,['y'],1.0720627000000604,2.0,,,,,,,,506,29,Man,Right,,,,,,,,,,,,,,,,,506,29,Man,Right,
4,2,0.4,180,0,0,0.48549780000030296,['y'],0.9987059000004592,2.0,,,,,,,,506,29,Man,Right,,,,,,,,,,,,,,,,,506,29,Man,Right,
4,2,0.15,0,180,0,0.4586775999996462,['y'],1.860063899999659,1.328,,,,,,,,506,29,Man,Right,,,,,,,,,,,,,,,,,506,29,Man,Right,
4,2,0.15,0,180,180,0.8508873999999196,['y'],1.0209025000003749,1.798,,,,,,,,506,29,Man,Right,,,,,,,,,,,,,,,,,506,29,Man,Right,
4,2,0.15,0,180,0,0.6129520999993474,['y'],1.1616745999999694,1.354,,,,,,,,506,29,Man,Right,,,,,,,,,,,,,,,,,506,29,Man,Right,
4,2,0.15,0,180,0,0.957822400000623,['y'],1.292677299999923,1.432,,,,,,,,506,29,Man,Right,,,,,,,,,,,,,,,,,506,29,Man,Right,
4,2,0.4,0,180,180,0.549786700000368,['y'],1.0834805999993478,1.604,6,5,10,5,0.6,1.0,,506,29,Man,Right,,,,,,,,,,,,,,,,,506,29,Man,Right,
5,3,1.0,0,180,180,0.949530699999741,['y'],1.232303700000557,1.696,,,,,,,,506,29,Man,Right,,,,,,,,,,,,,,,,,506,29,Man,Right,
5,3,0.15,180,-,180,0.7629018999996333,['y'],1.145823100000598,1.596,,,,,,,,506,29,Man,Right,,,,,,,,,,,,,,,,,506,29,Man,Right,
5,3,1.0,0,-,180,0.636809099999482,['y'],1.6150627999995777,1.456,,,,,,,,506,29,Man,Right,,,,,,,,,,,,,,,,,506,29,Man,Right,
5,3,0.4,180,-,0,2.4169080000001486,['y'],1.7416008000000147,1.016,,,,,,,,506,29,Man,Right,,,,,,,,,,,,,,,,,506,29,Man,Right,
5,3,0.15,0,-,180,1.2542451999997866,['n'],0.9207194000000527,1.296,,,,,,,,506,29,Man,Right,,,,,,,,,,,,,,,,,506,29,Man,Right,
5,3,1.0,0,-,180,0.650509900000543,['y'],2.7498586000001524,1.67,,,,,,,,506,29,Man,Right,,,,,,,,,,,,,,,,,506,29,Man,Right,
5,3,1.0,180,-,180,0.48304079999979876,['y'],1.1727497000001676,2.0,,,,,,,,506,29,Man,Right,,,,,,,,,,,,,,,,,506,29,Man,Right,
5,3,0.4,0,180,180,0.7888845000006768,['y'],1.0902163000000655,1.62,,,,,,,,506,29,Man,Right,,,,,,,,,,,,,,,,,506,29,Man,Right,
5,3,0.4,0,180,180,0.5661810999999943,['y'],1.0838284000001295,1.6019999999999999,,,,,,,,506,29,Man,Right,,,,,,,,,,,,,,,,,506,29,Man,Right,
5,3,0.15,180,-,180,0.938902799999596,['y'],0.9864557000000787,1.338,,,,,,,,506,29,Man,Right,,,,,,,,,,,,,,,,,506,29,Man,Right,
5,3,0.15,180,0,180,1.9843279000006078,['n'],0.6780787999996392,1.1560000000000001,,,,,,,,506,29,Man,Right,,,,,,,,,,,,,,,,,506,29,Man,Right,
5,3,1.0,180,-,180,0.45532269999966957,['n'],1.6267782000004445,2.0,,,,,,,,506,29,Man,Right,,,,,,,,,,,,,,,,,506,29,Man,Right,
5,3,1.0,180,-,180,0.6482769000003827,['n'],1.2110257000003912,2.0,,,,,,,,506,29,Man,Right,,,,,,,,,,,,,,,,,506,29,Man,Right,
5,3,0.4,180,0,0,1.3583437000006597,['y'],0.7407272999998895,1.79,,,,,,,,506,29,Man,Right,,,,,,,,,,,,,,,,,506,29,Man,Right,
5,3,0.15,0,180,0,1.6078622999993968,['n'],0.8295588000000862,1.056,,,,,,,,506,29,Man,Right,,,,,,,,,,,,,,,,,506,29,Man,Right,
5,3,0.4,180,-,180,0.8886357999999746,['n'],0.9944683999992776,1.302,,,,,,,,506,29,Man,Right,,,,,,,,,,,,,,,,,506,29,Man,Right,
5,3,0.4,0,-,180,1.4172754999999597,['n'],2.588818999999603,1.25,,,,,,,,506,29,Man,Right,,,,,,,,,,,,,,,,,506,29,Man,Right,
5,3,0.4,180,-,180,0.8668127000000823,['n'],2.1337431000001743,1.4020000000000001,,,,,,,,506,29,Man,Right,,,,,,,,,,,,,,,,,506,29,Man,Right,
5,3,0.15,0,-,180,2.0836017999999967,['n'],3.1496869000002334,1.32,,,,,,,,506,29,Man,Right,,,,,,,,,,,,,,,,,506,29,Man,Right,
5,3,1.0,0,-,0,0.8028014000001349,['n'],3.0644689999999173,1.426,6,6,10,7,0.6,0.8571428571428571,,506,29,Man,Right,,,,,,,,,,,,,,,,,506,29,Man,Right,
,,,,,,,,,,,,,,,,4.499999704421498e-06,506,29,Man,Right,,,,,,,,,,,,,,,,,506,29,Man,Right,
,,,,,,,,,,,,,,,,,506,29,Man,Right,0,54,0.15,1,180,-,180,0.6517199999998411,['n'],4.569614599999113,1.3639999999999999,401.13296380000065,,,,,506,29,Man,Right,
,,,,,,,,,,,,,,,,,506,29,Man,Right,0,28,0.4,1,0,-,180,1.0837972999997874,['n'],3.1140510000004724,1.326,408.93405470000016,,,,,506,29,Man,Right,
,,,,,,,,,,,,,,,,,506,29,Man,Right,0,4,1,1,0,-,180,1.4407650000002832,['y'],4.858285299999807,1.222,418.6834187000004,,,,,506,29,Man,Right,
,,,,,,,,,,,,,,,,,506,29,Man,Right,0,20,0.4,1,0,-,0,0.8083799999994881,['n'],1.666038700000172,1.272,424.7996611000008,,,,,506,29,Man,Right,
,,,,,,,,,,,,,,,,,506,29,Man,Right,0,37,0.4,2,0,180,180,0.8295889000000898,['y'],1.4340818000000581,1.6520000000000001,430.8997180000006,,,,,506,29,Man,Right,
,,,,,,,,,,,,,,,,,506,29,Man,Right,0,19,0.4,2,180,0,0,1.2344067000003633,['y'],1.1216787000003023,1.432,436.61640680000073,,,,,506,29,Man,Right,
,,,,,,,,,,,,,,,,,506,29,Man,Right,0,47,0.15,2,180,0,0,2.8820685000000594,['n'],3.4574828000004345,1.028,446.7827780000007,,,,,506,29,Man,Right,
,,,,,,,,,,,,,,,,,506,29,Man,Right,0,30,0.4,1,180,-,180,0.7433482999995249,['n'],1.321703300000081,1.704,452.4330251000001,,,,,506,29,Man,Right,
,,,,,,,,,,,,,,,,,506,29,Man,Right,0,64,0.15,1,0,-,0,0.8377786000000924,['n'],1.0978566000003411,1.3639999999999999,457.5167409000005,,,,,506,29,Man,Right,
,,,,,,,,,,,,,,,,,506,29,Man,Right,0,18,0.4,1,180,-,180,0.44895069999984116,['n'],2.9620758999999452,1.662,464.51575930000035,,,,,506,29,Man,Right,
,,,,,,,,,,,,,,,,,506,29,Man,Right,0,73,0.15,2,0,180,180,1.5723829999997179,['n'],1.2737833000001046,1.302,470.6001963000008,,,,,506,29,Man,Right,
,,,,,,,,,,,,,,,,,506,29,Man,Right,0,62,0.15,1,180,-,180,1.719858700000259,['n'],1.1617796000000453,1.0,477.4160903000002,,,,,506,29,Man,Right,
,,,,,,,,,,,,,,,,,506,29,Man,Right,0,25,0.4,2,0,180,180,0.8239978999999948,['y'],3.0339007999991736,1.232,484.5167151000005,,,,,506,29,Man,Right,
,,,,,,,,,,,,,,,,,506,29,Man,Right,0,21,0.4,2,0,180,180,0.7157330999998521,['y'],1.5860854000002291,1.236,490.38338450000083,,,,,506,29,Man,Right,
,,,,,,,,,,,,,,,,,506,29,Man,Right,0,53,0.15,2,0,180,180,1.7446056999997381,['n'],1.3218440000000555,1.338,496.6329802,,,,,506,29,Man,Right,
,,,,,,,,,,,,,,,,,506,29,Man,Right,0,0,1,1,0,-,0,1.6791340999998283,['n'],1.7943021999999473,1.18,503.4998011000007,,,,,506,29,Man,Right,
,,,,,,,,,,,,,,,,,506,29,Man,Right,0,78,0.15,1,180,-,180,1.9572679000002609,['n'],2.121877000000495,1.0,512.1504849000003,,,,,506,29,Man,Right,
,,,,,,,,,,,,,,,,,506,29,Man,Right,0,36,0.4,1,0,-,180,1.1231935999994676,['n'],1.370025500000338,1.744,521.0660759000002,,,,,506,29,Man,Right,
,,,,,,,,,,,,,,,,,506,29,Man,Right,0,13,0.4,2,0,180,180,1.255454500000269,['y'],2.9856496000002153,1.316,530.6155626,,,,,506,29,Man,Right,
,,,,,,,,,,,,,,,,,506,29,Man,Right,0,12,0.4,1,0,-,0,1.8160963000000265,['n'],3.0655018999996173,1.282,538.7994233000009,,,,,506,29,Man,Right,
,,,,,,,,,,,,,,,,,506,29,Man,Right,0,75,0.15,2,180,0,0,2.2031371000002764,['n'],5.058361899999909,1.324,552.4490024000006,,,,,506,29,Man,Right,
,,,,,,,,,,,,,,,,,506,29,Man,Right,0,35,0.4,2,180,0,180,1.2655540999994628,['y'],1.4425257000002603,1.1320000000000001,558.5491842000001,,,,,506,29,Man,Right,
,,,,,,,,,,,,,,,,,506,29,Man,Right,0,65,0.15,2,0,180,180,1.6108430999993288,['n'],1.257934700000078,1.19,564.4652656000007,,,,,506,29,Man,Right,
,,,,,,,,,,,,,,,,,506,29,Man,Right,0,69,0.15,2,0,180,180,0.6252674999996088,['n'],1.8098871000001964,1.18,570.899445,,,,,506,29,Man,Right,
,,,,,,,,,,,,,,,,,506,29,Man,Right,0,48,0.15,1,0,-,180,1.9662673000002542,['n'],2.55405250000058,1.026,579.1989159000004,,,,,506,29,Man,Right,
,,,,,,,,,,,,,,,,,506,29,Man,Right,0,51,0.15,2,180,0,0,2.1655878999999914,['n'],1.0821373999997377,1.1219999999999999,585.9329386000009,,,,,506,29,Man,Right,
,,,,,,,,,,,,,,,,,506,29,Man,Right,0,24,0.4,1,0,-,180,1.292140599999584,['n'],1.3784587000000101,1.5739999999999998,592.6829342000001,,,,,506,29,Man,Right,
,,,,,,,,,,,,,,,,,506,29,Man,Right,0,57,0.15,2,0,180,180,0.76613449999968,['n'],1.5543594000000667,1.56,598.7325601000002,,,,,506,29,Man,Right,
,,,,,,,,,,,,,,,,,506,29,Man,Right,0,72,0.15,1,0,-,180,3.1559547000006205,['n'],1.9303295999998227,1.302,606.9825183000003,,,,,506,29,Man,Right,
,,,,,,,,,,,,,,,,,506,29,Man,Right,0,38,0.4,1,180,-,180,0.49300270000003366,['n'],1.1861205000004702,2.0,612.0993883000001,,,,,506,29,Man,Right,
,,,,,,,,,,,,,,,,,506,29,Man,Right,0,67,0.15,2,180,0,180,1.4376832999996623,['n'],1.4102936000008413,1.53,618.6155632,,,,,506,29,Man,Right,
,,,,,,,,,,,,,,,,,506,29,Man,Right,0,61,0.15,2,0,180,0,1.92142849999982,['n'],1.2984735,1.022,625.1652108000008,,,,,506,29,Man,Right,
,,,,,,,,,,,,,,,,,506,29,Man,Right,0,59,0.15,2,180,0,180,0.47780239999974583,['n'],1.9061201000004075,1.196,630.6319916000002,,,,,506,29,Man,Right,
,,,,,,,,,,,,,,,,,506,29,Man,Right,0,33,0.4,2,0,180,180,0.4748341000004075,['n'],1.2664936000001035,1.5899999999999999,635.3993699000002,,,,,506,29,Man,Right,
,,,,,,,,,,,,,,,,,506,29,Man,Right,0,49,0.15,2,0,180,0,1.3495122000003903,['n'],1.3225215000002208,1.252,641.3826487000006,,,,,506,29,Man,Right,
,,,,,,,,,,,,,,,,,506,29,Man,Right,0,5,1,2,0,180,180,0.5242782000004809,['y'],1.3783250000005864,2.0,646.8993044000008,,,,,506,29,Man,Right,
,,,,,,,,,,,,,,,,,506,29,Man,Right,0,60,0.15,1,0,-,180,0.5285614000003989,['n'],1.2741405000006125,1.626,651.7819663,,,,,506,29,Man,Right,
,,,,,,,,,,,,,,,,,506,29,Man,Right,0,46,0.15,1,180,-,180,0.36597229999915726,['n'],1.2247604000003776,1.254,657.2656249000001,,,,,506,29,Man,Right,
,,,,,,,,,,,,,,,,,506,29,Man,Right,0,23,0.4,2,180,0,0,0.8135968999995384,['y'],1.3545978000001924,2.0,662.3658664000004,,,,,506,29,Man,Right,
,,,,,,,,,,,,,,,,,506,29,Man,Right,0,68,0.15,1,0,-,180,0.7294310999996014,['n'],1.4427647000002253,1.696,667.6149264000005,,,,,506,29,Man,Right,
,,,,,,,,,,,,,,,,,506,29,Man,Right,0,76,0.15,1,0,-,180,1.2735278000000108,['y'],1.5545992000006663,1.3399999999999999,673.7649809000004,,,,,506,29,Man,Right,
,,,,,,,,,,,,,,,,,506,29,Man,Right,0,79,0.15,2,180,0,180,0.659938300000249,['n'],1.5864018000002034,1.0,679.4998852000008,,,,,506,29,Man,Right,
,,,,,,,,,,,,,,,,,506,29,Man,Right,0,70,0.15,1,180,-,180,1.3997614999998405,['n'],1.4506400000000212,1.282,687.2323363000005,,,,,506,29,Man,Right,
,,,,,,,,,,,,,,,,,506,29,Man,Right,0,41,0.4,2,0,180,180,0.5102559000006295,['y'],1.3866457999993145,1.31,692.3324832000008,,,,,506,29,Man,Right,
,,,,,,,,,,,,,,,,,506,29,Man,Right,0,26,0.4,1,180,-,180,0.36506140000074083,['n'],2.5625303999995594,1.006,700.2158012,,,,,506,29,Man,Right,
,,,,,,,,,,,,,,,,,506,29,Man,Right,0,42,0.4,1,180,-,180,0.44533919999958016,['n'],1.642394299999978,1.762,705.2819365000005,,,,,506,29,Man,Right,
,,,,,,,,,,,,,,,,,506,29,Man,Right,0,22,0.4,1,180,-,180,0.8566482000005635,['n'],1.3543527000001632,1.208,710.6652191000003,,,,,506,29,Man,Right,
,,,,,,,,,,,,,,,,,506,29,Man,Right,0,10,0.4,1,180,-,180,0.6873525999999401,['n'],1.6260570999993433,1.192,716.4656393000005,,,,,506,29,Man,Right,
,,,,,,,,,,,,,,,,,506,29,Man,Right,0,71,0.15,2,180,0,180,1.353308300000208,['n'],4.954308800000035,1.01,725.9317258000001,,,,,506,29,Man,Right,
,,,,,,,,,,,,,,,,,506,29,Man,Right,0,31,0.4,2,180,0,0,0.7996280000006664,['n'],2.94685280000067,1.32,733.2330105000001,,,,,506,29,Man,Right,
,,,,,,,,,,,,,,,,,506,29,Man,Right,0,55,0.15,2,180,0,180,1.086742299999969,['n'],1.0911274000000049,1.376,740.3822734000005,,,,,506,29,Man,Right,
,,,,,,,,,,,,,,,,,506,29,Man,Right,0,74,0.15,1,180,-,0,2.3170894999993834,['n'],1.5468396000005669,1.248,748.0824844000008,,,,,506,29,Man,Right,
,,,,,,,,,,,,,,,,,506,29,Man,Right,0,52,0.15,1,0,-,180,1.1408642000005784,['n'],1.546364600000743,1.326,757.4155857000005,,,,,506,29,Man,Right,
,,,,,,,,,,,,,,,,,506,29,Man,Right,0,58,0.15,1,180,-,180,0.6743322000002081,['n'],2.426262500000121,1.0,764.5151846000008,,,,,506,29,Man,Right,
,,,,,,,,,,,,,,,,,506,29,Man,Right,0,11,0.4,2,180,0,0,0.7986554999997679,['y'],1.4027076000002126,2.0,769.5979613000009,,,,,506,29,Man,Right,
,,,,,,,,,,,,,,,,,506,29,Man,Right,0,39,0.4,2,180,0,0,0.7257715999994616,['y'],1.3224696000006588,2.0,775.6475961000006,,,,,506,29,Man,Right,
,,,,,,,,,,,,,,,,,506,29,Man,Right,0,6,1,1,180,-,180,0.8131640999999945,['n'],1.3309973000004902,1.806,782.3154576000006,,,,,506,29,Man,Right,
,,,,,,,,,,,,,,,,,506,29,Man,Right,0,9,0.4,2,0,180,180,0.688146799999231,['y'],1.723251899999923,1.416,788.5150026000001,,,,,506,29,Man,Right,
,,,,,,,,,,,,,,,,,506,29,Man,Right,0,34,0.4,1,180,-,180,1.119519500000024,['n'],1.4027275999997073,1.84,794.2818015000003,,,,,506,29,Man,Right,
,,,,,,,,,,,,,,,,,506,29,Man,Right,0,40,0.4,1,0,-,180,0.5199480000001131,['n'],2.4429509999999937,1.76,800.8831419000007,,,,,506,29,Man,Right,
,,,,,,,,,,,,,,,,,506,29,Man,Right,0,56,0.15,1,0,-,0,3.3152452000003905,['n'],0.962904900000467,1.002,808.2979759,,,,,506,29,Man,Right,
,,,,,,,,,,,,,,,,,506,29,Man,Right,0,27,0.4,2,180,0,0,0.5572815999994418,['y'],1.9228307000003042,1.6680000000000001,813.9323050000003,,,,,506,29,Man,Right,
,,,,,,,,,,,,,,,,,506,29,Man,Right,0,2,1,1,180,-,180,0.5701877000001332,['n'],1.0349472999996578,1.694,818.5653734000007,,,,,506,29,Man,Right,
,,,,,,,,,,,,,,,,,506,29,Man,Right,0,15,0.4,2,180,0,0,0.540413400000034,['y'],1.3391755000002377,1.566,823.9491417000008,,,,,506,29,Man,Right,
,,,,,,,,,,,,,,,,,506,29,Man,Right,0,7,1,2,180,0,0,0.7662528000000748,['y'],1.0893355999996857,2.0,828.9481438000003,,,,,506,29,Man,Right,
,,,,,,,,,,,,,,,,,506,29,Man,Right,0,16,0.4,1,0,-,180,0.7932627000000139,['n'],1.6995404999997845,1.224,834.5811504000003,,,,,506,29,Man,Right,
,,,,,,,,,,,,,,,,,506,29,Man,Right,0,17,0.4,2,0,180,180,0.9565935000000536,['n'],1.0431592999993882,1.174,839.5808034000001,,,,,506,29,Man,Right,
,,,,,,,,,,,,,,,,,506,29,Man,Right,0,43,0.4,2,180,0,0,0.6363052000006064,['y'],1.2267496999993455,1.682,844.6816761,,,,,506,29,Man,Right,
,,,,,,,,,,,,,,,,,506,29,Man,Right,0,8,0.4,1,0,-,0,0.6078599000002214,['n'],3.347296999999344,1.278,851.7641482000008,,,,,506,29,Man,Right,
,,,,,,,,,,,,,,,,,506,29,Man,Right,0,3,1,2,180,0,0,0.5193445000004431,['y'],1.0347574000006716,2.0,856.4147378000007,,,,,506,29,Man,Right,
,,,,,,,,,,,,,,,,,506,29,Man,Right,0,1,1,2,0,180,180,0.5405486999998175,['y'],1.130654699999468,2.0,861.3641458000002,,,,,506,29,Man,Right,
,,,,,,,,,,,,,,,,,506,29,Man,Right,0,14,0.4,1,180,-,0,1.5408606999999392,['y'],1.5389430000004722,1.38,867.6811323000002,,,,,506,29,Man,Right,
,,,,,,,,,,,,,,,,,506,29,Man,Right,0,77,0.15,2,0,180,0,1.4118974000002709,['n'],1.7868801999993593,1.0,874.2808665000002,,,,,506,29,Man,Right,
,,,,,,,,,,,,,,,,,506,29,Man,Right,0,44,0.15,1,0,-,180,0.9375505999996676,['n'],2.035052600000199,1.238,880.6483486000006,,,,,506,29,Man,Right,
,,,,,,,,,,,,,,,,,506,29,Man,Right,0,63,0.15,2,180,0,180,0.5147227999996176,['n'],1.0587955000000875,1.724,885.2474889000005,,,,,506,29,Man,Right,
,,,,,,,,,,,,,,,,,506,29,Man,Right,0,29,0.4,2,0,180,180,0.7788172000000486,['n'],1.5392093000000386,1.576,892.2484075000002,,,,,506,29,Man,Right,
,,,,,,,,,,,,,,,,,506,29,Man,Right,0,66,0.15,1,180,-,180,0.546656399999847,['n'],1.7788479000000734,1.3559999999999999,899.4140737000007,,,,,506,29,Man,Right,
,,,,,,,,,,,,,,,,,506,29,Man,Right,0,32,0.4,1,0,-,180,1.7949680000001536,['n'],1.6429951999998593,1.184,906.3978317000001,,,,,506,29,Man,Right,
,,,,,,,,,,,,,,,,,506,29,Man,Right,0,50,0.15,1,180,-,180,0.6681496999999581,['n'],3.603342100000191,1.674,913.7641664000002,,,,,506,29,Man,Right,
,,,,,,,,,,,,,,,,,506,29,Man,Right,0,45,0.15,2,0,180,180,0.7385170999996262,['n'],1.8759258000000045,1.216,919.6482527000007,,,,,506,29,Man,Right,
,,,,,,,,,,,,,,,,,506,29,Man,Right,1,67,0.15,2,180,0,180,0.5917979999994714,['n'],2.4274059999997917,1.5899999999999999,963.1647719000002,67.5,92.5,45.0,,506,29,Man,Right,
,,,,,,,,,,,,,,,,,506,29,Man,Right,1,12,0.4,1,0,-,180,1.3003326999996716,['n'],1.2834107999997286,1.18,968.7147672000001,,,,,506,29,Man,Right,
,,,,,,,,,,,,,,,,,506,29,Man,Right,1,51,0.15,2,180,0,180,0.7917140999998082,['n'],1.2512606999998752,1.172,973.7817203000004,,,,,506,29,Man,Right,
,,,,,,,,,,,,,,,,,506,29,Man,Right,1,59,0.15,2,180,0,180,0.4385545999994065,['n'],0.9869259999995847,1.234,978.3478180000002,,,,,506,29,Man,Right,
,,,,,,,,,,,,,,,,,506,29,Man,Right,1,72,0.15,1,0,-,180,0.5382315999995626,['n'],0.9715452000000369,1.018,983.7976929000006,,,,,506,29,Man,Right,
,,,,,,,,,,,,,,,,,506,29,Man,Right,1,24,0.4,1,0,-,180,0.46170749999964755,['n'],1.266838500000631,1.202,988.6644194,,,,,506,29,Man,Right,
,,,,,,,,,,,,,,,,,506,29,Man,Right,1,44,0.15,1,0,-,180,1.443268199999693,['n'],2.147558200000276,1.188,995.3478397000008,,,,,506,29,Man,Right,
,,,,,,,,,,,,,,,,,506,29,Man,Right,1,69,0.15,2,0,180,180,0.6616776999999274,['y'],1.659569499999634,1.092,1000.8145330000007,,,,,506,29,Man,Right,
,,,,,,,,,,,,,,,,,506,29,Man,Right,1,62,0.15,1,180,-,180,0.42525560000012774,['n'],1.6596424999997907,1.162,1006.0967180000007,,,,,506,29,Man,Right,
,,,,,,,,,,,,,,,,,506,29,Man,Right,1,3,1,2,180,0,0,1.1370586000002731,['y'],1.083554599999843,1.996,1011.1974340000006,,,,,506,29,Man,Right,
,,,,,,,,,,,,,,,,,506,29,Man,Right,1,33,0.4,2,0,180,180,1.2342978000006042,['y'],0.9789552000002004,2.0,1016.4144960000003,,,,,506,29,Man,Right,
,,,,,,,,,,,,,,,,,506,29,Man,Right,1,15,0.4,2,180,0,0,0.707629999999881,['y'],1.00334120000025,2.0,1021.3309425000007,,,,,506,29,Man,Right,
,,,,,,,,,,,,,,,,,506,29,Man,Right,1,61,0.15,2,0,180,180,0.7296346000002814,['n'],1.1712109999998574,1.1219999999999999,1026.1146026000006,,,,,506,29,Man,Right,
,,,,,,,,,,,,,,,,,506,29,Man,Right,1,68,0.15,1,0,-,180,0.5224457999993319,['n'],1.1632073000000673,1.282,1030.8471827000003,,,,,506,29,Man,Right,
,,,,,,,,,,,,,,,,,506,29,Man,Right,1,50,0.15,1,180,-,180,0.5817962999999509,['n'],1.6914769000004526,1.182,1036.0307351000001,,,,,506,29,Man,Right,
,,,,,,,,,,,,,,,,,506,29,Man,Right,1,18,0.4,1,180,-,180,0.46819830000004004,['n'],1.651213799999823,1.226,1041.1809481,,,,,506,29,Man,Right,
,,,,,,,,,,,,,,,,,506,29,Man,Right,1,58,0.15,1,180,-,180,0.4317961999995532,['n'],1.6437050000004092,1.278,1046.7808773000006,,,,,506,29,Man,Right,
,,,,,,,,,,,,,,,,,506,29,Man,Right,1,23,0.4,2,180,0,180,0.45546310000008816,['n'],1.1557474000001093,1.3559999999999999,1052.2138466000006,,,,,506,29,Man,Right,
,,,,,,,,,,,,,,,,,506,29,Man,Right,1,30,0.4,1,180,-,180,0.4297536999993099,['n'],0.9797648000003392,1.256,1056.5142644000007,,,,,506,29,Man,Right,
,,,,,,,,,,,,,,,,,506,29,Man,Right,1,56,0.15,1,0,-,180,0.4040037000004304,['n'],2.01140740000028,1.282,1062.1147184000001,,,,,506,29,Man,Right,
,,,,,,,,,,,,,,,,,506,29,Man,Right,1,41,0.4,2,0,180,180,0.4911713999999847,['n'],0.9477467999995497,1.234,1066.4142405000002,,,,,506,29,Man,Right,
,,,,,,,,,,,,,,,,,506,29,Man,Right,1,4,1,1,0,-,0,0.8850555999997596,['n'],0.7079964000004111,1.036,1071.5637223000003,,,,,506,29,Man,Right,
,,,,,,,,,,,,,,,,,506,29,Man,Right,1,9,0.4,2,0,180,180,0.42425679999996646,['n'],2.275289100000009,1.264,1077.5965148000005,,,,,506,29,Man,Right,
,,,,,,,,,,,,,,,,,506,29,Man,Right,1,79,0.15,2,180,0,180,0.9121016999997664,['n'],2.643416700000671,1.236,1084.1137881000004,,,,,506,29,Man,Right,
,,,,,,,,,,,,,,,,,506,29,Man,Right,1,37,0.4,2,0,180,180,0.6109600999998293,['n'],1.6757852999999159,1.096,1089.7299737000003,,,,,506,29,Man,Right,
,,,,,,,,,,,,,,,,,506,29,Man,Right,1,29,0.4,2,0,180,180,0.48321130000022094,['n'],1.980105700000422,1.626,1095.2637482,,,,,506,29,Man,Right,
,,,,,,,,,,,,,,,,,506,29,Man,Right,1,2,1,1,180,-,180,0.8371565999996164,['y'],1.8831983999998556,1.258,1100.7970485000005,,,,,506,29,Man,Right,
,,,,,,,,,,,,,,,,,506,29,Man,Right,1,21,0.4,2,0,180,180,0.6645531000003757,['y'],1.9479620000001887,1.556,1107.4318465000006,,,,,506,29,Man,Right,
,,,,,,,,,,,,,,,,,506,29,Man,Right,1,43,0.4,2,180,0,180,0.3190399000004618,['n'],1.4680974000002607,1.246,1112.7145142000008,,,,,506,29,Man,Right,
,,,,,,,,,,,,,,,,,506,29,Man,Right,1,76,0.15,1,0,-,180,2.3248925999996573,['n'],1.2117721999993591,1.338,1119.1641554000007,,,,,506,29,Man,Right,
,,,,,,,,,,,,,,,,,506,29,Man,Right,1,10,0.4,1,180,-,180,0.31919879999986733,['n'],0.7879966999998942,1.6360000000000001,1123.0967574000006,,,,,506,29,Man,Right,
,,,,,,,,,,,,,,,,,506,29,Man,Right,1,55,0.15,2,180,0,180,0.43283359999986715,['n'],1.1016386999999668,1.29,1127.5798377,,,,,506,29,Man,Right,
,,,,,,,,,,,,,,,,,506,29,Man,Right,1,57,0.15,2,0,180,180,0.4015251000000717,['n'],1.3318029999991268,1.25,1132.2640646,,,,,506,29,Man,Right,
,,,,,,,,,,,,,,,,,506,29,Man,Right,1,1,1,2,0,180,180,1.4917197000004307,['y'],0.9633995999993203,1.6,1137.6131014000002,,,,,506,29,Man,Right,
,,,,,,,,,,,,,,,,,506,29,Man,Right,1,60,0.15,1,0,-,0,1.835550200000398,['n'],1.4993776000001162,1.038,1144.0968265000001,,,,,506,29,Man,Right,
,,,,,,,,,,,,,,,,,506,29,Man,Right,1,38,0.4,1,180,-,180,0.46897790000002715,['n'],0.8114298999998937,1.6680000000000001,1148.3305959000008,,,,,506,29,Man,Right,
,,,,,,,,,,,,,,,,,506,29,Man,Right,1,49,0.15,2,0,180,180,0.4198146999997334,['n'],0.9556889000004958,1.23,1152.3135294000003,,,,,506,29,Man,Right,
,,,,,,,,,,,,,,,,,506,29,Man,Right,1,65,0.15,2,0,180,180,0.5786207999999533,['n'],1.3078422999997201,1.26,1156.9473662,,,,,506,29,Man,Right,
,,,,,,,,,,,,,,,,,506,29,Man,Right,1,26,0.4,1,180,-,180,0.8892306999996435,['n'],1.2515069999999469,1.26,1161.8306351,,,,,506,29,Man,Right,
,,,,,,,,,,,,,,,,,506,29,Man,Right,1,75,0.15,2,180,0,180,4.533124499999758,['n'],1.0355666999994355,1.15,1170.3474964000006,,,,,506,29,Man,Right,
,,,,,,,,,,,,,,,,,506,29,Man,Right,1,52,0.15,1,0,-,180,2.4585528999996313,['n'],1.7075814999998329,1.254,1177.69722,,,,,506,29,Man,Right,
,,,,,,,,,,,,,,,,,506,29,Man,Right,1,28,0.4,1,0,-,0,0.4508181000001059,['n'],1.323276299999634,1.222,1182.4139334000001,,,,,506,29,Man,Right,
,,,,,,,,,,,,,,,,,506,29,Man,Right,1,16,0.4,1,0,-,180,0.39894659999936266,['n'],0.8998267000006308,1.318,1186.6467725000002,,,,,506,29,Man,Right,
,,,,,,,,,,,,,,,,,506,29,Man,Right,1,46,0.15,1,180,-,180,0.45650779999959923,['n'],1.0602119999994102,1.3599999999999999,1192.8132265000004,,,,,506,29,Man,Right,
,,,,,,,,,,,,,,,,,506,29,Man,Right,1,70,0.15,1,180,-,180,0.3070285999992848,['n'],1.108024000000114,1.23,1197.3137127,,,,,506,29,Man,Right,
,,,,,,,,,,,,,,,,,506,29,Man,Right,1,42,0.4,1,180,-,180,0.6123815000000832,['n'],0.6677900000004229,1.3519999999999999,1201.5966727000005,,,,,506,29,Man,Right,
,,,,,,,,,,,,,,,,,506,29,Man,Right,1,45,0.15,2,0,180,180,0.5838948999999047,['n'],1.2039307000004555,1.262,1206.3125242000006,,,,,506,29,Man,Right,
,,,,,,,,,,,,,,,,,506,29,Man,Right,1,53,0.15,2,0,180,180,0.606096599999546,['n'],1.6916779999992286,1.538,1211.9969447000003,,,,,506,29,Man,Right,
,,,,,,,,,,,,,,,,,506,29,Man,Right,1,66,0.15,1,180,-,180,0.35571970000000874,['n'],1.3880103000001327,1.6099999999999999,1216.9471753000007,,,,,506,29,Man,Right,
,,,,,,,,,,,,,,,,,506,29,Man,Right,1,63,0.15,2,180,0,180,0.40006930000072316,['n'],1.8364423000002716,1.528,1223.2132344000001,,,,,506,29,Man,Right,
,,,,,,,,,,,,,,,,,506,29,Man,Right,1,36,0.4,1,0,-,180,0.7950175999994826,['y'],1.356377899999643,1.35,1228.7795141000006,,,,,506,29,Man,Right,
,,,,,,,,,,,,,,,,,506,29,Man,Right,1,6,1,1,180,-,180,0.3784540000006018,['n'],0.47606099999939033,1.968,1233.2465636000006,,,,,506,29,Man,Right,
,,,,,,,,,,,,,,,,,506,29,Man,Right,1,25,0.4,2,0,180,180,0.9933165000002191,['y'],1.1078621999995448,1.75,1238.0638429,,,,,506,29,Man,Right,
,,,,,,,,,,,,,,,,,506,29,Man,Right,1,54,0.15,1,180,-,180,0.6760057999999844,['n'],0.7878995999999461,1.4020000000000001,1242.6134928000001,,,,,506,29,Man,Right,
,,,,,,,,,,,,,,,,,506,29,Man,Right,1,20,0.4,1,0,-,180,0.5992396000001463,['n'],0.9239455999995698,1.304,1247.7125814,,,,,506,29,Man,Right,
,,,,,,,,,,,,,,,,,506,29,Man,Right,1,78,0.15,1,180,-,180,0.46694810000008147,['n'],0.6282514000004085,1.408,1252.5456290000002,,,,,506,29,Man,Right,
,,,,,,,,,,,,,,,,,506,29,Man,Right,1,13,0.4,2,0,180,180,0.3863215000001219,['n'],0.6682997999996587,1.558,1256.7130273000002,,,,,506,29,Man,Right,
,,,,,,,,,,,,,,,,,506,29,Man,Right,1,74,0.15,1,180,-,180,0.3077260000000024,['n'],0.9956781999999293,1.4060000000000001,1262.6797518000003,,,,,506,29,Man,Right,
,,,,,,,,,,,,,,,,,506,29,Man,Right,1,7,1,2,180,0,0,0.7934076000001369,['y'],0.9723693000005369,2.0,1267.2798192,,,,,506,29,Man,Right,
,,,,,,,,,,,,,,,,,506,29,Man,Right,1,32,0.4,1,0,-,0,1.0847506999998586,['n'],0.915973699999995,1.338,1272.8300226000001,,,,,506,29,Man,Right,
,,,,,,,,,,,,,,,,,506,29,Man,Right,1,73,0.15,2,0,180,180,0.47432649999973364,['n'],1.9245528000001286,1.3639999999999999,1278.3791857000006,,,,,506,29,Man,Right,
,,,,,,,,,,,,,,,,,506,29,Man,Right,1,31,0.4,2,180,0,180,0.5844931000001452,['n'],1.0761046999996324,1.0,1283.4795795,,,,,506,29,Man,Right,
,,,,,,,,,,,,,,,,,506,29,Man,Right,1,39,0.4,2,180,0,180,0.6363443999998708,['n'],2.8044475999995484,1.162,1290.6125941,,,,,506,29,Man,Right,
,,,,,,,,,,,,,,,,,506,29,Man,Right,1,22,0.4,1,180,-,180,0.3680247000002055,['n'],0.6361072999998214,1.588,1294.6464172000005,,,,,506,29,Man,Right,
,,,,,,,,,,,,,,,,,506,29,Man,Right,1,47,0.15,2,180,0,180,0.49198919999980717,['n'],1.7723283000004812,1.302,1300.1466848,,,,,506,29,Man,Right,
,,,,,,,,,,,,,,,,,506,29,Man,Right,1,8,0.4,1,0,-,180,0.4518593000002511,['n'],1.0836295999997674,1.33,1305.2459202,,,,,506,29,Man,Right,
,,,,,,,,,,,,,,,,,506,29,Man,Right,1,19,0.4,2,180,0,0,0.5853415000001405,['y'],0.9243677000004027,1.5899999999999999,1310.6133707000008,,,,,506,29,Man,Right,
,,,,,,,,,,,,,,,,,506,29,Man,Right,1,34,0.4,1,180,-,180,0.4293564999998125,['n'],0.58013899999969,1.5739999999999998,1314.5461693000007,,,,,506,29,Man,Right,
,,,,,,,,,,,,,,,,,506,29,Man,Right,1,0,1,1,0,-,180,0.3672465999998167,['n'],0.8036788999997952,1.318,1318.6295690000006,,,,,506,29,Man,Right,
,,,,,,,,,,,,,,,,,506,29,Man,Right,1,5,1,2,0,180,180,1.1631802000001699,['y'],1.372092700000394,1.708,1324.2294763,,,,,506,29,Man,Right,
,,,,,,,,,,,,,,,,,506,29,Man,Right,1,40,0.4,1,0,-,180,0.9546282999999676,['n'],2.0844224000002214,1.342,1330.2791960000004,,,,,506,29,Man,Right,
,,,,,,,,,,,,,,,,,506,29,Man,Right,1,27,0.4,2,180,0,0,0.53090500000053,['y'],0.9246366999996098,1.808,1334.6135044000002,,,,,506,29,Man,Right,
,,,,,,,,,,,,,,,,,506,29,Man,Right,1,48,0.15,1,0,-,180,1.606109700000161,['n'],1.3243121000004976,1.0,1340.9134351000002,,,,,506,29,Man,Right,
,,,,,,,,,,,,,,,,,506,29,Man,Right,1,17,0.4,2,0,180,180,0.6206908999993175,['y'],0.9885431000002427,1.824,1345.4463298,,,,,506,29,Man,Right,
,,,,,,,,,,,,,,,,,506,29,Man,Right,1,64,0.15,1,0,-,180,2.023816199999601,['n'],1.3237809000002017,1.0,1351.7790791000007,,,,,506,29,Man,Right,
,,,,,,,,,,,,,,,,,506,29,Man,Right,1,71,0.15,2,180,0,180,0.38418080000064947,['n'],0.620250599999963,1.248,1355.7793336000004,,,,,506,29,Man,Right,
,,,,,,,,,,,,,,,,,506,29,Man,Right,1,77,0.15,2,0,180,180,1.6558457999999519,['n'],0.7807769000000917,1.258,1361.3965489000002,,,,,506,29,Man,Right,
,,,,,,,,,,,,,,,,,506,29,Man,Right,1,11,0.4,2,180,0,180,1.1430667000004178,['n'],1.1319134000004851,1.166,1366.6794133000003,,,,,506,29,Man,Right,
,,,,,,,,,,,,,,,,,506,29,Man,Right,1,14,0.4,1,180,-,180,0.45020759999988513,['n'],1.0125270999997156,1.704,1371.2969823000003,,,,,506,29,Man,Right,
,,,,,,,,,,,,,,,,,506,29,Man,Right,1,35,0.4,2,180,0,0,0.5838396999997713,['y'],1.052015900000697,1.5859999999999999,1375.9463343000007,,,,,506,29,Man,Right,
,,,,,,,,,,,,,,,,,506,29,Man,Right,2,28,0.4,1,0,-,180,0.6827138000007835,['n'],1.1629401999998663,1.226,1409.3791603000009,62.5,95.0,32.5,,506,29,Man,Right,
,,,,,,,,,,,,,,,,,506,29,Man,Right,2,4,1,1,0,-,180,0.41597790000014356,['n'],0.9819493000004513,1.5899999999999999,1413.8286109,,,,,506,29,Man,Right,
,,,,,,,,,,,,,,,,,506,29,Man,Right,2,42,0.4,1,180,-,180,1.1956615999997666,['n'],1.028479100000368,1.25,1418.7958052000004,,,,,506,29,Man,Right,
,,,,,,,,,,,,,,,,,506,29,Man,Right,2,2,1,1,180,-,180,0.9123697999993965,['n'],1.012584699999934,2.0,1423.4788035000001,,,,,506,29,Man,Right,
,,,,,,,,,,,,,,,,,506,29,Man,Right,2,46,0.15,1,180,-,180,0.6687074000001303,['n'],1.1721723000000566,1.222,1428.1127018000007,,,,,506,29,Man,Right,
,,,,,,,,,,,,,,,,,506,29,Man,Right,2,8,0.4,1,0,-,180,0.7463427000002412,['n'],0.9325413999995362,1.26,1432.5292684000005,,,,,506,29,Man,Right,
,,,,,,,,,,,,,,,,,506,29,Man,Right,2,30,0.4,1,180,-,180,0.3497014999993553,['n'],0.8127150000000256,1.716,1436.2460815000004,,,,,506,29,Man,Right,
,,,,,,,,,,,,,,,,,506,29,Man,Right,2,65,0.15,2,0,180,180,0.5916714000004504,['n'],1.1486002999999982,1.272,1441.0786268000002,,,,,506,29,Man,Right,
,,,,,,,,,,,,,,,,,506,29,Man,Right,2,18,0.4,1,180,-,180,0.16047030000027007,['n'],0.9084962999995696,1.37,1446.1624549000007,,,,,506,29,Man,Right,
,,,,,,,,,,,,,,,,,506,29,Man,Right,2,49,0.15,2,0,180,180,0.30743279999933293,['n'],0.9087295999997878,1.308,1450.0290590000004,,,,,506,29,Man,Right,
,,,,,,,,,,,,,,,,,506,29,Man,Right,2,31,0.4,2,180,0,180,0.5094954999995025,['n'],0.6765081000003192,1.04,1454.7285535,,,,,506,29,Man,Right,
,,,,,,,,,,,,,,,,,506,29,Man,Right,2,79,0.15,2,180,0,180,0.6092781999996078,['n'],0.8928036999996039,1.208,1459.1123257000008,,,,,506,29,Man,Right,
,,,,,,,,,,,,,,,,,506,29,Man,Right,2,26,0.4,1,180,-,180,0.32432909999988624,['n'],0.7086243000003378,1.638,1463.6461749,,,,,506,29,Man,Right,
,,,,,,,,,,,,,,,,,506,29,Man,Right,2,9,0.4,2,0,180,180,0.351513800000248,['n'],0.6768842999999833,1.256,1467.6961985000007,,,,,506,29,Man,Right,
,,,,,,,,,,,,,,,,,506,29,Man,Right,2,19,0.4,2,180,0,0,0.870145699999739,['y'],1.2048215999993772,1.194,1472.5128040000009,,,,,506,29,Man,Right,
,,,,,,,,,,,,,,,,,506,29,Man,Right,2,43,0.4,2,180,0,0,0.6857912000004944,['y'],1.0044460999997682,1.266,1477.2794478000005,,,,,506,29,Man,Right,
,,,,,,,,,,,,,,,,,506,29,Man,Right,2,76,0.15,1,0,-,0,2.7202962000001207,['n'],1.0123191000002407,1.184,1484.2631191,,,,,506,29,Man,Right,
,,,,,,,,,,,,,,,,,506,29,Man,Right,2,32,0.4,1,0,-,180,1.4159254000005603,['n'],1.1464529000004404,1.1480000000000001,1489.8960795000003,,,,,506,29,Man,Right,
,,,,,,,,,,,,,,,,,506,29,Man,Right,2,60,0.15,1,0,-,180,0.8371266999993168,['n'],1.1407006999997975,1.046,1494.9627426000006,,,,,506,29,Man,Right,
,,,,,,,,,,,,,,,,,506,29,Man,Right,2,1,1,2,0,180,180,0.5768861999995352,['y'],1.3164428000000044,1.638,1499.6950572000005,,,,,506,29,Man,Right,
,,,,,,,,,,,,,,,,,506,29,Man,Right,2,3,1,2,180,0,0,0.589032099999713,['y'],1.0207572999997865,2.0,1503.9960640000008,,,,,506,29,Man,Right,
,,,,,,,,,,,,,,,,,506,29,Man,Right,2,61,0.15,2,0,180,180,0.7504700999998022,['n'],0.9645320999998148,1.104,1508.5285214000005,,,,,506,29,Man,Right,
,,,,,,,,,,,,,,,,,506,29,Man,Right,2,15,0.4,2,180,0,0,0.6024504000006345,['y'],0.8366732999993474,1.5979999999999999,1512.5784816000005,,,,,506,29,Man,Right,
,,,,,,,,,,,,,,,,,506,29,Man,Right,2,35,0.4,2,180,0,0,0.5207921000001079,['y'],0.8611784999993688,1.248,1516.6116260000008,,,,,506,29,Man,Right,
,,,,,,,,,,,,,,,,,506,29,Man,Right,2,38,0.4,1,180,-,180,1.0960065999997823,['n'],0.8528322000001936,1.204,1521.3463157000006,,,,,506,29,Man,Right,
,,,,,,,,,,,,,,,,,506,29,Man,Right,2,5,1,2,0,180,180,0.6758358999995835,['y'],1.0126829999999245,1.742,1525.7625572000006,,,,,506,29,Man,Right,
,,,,,,,,,,,,,,,,,506,29,Man,Right,2,77,0.15,2,0,180,180,0.4574614000002839,['y'],0.8123366999998325,1.218,1529.7455542000007,,,,,506,29,Man,Right,
,,,,,,,,,,,,,,,,,506,29,Man,Right,2,41,0.4,2,0,180,180,0.45276639999974577,['y'],0.7564485000002605,1.246,1533.3787403000006,,,,,506,29,Man,Right,
,,,,,,,,,,,,,,,,,506,29,Man,Right,2,63,0.15,2,180,0,180,0.7699810999993133,['n'],1.3010950000007142,1.0939999999999999,1538.3279716000006,,,,,506,29,Man,Right,
,,,,,,,,,,,,,,,,,506,29,Man,Right,2,53,0.15,2,0,180,180,0.6597150000006877,['n'],0.7490809000000809,1.0,1542.6116659000008,,,,,506,29,Man,Right,
,,,,,,,,,,,,,,,,,506,29,Man,Right,2,78,0.15,1,180,-,180,0.4827578000003996,['n'],0.9540053999999145,1.022,1547.6292137,,,,,506,29,Man,Right,
,,,,,,,,,,,,,,,,,506,29,Man,Right,2,12,0.4,1,0,-,0,0.9191681000002063,['n'],2.7171382000005906,1.092,1554.0283176000003,,,,,506,29,Man,Right,
,,,,,,,,,,,,,,,,,506,29,Man,Right,2,56,0.15,1,0,-,180,2.0951168999999936,['n'],1.0530719999997018,1.292,1560.2615765,,,,,506,29,Man,Right,
,,,,,,,,,,,,,,,,,506,29,Man,Right,2,14,0.4,1,180,-,180,0.2934954000002108,['n'],0.8367278999994596,1.23,1564.2954118000007,,,,,506,29,Man,Right,
,,,,,,,,,,,,,,,,,506,29,Man,Right,2,62,0.15,1,180,-,180,0.36476180000045133,['n'],2.580700700000307,1.218,1570.0787608,,,,,506,29,Man,Right,
,,,,,,,,,,,,,,,,,506,29,Man,Right,2,23,0.4,2,180,0,0,0.5902344999994966,['y'],0.7006874999997308,1.638,1574.0956947000004,,,,,506,29,Man,Right,
,,,,,,,,,,,,,,,,,506,29,Man,Right,2,40,0.4,1,0,-,180,0.3815445999998701,['n'],0.9089405999993687,1.154,1578.3456053,,,,,506,29,Man,Right,
,,,,,,,,,,,,,,,,,506,29,Man,Right,2,22,0.4,1,180,-,180,0.6054480000002513,['n'],0.8128240000005462,1.204,1582.6622273000003,,,,,506,29,Man,Right,
,,,,,,,,,,,,,,,,,506,29,Man,Right,2,47,0.15,2,180,0,180,0.9619204000000536,['n'],0.8365881999998237,1.206,1587.2788313,,,,,506,29,Man,Right,
,,,,,,,,,,,,,,,,,506,29,Man,Right,2,17,0.4,2,0,180,0,3.024066199999652,['n'],0.7649719000000914,1.1099999999999999,1593.9947725000002,,,,,506,29,Man,Right,
,,,,,,,,,,,,,,,,,506,29,Man,Right,2,48,0.15,1,0,-,180,0.41168409999954747,['n'],0.7887786000001142,1.168,1598.0782437000007,,,,,506,29,Man,Right,
,,,,,,,,,,,,,,,,,506,29,Man,Right,2,67,0.15,2,180,0,180,1.5382954000006066,['n'],1.4688961000001655,1.194,1603.87856,,,,,506,29,Man,Right,
,,,,,,,,,,,,,,,,,506,29,Man,Right,2,34,0.4,1,180,-,180,0.38284050000038405,['n'],0.6454901999995855,1.234,1607.4794350000002,,,,,506,29,Man,Right,
,,,,,,,,,,,,,,,,,506,29,Man,Right,2,74,0.15,1,180,-,0,0.5911186000002999,['y'],1.1009844000000157,1.164,1611.9457897000002,,,,,506,29,Man,Right,
,,,,,,,,,,,,,,,,,506,29,Man,Right,2,45,0.15,2,0,180,180,0.6034094999995432,['n'],1.269042900000386,1.286,1616.4782332000004,,,,,506,29,Man,Right,
,,,,,,,,,,,,,,,,,506,29,Man,Right,2,21,0.4,2,0,180,180,1.2761975000003076,['n'],1.0765535000000455,1.246,1621.6612497000006,,,,,506,29,Man,Right,
,,,,,,,,,,,,,,,,,506,29,Man,Right,2,13,0.4,2,0,180,180,0.4832752000002074,['n'],0.829336499999954,1.146,1626.7462594000008,,,,,506,29,Man,Right,
,,,,,,,,,,,,,,,,,506,29,Man,Right,2,37,0.4,2,0,180,180,0.3803869000003033,['n'],0.5967099999998027,1.226,1630.6114611000003,,,,,506,29,Man,Right,
,,,,,,,,,,,,,,,,,506,29,Man,Right,2,58,0.15,1,180,-,180,0.4408973999998125,['n'],1.0611650000000736,1.608,1634.7775225000005,,,,,506,29,Man,Right,
,,,,,,,,,,,,,,,,,506,29,Man,Right,2,73,0.15,2,0,180,180,0.5599719000001642,['n'],1.133383600000343,1.328,1639.6612365,,,,,506,29,Man,Right,
,,,,,,,,,,,,,,,,,506,29,Man,Right,2,55,0.15,2,180,0,180,0.9671127999999953,['n'],0.5972258000001602,1.322,1644.3447061000006,,,,,506,29,Man,Right,
,,,,,,,,,,,,,,,,,506,29,Man,Right,2,20,0.4,1,0,-,180,0.4422144999998636,['n'],0.7332844000002297,1.232,1648.3119415,,,,,506,29,Man,Right,
,,,,,,,,,,,,,,,,,506,29,Man,Right,2,66,0.15,1,180,-,180,0.19765410000036354,['n'],0.6215827000005447,1.24,1651.8445978,,,,,506,29,Man,Right,
,,,,,,,,,,,,,,,,,506,29,Man,Right,2,54,0.15,1,180,-,180,0.5758078999997451,['y'],1.4050966000004337,1.228,1656.7443345000002,,,,,506,29,Man,Right,
,,,,,,,,,,,,,,,,,506,29,Man,Right,2,24,0.4,1,0,-,180,0.43612600000051316,['n'],0.6213092999996661,1.216,1660.5613998000008,,,,,506,29,Man,Right,
,,,,,,,,,,,,,,,,,506,29,Man,Right,2,29,0.4,2,0,180,180,0.7568738999998459,['n'],1.548906399999396,1.182,1665.9284227000007,,,,,506,29,Man,Right,
,,,,,,,,,,,,,,,,,506,29,Man,Right,2,72,0.15,1,0,-,180,2.2904128999998647,['n'],0.8290816999997332,1.234,1672.2789203000002,,,,,506,29,Man,Right,
,,,,,,,,,,,,,,,,,506,29,Man,Right,2,71,0.15,2,180,0,180,1.3106478999998217,['n'],0.8772753000002922,1.194,1677.5953103000002,,,,,506,29,Man,Right,
,,,,,,,,,,,,,,,,,506,29,Man,Right,2,51,0.15,2,180,0,180,0.5333105999998224,['n'],0.8527475999999297,1.222,1681.8612021000008,,,,,506,29,Man,Right,
,,,,,,,,,,,,,,,,,506,29,Man,Right,2,36,0.4,1,0,-,180,0.7086926000001768,['n'],1.1652538999996978,1.172,1686.9788281,,,,,506,29,Man,Right,
,,,,,,,,,,,,,,,,,506,29,Man,Right,2,16,0.4,1,0,-,180,0.4052590000001146,['n'],0.5894207999999708,1.228,1690.6610147000001,,,,,506,29,Man,Right,
,,,,,,,,,,,,,,,,,506,29,Man,Right,2,59,0.15,2,180,0,0,1.007513800000197,['n'],0.7813898000003974,1.1480000000000001,1695.2618771000007,,,,,506,29,Man,Right,
,,,,,,,,,,,,,,,,,506,29,Man,Right,2,11,0.4,2,180,0,0,0.49763630000052217,['y'],0.8135234999999739,1.704,1699.3442885000004,,,,,506,29,Man,Right,
,,,,,,,,,,,,,,,,,506,29,Man,Right,2,69,0.15,2,0,180,180,0.39463749999958964,['n'],1.317007000000558,1.146,1703.9448955000007,,,,,506,29,Man,Right,
,,,,,,,,,,,,,,,,,506,29,Man,Right,2,33,0.4,2,0,180,180,0.5962631000002148,['n'],1.2775228000000425,1.282,1708.9952324000005,,,,,506,29,Man,Right,
,,,,,,,,,,,,,,,,,506,29,Man,Right,2,70,0.15,1,180,-,180,0.42627989999982674,['n'],0.5971023000001878,1.262,1712.6616539000006,,,,,506,29,Man,Right,
,,,,,,,,,,,,,,,,,506,29,Man,Right,2,27,0.4,2,180,0,180,0.5501670000003287,['n'],1.8214969999999084,1.6099999999999999,1718.1281504000008,,,,,506,29,Man,Right,
,,,,,,,,,,,,,,,,,506,29,Man,Right,2,44,0.15,1,0,-,180,0.34399350000057893,['n'],0.6130057000000306,1.288,1721.6615069000009,,,,,506,29,Man,Right,
,,,,,,,,,,,,,,,,,506,29,Man,Right,2,57,0.15,2,0,180,180,0.31358819999968546,['n'],0.965709699999934,1.1400000000000001,1725.4621036000008,,,,,506,29,Man,Right,
,,,,,,,,,,,,,,,,,506,29,Man,Right,2,50,0.15,1,180,-,180,0.2866152999995393,['n'],0.46911009999985254,1.25,1730.4780653000007,,,,,506,29,Man,Right,
,,,,,,,,,,,,,,,,,506,29,Man,Right,2,75,0.15,2,180,0,180,0.29389849999915896,['n'],0.6531378999998196,1.556,1734.0773373000002,,,,,506,29,Man,Right,
,,,,,,,,,,,,,,,,,506,29,Man,Right,2,68,0.15,1,0,-,180,1.0466198000003715,['n'],0.7174760999996579,1.092,1739.1455265000004,,,,,506,29,Man,Right,
,,,,,,,,,,,,,,,,,506,29,Man,Right,2,39,0.4,2,180,0,180,0.9661059999998542,['n'],1.082502100000056,1.3519999999999999,1744.5782513000004,,,,,506,29,Man,Right,
,,,,,,,,,,,,,,,,,506,29,Man,Right,2,64,0.15,1,0,-,180,0.4394721999997273,['n'],0.8056540999996287,1.244,1749.4443185,,,,,506,29,Man,Right,
,,,,,,,,,,,,,,,,,506,29,Man,Right,2,52,0.15,1,0,-,180,0.2802908000003299,['n'],0.725015899999562,1.256,1753.3950842000004,,,,,506,29,Man,Right,
,,,,,,,,,,,,,,,,,506,29,Man,Right,2,0,1,1,0,-,180,1.7442928000000393,['n'],2.8536794000001464,1.276,1761.6777791000004,,,,,506,29,Man,Right,
,,,,,,,,,,,,,,,,,506,29,Man,Right,2,6,1,1,180,-,180,0.31852249999974447,['n'],0.7253117000000202,2.0,1765.4613134,,,,,506,29,Man,Right,
,,,,,,,,,,,,,,,,,506,29,Man,Right,2,25,0.4,2,0,180,180,0.33444870000039373,['n'],0.6694241000004695,1.31,1769.4445044000004,,,,,506,29,Man,Right,
,,,,,,,,,,,,,,,,,506,29,Man,Right,2,10,0.4,1,180,-,180,0.22785909999947762,['n'],0.5095352999996976,1.528,1773.8111230000004,,,,,506,29,Man,Right,
,,,,,,,,,,,,,,,,,506,29,Man,Right,2,7,1,2,180,0,0,0.6310729999995601,['y'],0.8136366999997335,2.0,1777.8611386000002,,,,,506,29,Man,Right,
,,,,,,,,,,,,,,,,,506,29,Man,Right,3,15,0.4,2,180,0,0,1.0628695999994306,['n'],1.1173327999995308,1.256,1813.0280150000008,61.25,95.0,30.0,,506,29,Man,Right,
,,,,,,,,,,,,,,,,,506,29,Man,Right,3,57,0.15,2,0,180,180,0.20151129999976547,['n'],1.8614181000002645,1.228,1817.6785981000003,,,,,506,29,Man,Right,
,,,,,,,,,,,,,,,,,506,29,Man,Right,3,14,0.4,1,180,-,180,0.11942670000007638,['n'],0.885371500000474,1.566,1821.8281371000003,,,,,506,29,Man,Right,
,,,,,,,,,,,,,,,,,506,29,Man,Right,3,59,0.15,2,180,0,180,0.09044209999956365,['n'],0.8299877999997989,1.432,1825.7448413000002,,,,,506,29,Man,Right,
,,,,,,,,,,,,,,,,,506,29,Man,Right,3,35,0.4,2,180,0,0,0.5185481999997137,['y'],1.8137164999998276,1.5859999999999999,1830.7944705,,,,,506,29,Man,Right,
,,,,,,,,,,,,,,,,,506,29,Man,Right,3,29,0.4,2,0,180,180,0.5276561999999103,['y'],0.9258483999992677,1.6179999999999999,1835.0781796,,,,,506,29,Man,Right,
,,,,,,,,,,,,,,,,,506,29,Man,Right,3,21,0.4,2,0,180,180,0.7116705999997066,['y'],0.8379567000001771,1.376,1839.3104659,,,,,506,29,Man,Right,
,,,,,,,,,,,,,,,,,506,29,Man,Right,3,67,0.15,2,180,0,0,0.48759960000006686,['y'],0.9014625999998316,1.1560000000000001,1844.1108076,,,,,506,29,Man,Right,
,,,,,,,,,,,,,,,,,506,29,Man,Right,3,39,0.4,2,180,0,0,0.4631325000000288,['y'],0.7654333999998926,1.206,1847.9280859,,,,,506,29,Man,Right,
,,,,,,,,,,,,,,,,,506,29,Man,Right,3,41,0.4,2,0,180,0,1.974911900000734,['y'],1.0213974999996935,1.206,1853.7608175000005,,,,,506,29,Man,Right,
,,,,,,,,,,,,,,,,,506,29,Man,Right,3,31,0.4,2,180,0,0,0.8460853000005955,['y'],1.1258764999993218,1.254,1858.4611699000006,,,,,506,29,Man,Right,
,,,,,,,,,,,,,,,,,506,29,Man,Right,3,5,1,2,0,180,180,0.5499938000002658,['y'],2.4180028999999195,1.33,1864.1454966000001,,,,,506,29,Man,Right,
,,,,,,,,,,,,,,,,,506,29,Man,Right,3,47,0.15,2,180,0,0,0.9649613000001409,['n'],0.9020253999997294,1.162,1868.6112231000006,,,,,506,29,Man,Right,
,,,,,,,,,,,,,,,,,506,29,Man,Right,3,52,0.15,1,0,-,180,1.0022711000001436,['n'],0.9740816000003178,1.294,1873.3944540000002,,,,,506,29,Man,Right,
,,,,,,,,,,,,,,,,,506,29,Man,Right,3,49,0.15,2,0,180,0,1.0019559000002118,['n'],0.9499100000002727,1.244,1878.0603280000005,,,,,506,29,Man,Right,
,,,,,,,,,,,,,,,,,506,29,Man,Right,3,36,0.4,1,0,-,180,0.5115543000001708,['n'],0.8217742000006183,1.252,1882.4280371000004,,,,,506,29,Man,Right,
,,,,,,,,,,,,,,,,,506,29,Man,Right,3,32,0.4,1,0,-,180,0.4664762999991581,['n'],0.8293830000002345,1.182,1886.6286035000003,,,,,506,29,Man,Right,
,,,,,,,,,,,,,,,,,506,29,Man,Right,3,66,0.15,1,180,-,180,0.01677689999996801,['n'],0.8704479999996693,1.24,1890.1111963000003,,,,,506,29,Man,Right,
,,,,,,,,,,,,,,,,,506,29,Man,Right,3,53,0.15,2,0,180,180,0.11111720000008063,['n'],0.8699602000006053,1.284,1893.8100988000006,,,,,506,29,Man,Right,
,,,,,,,,,,,,,,,,,506,29,Man,Right,3,54,0.15,1,180,-,180,0.20073039999988396,['n'],0.9580171000006885,1.172,1897.9111109000005,,,,,506,29,Man,Right,
,,,,,,,,,,,,,,,,,506,29,Man,Right,3,60,0.15,1,0,-,180,0.1888952999997855,['n'],0.637864699999227,1.1179999999999999,1901.5265581000003,,,,,506,29,Man,Right,
,,,,,,,,,,,,,,,,,506,29,Man,Right,3,75,0.15,2,180,0,180,0.35889140000017505,['n'],0.6300466000002416,1.226,1905.1602958000003,,,,,506,29,Man,Right,
,,,,,,,,,,,,,,,,,506,29,Man,Right,3,46,0.15,1,180,-,180,0.26151149999986956,['n'],0.6299639999997453,1.072,1908.6774586000001,,,,,506,29,Man,Right,
,,,,,,,,,,,,,,,,,506,29,Man,Right,3,69,0.15,2,0,180,180,0.3754709000004368,['n'],0.9739454999998998,1.1099999999999999,1912.7944649,,,,,506,29,Man,Right,
,,,,,,,,,,,,,,,,,506,29,Man,Right,3,64,0.15,1,0,-,180,0.6757238000000143,['n'],0.5736469000003126,1.092,1916.7939718000007,,,,,506,29,Man,Right,
,,,,,,,,,,,,,,,,,506,29,Man,Right,3,7,1,2,180,0,0,0.5628329999999551,['y'],0.8139080000000831,2.0,1921.260357,,,,,506,29,Man,Right,
,,,,,,,,,,,,,,,,,506,29,Man,Right,3,45,0.15,2,0,180,180,1.2401167000007263,['n'],0.957985699999881,1.1400000000000001,1926.6602461000002,,,,,506,29,Man,Right,
,,,,,,,,,,,,,,,,,506,29,Man,Right,3,76,0.15,1,0,-,180,0.386385099999643,['n'],0.8300921000000017,1.186,1930.6938983,,,,,506,29,Man,Right,
,,,,,,,,,,,,,,,,,506,29,Man,Right,3,10,0.4,1,180,-,180,0.3926590999999462,['n'],0.9100738000006459,1.572,1934.7598960000005,,,,,506,29,Man,Right,
,,,,,,,,,,,,,,,,,506,29,Man,Right,3,1,1,2,0,180,0,0.8858044000007794,['y'],0.7581029000002673,1.58,1939.7271849000008,,,,,506,29,Man,Right,
,,,,,,,,,,,,,,,,,506,29,Man,Right,3,38,0.4,1,180,-,180,0.8857777999992322,['y'],1.253734699999768,1.1520000000000001,1944.6270772000007,,,,,506,29,Man,Right,
,,,,,,,,,,,,,,,,,506,29,Man,Right,3,23,0.4,2,180,0,0,0.45102180000048975,['y'],0.7579058000001169,1.758,1948.3780240000006,,,,,506,29,Man,Right,
,,,,,,,,,,,,,,,,,506,29,Man,Right,3,18,0.4,1,180,-,180,0.4444628000001103,['n'],1.005764900000031,1.55,1953.1269571000003,,,,,506,29,Man,Right,
,,,,,,,,,,,,,,,,,506,29,Man,Right,3,37,0.4,2,0,180,180,0.5992071000000578,['y'],1.1096187000002828,1.6179999999999999,1957.3942512000003,,,,,506,29,Man,Right,
,,,,,,,,,,,,,,,,,506,29,Man,Right,3,50,0.15,1,180,-,180,0.37706320000052074,['n'],0.7018874000004871,1.1019999999999999,1961.3940064000008,,,,,506,29,Man,Right,
,,,,,,,,,,,,,,,,,506,29,Man,Right,3,13,0.4,2,0,180,180,0.41881370000010065,['n'],0.8460783999998966,1.018,1965.6444115000004,,,,,506,29,Man,Right,
,,,,,,,,,,,,,,,,,506,29,Man,Right,3,30,0.4,1,180,-,180,0.4430970999992496,['n'],0.5736790999999357,1.6179999999999999,1969.9277133000005,,,,,506,29,Man,Right,
,,,,,,,,,,,,,,,,,506,29,Man,Right,3,62,0.15,1,180,-,180,0.3747571000003518,['n'],0.765723500000604,1.626,1973.6105185000006,,,,,506,29,Man,Right,
,,,,,,,,,,,,,,,,,506,29,Man,Right,3,0,1,1,0,-,180,0.32159060000049067,['n'],1.6620932999994693,1.228,1978.4436684000002,,,,,506,29,Man,Right,
,,,,,,,,,,,,,,,,,506,29,Man,Right,3,6,1,1,180,-,180,0.48815039999954024,['n'],0.4381722999996782,1.6280000000000001,1982.2433639,,,,,506,29,Man,Right,
,,,,,,,,,,,,,,,,,506,29,Man,Right,3,2,1,1,180,-,180,0.3622940999994171,['n'],0.7022233999996388,1.762,1985.8103316000006,,,,,506,29,Man,Right,
,,,,,,,,,,,,,,,,,506,29,Man,Right,3,16,0.4,1,0,-,180,0.242628799999693,['n'],0.5018242999994982,1.604,1989.1102931000005,,,,,506,29,Man,Right,
,,,,,,,,,,,,,,,,,506,29,Man,Right,3,71,0.15,2,180,0,180,0.11756719999993948,['n'],0.7183281999996325,1.3479999999999999,1992.8933401000004,,,,,506,29,Man,Right,
,,,,,,,,,,,,,,,,,506,29,Man,Right,3,40,0.4,1,0,-,180,0.23342549999961193,['n'],0.5263748000006672,1.198,1996.0605933000006,,,,,506,29,Man,Right,
,,,,,,,,,,,,,,,,,506,29,Man,Right,3,22,0.4,1,180,-,180,0.35342279999986204,['n'],0.4223202000002857,1.16,1999.3602738000009,,,,,506,29,Man,Right,
,,,,,,,,,,,,,,,,,506,29,Man,Right,3,3,1,2,180,0,0,0.41355920000023616,['y'],0.7422601999996914,2.0,2003.0274523000007,,,,,506,29,Man,Right,
,,,,,,,,,,,,,,,,,506,29,Man,Right,3,34,0.4,1,180,-,180,0.15981860000010784,['n'],0.7181641999995918,1.702,2006.7774425000007,,,,,506,29,Man,Right,
,,,,,,,,,,,,,,,,,506,29,Man,Right,3,77,0.15,2,0,180,180,0.4349337000003288,['n'],0.48615569999947184,1.244,2010.4438942000006,,,,,506,29,Man,Right,
,,,,,,,,,,,,,,,,,506,29,Man,Right,3,19,0.4,2,180,0,0,0.44998370000030263,['y'],0.43132109999987733,1.9,2013.8101098000006,,,,,506,29,Man,Right,
,,,,,,,,,,,,,,,,,506,29,Man,Right,3,26,0.4,1,180,-,180,0.3868546999992759,['n'],0.6543915000002016,1.604,2017.5267669000004,,,,,506,29,Man,Right,
,,,,,,,,,,,,,,,,,506,29,Man,Right,3,33,0.4,2,0,180,180,1.212301600000501,['n'],0.7656592000003002,1.684,2022.1605981000002,,,,,506,29,Man,Right,
,,,,,,,,,,,,,,,,,506,29,Man,Right,3,73,0.15,2,0,180,0,0.7957601999996768,['y'],0.9585728000001836,1.1139999999999999,2026.9940362000007,,,,,506,29,Man,Right,
,,,,,,,,,,,,,,,,,506,29,Man,Right,3,65,0.15,2,0,180,180,0.5215896999998222,['n'],0.6464195999997173,1.212,2031.1276451000003,,,,,506,29,Man,Right,
,,,,,,,,,,,,,,,,,506,29,Man,Right,3,42,0.4,1,180,-,180,0.3086968000006891,['n'],0.5338849999998274,1.21,2035.7603554000007,,,,,506,29,Man,Right,
,,,,,,,,,,,,,,,,,506,29,Man,Right,3,20,0.4,1,0,-,180,0.37341230000038195,['n'],0.9660360000007131,1.616,2041.0762990000003,,,,,506,29,Man,Right,
,,,,,,,,,,,,,,,,,506,29,Man,Right,3,63,0.15,2,180,0,180,0.7592710999997507,['n'],0.8461032000004707,1.312,2045.3945480000002,,,,,506,29,Man,Right,
,,,,,,,,,,,,,,,,,506,29,Man,Right,3,51,0.15,2,180,0,180,0.26440089999960037,['n'],2.310422500000641,1.16,2051.3941911,,,,,506,29,Man,Right,
,,,,,,,,,,,,,,,,,506,29,Man,Right,3,68,0.15,1,0,-,180,0.25967969999965135,['n'],0.5904948999996122,1.228,2055.3102126000003,,,,,506,29,Man,Right,
,,,,,,,,,,,,,,,,,506,29,Man,Right,3,17,0.4,2,0,180,180,0.26043420000041806,['n'],1.1823585000001913,1.238,2060.043745600001,,,,,506,29,Man,Right,
,,,,,,,,,,,,,,,,,506,29,Man,Right,3,25,0.4,2,0,180,180,0.8326655000000756,['n'],0.638062600000012,1.222,2064.3099448000003,,,,,506,29,Man,Right,
,,,,,,,,,,,,,,,,,506,29,Man,Right,3,8,0.4,1,0,-,180,0.16854770000009012,['n'],0.9907918999997491,1.178,2068.3938737000008,,,,,506,29,Man,Right,
,,,,,,,,,,,,,,,,,506,29,Man,Right,3,24,0.4,1,0,-,180,0.44620820000000094,['n'],0.8548220000002402,1.164,2072.3939482000005,,,,,506,29,Man,Right,
,,,,,,,,,,,,,,,,,506,29,Man,Right,3,43,0.4,2,180,0,0,0.6370292999999947,['y'],0.6221612999997888,1.306,2076.5762648,,,,,506,29,Man,Right,
,,,,,,,,,,,,,,,,,506,29,Man,Right,3,78,0.15,1,180,-,180,1.0369582000002993,['n'],1.5503794000005655,1.28,2082.959656700001,,,,,506,29,Man,Right,
,,,,,,,,,,,,,,,,,506,29,Man,Right,3,27,0.4,2,180,0,0,0.5493767999996635,['y'],0.7736731000004511,1.3780000000000001,2087.5267577000004,,,,,506,29,Man,Right,
,,,,,,,,,,,,,,,,,506,29,Man,Right,3,56,0.15,1,0,-,180,0.5037622999998348,['n'],0.7342878999997993,1.258,2091.659890600001,,,,,506,29,Man,Right,
,,,,,,,,,,,,,,,,,506,29,Man,Right,3,4,1,1,0,-,0,0.39577210000061314,['n'],0.9424997000005533,1.54,2095.9271044000006,,,,,506,29,Man,Right,
,,,,,,,,,,,,,,,,,506,29,Man,Right,3,44,0.15,1,0,-,180,0.7143886000003477,['n'],2.6541196000007403,1.28,2102.1767177,,,,,506,29,Man,Right,
,,,,,,,,,,,,,,,,,506,29,Man,Right,3,70,0.15,1,180,-,180,0.32717760000014096,['n'],0.6465452999991612,1.24,2106.2099129000007,,,,,506,29,Man,Right,
,,,,,,,,,,,,,,,,,506,29,Man,Right,3,72,0.15,1,0,-,180,0.4047395999996297,['n'],1.854312000000391,1.268,2111.1271876,,,,,506,29,Man,Right,
,,,,,,,,,,,,,,,,,506,29,Man,Right,3,79,0.15,2,180,0,180,0.3829881999999998,['n'],0.566613299999517,1.198,2115.043346900001,,,,,506,29,Man,Right,
,,,,,,,,,,,,,,,,,506,29,Man,Right,3,9,0.4,2,0,180,180,0.4105896999999459,['n'],0.5585200999994413,1.182,2118.809811700001,,,,,506,29,Man,Right,
,,,,,,,,,,,,,,,,,506,29,Man,Right,3,48,0.15,1,0,-,180,0.7007315999999264,['n'],0.43871869999929913,1.2,2122.8101573000004,,,,,506,29,Man,Right,
,,,,,,,,,,,,,,,,,506,29,Man,Right,3,58,0.15,1,180,-,0,2.570065599999907,['n'],1.8625967999996647,1.184,2130.2089071,,,,,506,29,Man,Right,
,,,,,,,,,,,,,,,,,506,29,Man,Right,3,11,0.4,2,180,0,0,0.6295606000003318,['y'],1.1422112000000197,1.308,2134.8434388000005,,,,,506,29,Man,Right,
,,,,,,,,,,,,,,,,,506,29,Man,Right,3,28,0.4,1,0,-,180,0.3236501000001226,['n'],0.7741992999999638,1.1520000000000001,2138.6433463000003,,,,,506,29,Man,Right,
,,,,,,,,,,,,,,,,,506,29,Man,Right,3,61,0.15,2,0,180,180,0.2252939999998489,['n'],0.8465584999994462,1.162,2142.5424472000004,,,,,506,29,Man,Right,
,,,,,,,,,,,,,,,,,506,29,Man,Right,3,55,0.15,2,180,0,180,0.6324298999998064,['n'],0.5902155000003404,1.176,2146.4769371,,,,,506,29,Man,Right,
,,,,,,,,,,,,,,,,,506,29,Man,Right,3,12,0.4,1,0,-,180,0.48860310000054596,['n'],0.6706158000006326,1.074,2150.5094054,,,,,506,29,Man,Right,
,,,,,,,,,,,,,,,,,506,29,Man,Right,3,74,0.15,1,180,-,180,0.33164940000006027,['n'],1.3580655000005208,1.672,2155.3259172000007,,,,,506,29,Man,Right,
,,,,,,,,,,,,,,,,,506,29,Man,Right,4,57,0.15,2,0,180,180,0.29768739999963145,['n'],1.0543973999992886,1.278,2176.1767791,61.25,97.5,45.0,,506,29,Man,Right,
,,,,,,,,,,,,,,,,,506,29,Man,Right,4,26,0.4,1,180,-,180,0.13474920000044222,['n'],0.8226686000007248,1.696,2179.6259655000003,,,,,506,29,Man,Right,
,,,,,,,,,,,,,,,,,506,29,Man,Right,4,6,1,1,180,-,180,0.29157839999970747,['n'],0.4303220000001602,2.0,2182.8763365000004,,,,,506,29,Man,Right,
,,,,,,,,,,,,,,,,,506,29,Man,Right,4,50,0.15,1,180,-,180,0.2799350000004779,['n'],0.7750050000004194,1.784,2186.4591809000003,,,,,506,29,Man,Right,
,,,,,,,,,,,,,,,,,506,29,Man,Right,4,42,0.4,1,180,-,180,0.38484669999979815,['n'],0.5027405000000726,1.178,2189.9429260000006,,,,,506,29,Man,Right,
,,,,,,,,,,,,,,,,,506,29,Man,Right,4,51,0.15,2,180,0,180,0.3194439999997485,['n'],0.8227118000004339,1.206,2193.593406000001,,,,,506,29,Man,Right,
,,,,,,,,,,,,,,,,,506,29,Man,Right,4,15,0.4,2,180,0,0,1.0067162999994252,['y'],0.9987848000000668,1.554,2198.2103621000006,,,,,506,29,Man,Right,
,,,,,,,,,,,,,,,,,506,29,Man,Right,4,53,0.15,2,0,180,180,0.14798859999973502,['n'],0.5268277000004673,1.298,2201.4767437,,,,,506,29,Man,Right,
,,,,,,,,,,,,,,,,,506,29,Man,Right,4,60,0.15,1,0,-,180,0.06627260000004753,['n'],0.6624244999993607,1.3820000000000001,2205.0594928,,,,,506,29,Man,Right,
,,,,,,,,,,,,,,,,,506,29,Man,Right,4,63,0.15,2,180,0,180,0.02784090000022843,['n'],0.7670724999998129,1.3679999999999999,2208.3258493000003,,,,,506,29,Man,Right,
,,,,,,,,,,,,,,,,,506,29,Man,Right,4,35,0.4,2,180,0,0,0.44127990000015416,['y'],0.7983736000005592,2.0,2212.2263102000006,,,,,506,29,Man,Right,
,,,,,,,,,,,,,,,,,506,29,Man,Right,4,71,0.15,2,180,0,180,0.379084199999852,['n'],0.7104392999999618,1.226,2216.2262194000004,,,,,506,29,Man,Right,
,,,,,,,,,,,,,,,,,506,29,Man,Right,4,9,0.4,2,0,180,0,2.028102100000069,['y'],0.7827821999999287,1.258,2221.7592438,,,,,506,29,Man,Right,
,,,,,,,,,,,,,,,,,506,29,Man,Right,4,68,0.15,1,0,-,180,0.2855905000005805,['n'],0.6305122000003394,1.284,2225.309577,,,,,506,29,Man,Right,
,,,,,,,,,,,,,,,,,506,29,Man,Right,4,48,0.15,1,0,-,0,1.6329100000002654,['n'],0.7508363999995709,1.256,2230.3927607000005,,,,,506,29,Man,Right,
,,,,,,,,,,,,,,,,,506,29,Man,Right,4,10,0.4,1,180,-,180,0.2557468000004519,['n'],0.8944707999999082,1.288,2234.1427507000008,,,,,506,29,Man,Right,
,,,,,,,,,,,,,,,,,506,29,Man,Right,4,66,0.15,1,180,-,180,0.23832880000009027,['n'],0.6227551999991192,1.3359999999999999,2237.693308000001,,,,,506,29,Man,Right,
,,,,,,,,,,,,,,,,,506,29,Man,Right,4,16,0.4,1,0,-,0,0.42335220000040863,['n'],0.5909966999997778,1.3439999999999999,2241.6923905000003,,,,,506,29,Man,Right,
,,,,,,,,,,,,,,,,,506,29,Man,Right,4,29,0.4,2,0,180,180,0.48896849999982805,['y'],0.8707899999999427,1.56,2246.1595381000006,,,,,506,29,Man,Right,
,,,,,,,,,,,,,,,,,506,29,Man,Right,4,24,0.4,1,0,-,0,1.0436403000003338,['n'],0.7827345000005153,1.3319999999999999,2250.7589406000006,,,,,506,29,Man,Right,
,,,,,,,,,,,,,,,,,506,29,Man,Right,4,22,0.4,1,180,-,180,0.601063800000702,['n'],0.2548914999997578,1.342,2254.0596951000007,,,,,506,29,Man,Right,
,,,,,,,,,,,,,,,,,506,29,Man,Right,4,45,0.15,2,0,180,180,0.09811420000005455,['n'],0.5591150999998717,1.284,2257.2755798000007,,,,,506,29,Man,Right,
,,,,,,,,,,,,,,,,,506,29,Man,Right,4,73,0.15,2,0,180,180,0.13619719999951485,['n'],0.6948444000008749,1.304,2260.7592643000007,,,,,506,29,Man,Right,
,,,,,,,,,,,,,,,,,506,29,Man,Right,4,70,0.15,1,180,-,180,0.1024822999997923,['n'],0.4546581000004153,1.312,2263.8589568000007,,,,,506,29,Man,Right,
,,,,,,,,,,,,,,,,,506,29,Man,Right,4,27,0.4,2,180,0,0,0.5660916000006182,['y'],0.7397431999997934,1.554,2267.8266732,,,,,506,29,Man,Right,
,,,,,,,,,,,,,,,,,506,29,Man,Right,4,13,0.4,2,0,180,180,0.3956508000001122,['n'],0.5267660999998043,1.23,2271.3264787000007,,,,,506,29,Man,Right,
,,,,,,,,,,,,,,,,,506,29,Man,Right,4,49,0.15,2,0,180,180,0.01705119999951421,['n'],0.5015370000000985,1.282,2274.2435829000005,,,,,506,29,Man,Right,
,,,,,,,,,,,,,,,,,506,29,Man,Right,4,3,1,2,180,0,0,0.4420153000000937,['y'],0.6305649999994785,2.0,2277.7429295,,,,,506,29,Man,Right,
,,,,,,,,,,,,,,,,,506,29,Man,Right,4,41,0.4,2,0,180,180,0.9010454999997819,['y'],1.2228844999999637,1.254,2282.6264835,,,,,506,29,Man,Right,
,,,,,,,,,,,,,,,,,506,29,Man,Right,4,1,1,2,0,180,180,1.8874163000000408,['y'],1.2546014999998079,1.764,2288.343150500001,,,,,506,29,Man,Right,
,,,,,,,,,,,,,,,,,506,29,Man,Right,4,72,0.15,1,0,-,180,0.3107592999995177,['n'],0.4471678999998403,1.246,2291.6594743000005,,,,,506,29,Man,Right,
,,,,,,,,,,,,,,,,,506,29,Man,Right,4,12,0.4,1,0,-,180,0.3395962000004147,['n'],0.47081580000030954,1.186,2294.9264169000007,,,,,506,29,Man,Right,
,,,,,,,,,,,,,,,,,506,29,Man,Right,4,20,0.4,1,0,-,180,0.23231029999988095,['n'],0.5828719000001001,1.262,2298.3431402000006,,,,,506,29,Man,Right,
,,,,,,,,,,,,,,,,,506,29,Man,Right,4,43,0.4,2,180,0,0,0.4318836000002193,['y'],0.6468101000000388,2.0,2301.8757021,,,,,506,29,Man,Right,
,,,,,,,,,,,,,,,,,506,29,Man,Right,4,65,0.15,2,0,180,180,0.33660630000031233,['n'],0.5508601999999883,1.264,2305.426413800001,,,,,506,29,Man,Right,
,,,,,,,,,,,,,,,,,506,29,Man,Right,4,79,0.15,2,180,0,180,0.2990343000001303,['n'],0.47044129999994766,2.0,2308.7430475,,,,,506,29,Man,Right,
,,,,,,,,,,,,,,,,,506,29,Man,Right,4,4,1,1,0,-,0,0.6539124000000811,['n'],1.2547057000001587,1.298,2313.3094399,,,,,506,29,Man,Right,
,,,,,,,,,,,,,,,,,506,29,Man,Right,4,11,0.4,2,180,0,0,0.47959630000059406,['y'],0.8311712000004263,1.246,2317.292577800001,,,,,506,29,Man,Right,
,,,,,,,,,,,,,,,,,506,29,Man,Right,4,8,0.4,1,0,-,0,0.4556488999996873,['n'],0.6151479000000108,1.252,2321.0261642000005,,,,,506,29,Man,Right,
,,,,,,,,,,,,,,,,,506,29,Man,Right,4,52,0.15,1,0,-,180,0.26136569999925996,['n'],0.566857799999525,1.238,2324.342219,,,,,506,29,Man,Right,
,,,,,,,,,,,,,,,,,506,29,Man,Right,4,38,0.4,1,180,-,180,0.43150690000038594,['n'],0.5273520000000644,1.62,2328.0759565000008,,,,,506,29,Man,Right,
,,,,,,,,,,,,,,,,,506,29,Man,Right,4,47,0.15,2,180,0,180,0.2951490000004924,['n'],0.5990574000006745,1.788,2331.4754424000002,,,,,506,29,Man,Right,
,,,,,,,,,,,,,,,,,506,29,Man,Right,4,56,0.15,1,0,-,180,0.28912559999935183,['n'],0.4950696000005337,1.792,2334.6423195000007,,,,,506,29,Man,Right,
,,,,,,,,,,,,,,,,,506,29,Man,Right,4,30,0.4,1,180,-,180,0.3458557000003566,['n'],0.35891630000060104,1.258,2337.9425006,,,,,506,29,Man,Right,
,,,,,,,,,,,,,,,,,506,29,Man,Right,4,37,0.4,2,0,180,0,0.8554370000001654,['n'],0.4235238000001118,1.29,2341.8929642000003,,,,,506,29,Man,Right,
,,,,,,,,,,,,,,,,,506,29,Man,Right,4,23,0.4,2,180,0,0,0.44945259999985865,['n'],0.614707300000191,1.328,2345.6092013000007,,,,,506,29,Man,Right,
,,,,,,,,,,,,,,,,,506,29,Man,Right,4,69,0.15,2,0,180,180,1.0194449999999051,['n'],0.5107613999998648,1.714,2349.6926204,,,,,506,29,Man,Right,
,,,,,,,,,,,,,,,,,506,29,Man,Right,4,18,0.4,1,180,-,180,0.2584097999997539,['n'],0.44702499999948486,1.782,2353.6757178000007,,,,,506,29,Man,Right,
,,,,,,,,,,,,,,,,,506,29,Man,Right,4,58,0.15,1,180,-,180,0.3146865999997317,['n'],0.5030374000007214,2.0,2356.8759152000002,,,,,506,29,Man,Right,
,,,,,,,,,,,,,,,,,506,29,Man,Right,4,32,0.4,1,0,-,0,0.3841565000002447,['n'],0.6068100000002232,1.374,2360.4929032,,,,,506,29,Man,Right,
,,,,,,,,,,,,,,,,,506,29,Man,Right,4,77,0.15,2,0,180,180,0.5733742000002167,['n'],0.5668630999998641,1.33,2364.4092402000006,,,,,506,29,Man,Right,
,,,,,,,,,,,,,,,,,506,29,Man,Right,4,40,0.4,1,0,-,180,0.36008140000012645,['n'],0.790846099999726,1.29,2368.642495100001,,,,,506,29,Man,Right,
,,,,,,,,,,,,,,,,,506,29,Man,Right,4,33,0.4,2,0,180,180,0.524208599999838,['n'],0.5828725999999733,1.392,2372.4756237,,,,,506,29,Man,Right,
,,,,,,,,,,,,,,,,,506,29,Man,Right,4,44,0.15,1,0,-,180,0.07400150000012218,['n'],0.4628787999999986,1.32,2375.4762564000002,,,,,506,29,Man,Right,
,,,,,,,,,,,,,,,,,506,29,Man,Right,4,78,0.15,1,180,-,180,0.06428839999989577,['n'],0.686837000000196,1.338,2378.8752215000004,,,,,506,29,Man,Right,
,,,,,,,,,,,,,,,,,506,29,Man,Right,4,17,0.4,2,0,180,180,0.38045919999967737,['y'],1.2230176000002757,1.25,2383.7924755000004,,,,,506,29,Man,Right,
,,,,,,,,,,,,,,,,,506,29,Man,Right,4,39,0.4,2,180,0,180,2.1830678999995143,['n'],0.4861338999999134,1.236,2388.9256254,,,,,506,29,Man,Right,
,,,,,,,,,,,,,,,,,506,29,Man,Right,4,7,1,2,180,0,0,0.4319085000006453,['y'],0.6713235999995959,2.0,2392.5762697,,,,,506,29,Man,Right,
,,,,,,,,,,,,,,,,,506,29,Man,Right,4,34,0.4,1,180,-,180,0.3726525000001857,['n'],0.599455499999749,2.0,2395.9428395000004,,,,,506,29,Man,Right,
,,,,,,,,,,,,,,,,,506,29,Man,Right,4,28,0.4,1,0,-,0,0.5840409000002182,['n'],0.8070333000005121,1.164,2399.9749108000005,,,,,506,29,Man,Right,
,,,,,,,,,,,,,,,,,506,29,Man,Right,4,46,0.15,1,180,-,180,0.3021658000006937,['n'],0.47091100000034203,1.278,2403.4083234,,,,,506,29,Man,Right,
,,,,,,,,,,,,,,,,,506,29,Man,Right,4,2,1,1,180,-,180,0.2860689999997703,['n'],0.41500379999979486,2.0,2406.558425800001,,,,,506,29,Man,Right,
,,,,,,,,,,,,,,,,,506,29,Man,Right,4,14,0.4,1,180,-,180,0.27814829999988433,['n'],0.4390438999998878,2.0,2409.6259666000005,,,,,506,29,Man,Right,
,,,,,,,,,,,,,,,,,506,29,Man,Right,4,55,0.15,2,180,0,0,1.4432473999995636,['y'],1.055816699999923,1.174,2415.4918235000005,,,,,506,29,Man,Right,
,,,,,,,,,,,,,,,,,506,29,Man,Right,4,25,0.4,2,0,180,180,1.1578582000001916,['n'],0.7515171000004557,1.25,2420.0091829000003,,,,,506,29,Man,Right,
,,,,,,,,,,,,,,,,,506,29,Man,Right,4,19,0.4,2,180,0,0,1.5660433999992165,['y'],0.7352851000005103,1.244,2425.3424042000006,,,,,506,29,Man,Right,
,,,,,,,,,,,,,,,,,506,29,Man,Right,4,54,0.15,1,180,-,180,0.6145943000001353,['n'],0.6554523000004338,1.254,2429.1586795000003,,,,,506,29,Man,Right,
,,,,,,,,,,,,,,,,,506,29,Man,Right,4,74,0.15,1,180,-,180,1.6231877999998687,['n'],0.5112604000005376,1.288,2433.7754395,,,,,506,29,Man,Right,
,,,,,,,,,,,,,,,,,506,29,Man,Right,4,75,0.15,2,180,0,180,0.10235539999939647,['n'],0.43907099999978527,1.288,2436.8089338,,,,,506,29,Man,Right,
,,,,,,,,,,,,,,,,,506,29,Man,Right,4,5,1,2,0,180,180,0.9502849000000424,['y'],0.9032148000005691,2.0,2441.059398900001,,,,,506,29,Man,Right,
,,,,,,,,,,,,,,,,,506,29,Man,Right,4,36,0.4,1,0,-,0,0.5136508999994476,['n'],0.6315365000000384,1.3599999999999999,2444.8259367,,,,,506,29,Man,Right,
,,,,,,,,,,,,,,,,,506,29,Man,Right,4,67,0.15,2,180,0,180,0.43668179999986023,['n'],0.455721999999696,1.252,2448.758628400001,,,,,506,29,Man,Right,
,,,,,,,,,,,,,,,,,506,29,Man,Right,4,64,0.15,1,0,-,180,0.3116007999997237,['n'],0.6475171000001865,1.226,2452.1749180000006,,,,,506,29,Man,Right,
,,,,,,,,,,,,,,,,,506,29,Man,Right,4,0,1,1,0,-,180,0.414938599999914,['n'],0.5592125000002852,1.244,2455.5415539000005,,,,,506,29,Man,Right,
,,,,,,,,,,,,,,,,,506,29,Man,Right,4,76,0.15,1,0,-,180,0.22389819999989413,['n'],0.35986940000020695,1.222,2458.4745325000004,,,,,506,29,Man,Right,
,,,,,,,,,,,,,,,,,506,29,Man,Right,4,21,0.4,2,0,180,180,0.6977959000005285,['n'],0.8630592999998044,1.166,2462.7580201,,,,,506,29,Man,Right,
,,,,,,,,,,,,,,,,,506,29,Man,Right,4,59,0.15,2,180,0,180,0.21548400000028778,['n'],0.3273172999997769,1.1360000000000001,2465.6586726000005,,,,,506,29,Man,Right,
,,,,,,,,,,,,,,,,,506,29,Man,Right,4,31,0.4,2,180,0,0,0.6348273000003246,['y'],0.927474600000096,1.278,2469.7253184,,,,,506,29,Man,Right,
,,,,,,,,,,,,,,,,,506,29,Man,Right,4,61,0.15,2,0,180,180,0.2653216999997312,['n'],0.3914624000008189,1.542,2473.0086361000003,,,,,506,29,Man,Right,
,,,,,,,,,,,,,,,,,506,29,Man,Right,4,62,0.15,1,180,-,180,0.17333489999964513,['n'],0.311621699999705,1.38,2476.4256664000004,,,,,506,29,Man,Right,
,,,,,,,,,,,,,,,,,506,29,Man,Right,5,46,0.15,1,180,-,180,0.1477682000004279,['n'],0.7993211000002702,2.0,2483.4417803000006,71.25,100.0,40.0,,506,29,Man,Right,
,,,,,,,,,,,,,,,,,506,29,Man,Right,5,44,0.15,1,0,-,180,0.1475325999999768,['n'],0.775599699999475,2.0,2486.8251422000003,,,,,506,29,Man,Right,
,,,,,,,,,,,,,,,,,506,29,Man,Right,5,37,0.4,2,0,180,180,0.8424915000005058,['n'],0.7596567000000505,1.282,2490.9919789000005,,,,,506,29,Man,Right,
,,,,,,,,,,,,,,,,,506,29,Man,Right,5,16,0.4,1,0,-,180,0.5016436000005342,['n'],0.6392252999994525,2.0,2494.575428,,,,,506,29,Man,Right,
,,,,,,,,,,,,,,,,,506,29,Man,Right,5,63,0.15,2,180,0,180,0.07878280000022642,['n'],0.36760400000002846,2.0,2497.7093164000007,,,,,506,29,Man,Right,
,,,,,,,,,,,,,,,,,506,29,Man,Right,5,62,0.15,1,180,-,180,1.960251900000003,['n'],0.8313511000005747,2.0,2503.1250698000003,,,,,506,29,Man,Right,
,,,,,,,,,,,,,,,,,506,29,Man,Right,5,75,0.15,2,180,0,180,0.3161039000005985,['n'],0.6425085000000763,2.0,2506.6092197000007,,,,,506,29,Man,Right,
,,,,,,,,,,,,,,,,,506,29,Man,Right,5,65,0.15,2,0,180,180,0.4560510000001159,['n'],0.7355403000001388,2.0,2510.5256008000006,,,,,506,29,Man,Right,
,,,,,,,,,,,,,,,,,506,29,Man,Right,5,22,0.4,1,180,-,180,0.39840100000037637,['n'],0.5198911000006774,1.354,2514.2583285,,,,,506,29,Man,Right,
,,,,,,,,,,,,,,,,,506,29,Man,Right,5,74,0.15,1,180,-,180,0.34943180000027496,['n'],0.7437749999999141,1.706,2518.3587961000003,,,,,506,29,Man,Right,
,,,,,,,,,,,,,,,,,506,29,Man,Right,5,49,0.15,2,0,180,180,0.31324620000032155,['n'],0.36724839999988035,1.702,2521.5923293000005,,,,,506,29,Man,Right,
,,,,,,,,,,,,,,,,,506,29,Man,Right,5,66,0.15,1,180,-,180,0.2783140999999887,['n'],0.2874976000002789,1.3639999999999999,2524.6912327,,,,,506,29,Man,Right,
,,,,,,,,,,,,,,,,,506,29,Man,Right,5,36,0.4,1,0,-,180,0.3298440999997183,['n'],0.5034111999993911,1.68,2528.0751616000007,,,,,506,29,Man,Right,
,,,,,,,,,,,,,,,,,506,29,Man,Right,5,19,0.4,2,180,0,0,1.1237569000004441,['y'],0.7995667000004687,1.26,2532.6417260000007,,,,,506,29,Man,Right,
,,,,,,,,,,,,,,,,,506,29,Man,Right,5,32,0.4,1,0,-,180,0.33895290000054956,['n'],0.44761670000025333,1.268,2536.0244259,,,,,506,29,Man,Right,
,,,,,,,,,,,,,,,,,506,29,Man,Right,5,41,0.4,2,0,180,180,0.15110329999970418,['n'],0.8557079000001977,1.326,2539.3087757000003,,,,,506,29,Man,Right,
,,,,,,,,,,,,,,,,,506,29,Man,Right,5,0,1,1,0,-,0,0.4894376000002012,['n'],0.7114143999997395,1.282,2542.9245711000003,,,,,506,29,Man,Right,
,,,,,,,,,,,,,,,,,506,29,Man,Right,5,17,0.4,2,0,180,180,0.4092596999998932,['n'],0.46325830000023416,1.276,2546.4910428000003,,,,,506,29,Man,Right,
,,,,,,,,,,,,,,,,,506,29,Man,Right,5,53,0.15,2,0,180,180,0.19017749999966327,['n'],0.5117021999994904,1.29,2549.8256280000005,,,,,506,29,Man,Right,
,,,,,,,,,,,,,,,,,506,29,Man,Right,5,70,0.15,1,180,-,180,0.17386249999981374,['n'],0.26376670000081504,1.258,2552.5749868000003,,,,,506,29,Man,Right,
,,,,,,,,,,,,,,,,,506,29,Man,Right,5,38,0.4,1,180,-,180,0.3512393000000884,['n'],0.3439798999997947,1.276,2555.6420455000007,,,,,506,29,Man,Right,
,,,,,,,,,,,,,,,,,506,29,Man,Right,5,42,0.4,1,180,-,180,0.13031359999968117,['n'],0.3277244000000792,1.176,2558.524690800001,,,,,506,29,Man,Right,
,,,,,,,,,,,,,,,,,506,29,Man,Right,5,1,1,2,0,180,180,0.8648044000001391,['y'],1.0319657000000007,2.0,2562.9749583000003,,,,,506,29,Man,Right,
,,,,,,,,,,,,,,,,,506,29,Man,Right,5,48,0.15,1,0,-,0,0.7328741999999693,['n'],1.1026338000001488,2.0,2567.3915875000002,,,,,506,29,Man,Right,
,,,,,,,,,,,,,,,,,506,29,Man,Right,5,51,0.15,2,180,0,180,0.18129159999989497,['n'],0.5995444000000134,1.6640000000000001,2571.1248633000005,,,,,506,29,Man,Right,
,,,,,,,,,,,,,,,,,506,29,Man,Right,5,12,0.4,1,0,-,0,0.3924245999996856,['n'],0.4075901000005615,1.57,2574.5240822000005,,,,,506,29,Man,Right,
,,,,,,,,,,,,,,,,,506,29,Man,Right,5,72,0.15,1,0,-,0,0.39403199999924254,['n'],0.49549150000075315,1.716,2577.9581508,,,,,506,29,Man,Right,
,,,,,,,,,,,,,,,,,506,29,Man,Right,5,57,0.15,2,0,180,0,0.4059622999993735,['n'],1.327944600000592,2.0,2582.4913843000004,,,,,506,29,Man,Right,
,,,,,,,,,,,,,,,,,506,29,Man,Right,5,24,0.4,1,0,-,0,0.33251129999916884,['n'],0.419722599999659,1.624,2585.825818200001,,,,,506,29,Man,Right,
,,,,,,,,,,,,,,,,,506,29,Man,Right,5,52,0.15,1,0,-,180,0.2616496000000552,['n'],0.5356066000003921,1.754,2589.0411161,,,,,506,29,Man,Right,
,,,,,,,,,,,,,,,,,506,29,Man,Right,5,68,0.15,1,0,-,180,0.1650841999999102,['n'],0.5676142000002073,2.0,2592.3077350000003,,,,,506,29,Man,Right,
,,,,,,,,,,,,,,,,,506,29,Man,Right,5,79,0.15,2,180,0,180,0.13629259999925125,['n'],0.7359567000003153,2.0,2595.7420933000003,,,,,506,29,Man,Right,
,,,,,,,,,,,,,,,,,506,29,Man,Right,5,26,0.4,1,180,-,180,0.27138879999984056,['n'],0.48750659999950585,1.418,2599.5582116000005,,,,,506,29,Man,Right,
,,,,,,,,,,,,,,,,,506,29,Man,Right,5,71,0.15,2,180,0,180,0.5723176000001331,['n'],0.5598436999998739,1.21,2603.4255577000004,,,,,506,29,Man,Right,
,,,,,,,,,,,,,,,,,506,29,Man,Right,5,40,0.4,1,0,-,180,0.04388030000063736,['n'],0.4479594000003999,1.112,2606.6747463,,,,,506,29,Man,Right,
,,,,,,,,,,,,,,,,,506,29,Man,Right,5,50,0.15,1,180,-,180,0.37193610000031185,['n'],0.679565299999922,1.728,2610.1749112000007,,,,,506,29,Man,Right,
,,,,,,,,,,,,,,,,,506,29,Man,Right,5,47,0.15,2,180,0,180,0.017008800000439805,['n'],0.4388603999996121,1.43,2613.1743400000005,,,,,506,29,Man,Right,
,,,,,,,,,,,,,,,,,506,29,Man,Right,5,14,0.4,1,180,-,180,0.1598682000003464,['n'],0.4079423000002862,1.298,2616.1414720000002,,,,,506,29,Man,Right,
,,,,,,,,,,,,,,,,,506,29,Man,Right,5,73,0.15,2,0,180,180,0.1120255999994697,['n'],0.33595249999962107,1.284,2618.9913806000004,,,,,506,29,Man,Right,
,,,,,,,,,,,,,,,,,506,29,Man,Right,5,3,1,2,180,0,0,0.9432989999995698,['y'],0.6877211000000898,2.0,2623.7414115,,,,,506,29,Man,Right,
,,,,,,,,,,,,,,,,,506,29,Man,Right,5,76,0.15,1,0,-,180,0.01801930000056018,['n'],0.452390600000399,1.4,2626.8411684000002,,,,,506,29,Man,Right,
,,,,,,,,,,,,,,,,,506,29,Man,Right,5,33,0.4,2,0,180,180,1.1584305999995195,['y'],0.8716008000001239,1.22,2631.525603,,,,,506,29,Man,Right,
,,,,,,,,,,,,,,,,,506,29,Man,Right,5,29,0.4,2,0,180,180,1.0257811000001311,['y'],1.1202540000003864,1.208,2636.5588316000003,,,,,506,29,Man,Right,
,,,,,,,,,,,,,,,,,506,29,Man,Right,5,9,0.4,2,0,180,180,0.31315360000007786,['n'],0.8159987999997611,1.77,2640.642033,,,,,506,29,Man,Right,
,,,,,,,,,,,,,,,,,506,29,Man,Right,5,34,0.4,1,180,-,180,0.12395209999976942,['n'],0.7759082000002309,1.19,2644.1582542000006,,,,,506,29,Man,Right,
,,,,,,,,,,,,,,,,,506,29,Man,Right,5,60,0.15,1,0,-,180,0.11360209999929793,['n'],0.6957093000000896,2.0,2647.475578400001,,,,,506,29,Man,Right,
,,,,,,,,,,,,,,,,,506,29,Man,Right,5,61,0.15,2,0,180,180,0.016739600000619248,['n'],0.7024019999998927,2.0,2650.7581495000004,,,,,506,29,Man,Right,
,,,,,,,,,,,,,,,,,506,29,Man,Right,5,31,0.4,2,180,0,180,0.47816249999959837,['y'],1.0958108000004358,1.186,2654.9084816000004,,,,,506,29,Man,Right,
,,,,,,,,,,,,,,,,,506,29,Man,Right,5,13,0.4,2,0,180,0,3.329984599999989,['n'],0.5600924999998824,1.1560000000000001,2661.2417716,,,,,506,29,Man,Right,
,,,,,,,,,,,,,,,,,506,29,Man,Right,5,11,0.4,2,180,0,0,2.109003099999427,['n'],0.5515382000003228,1.142,2666.5414871000003,,,,,506,29,Man,Right,
,,,,,,,,,,,,,,,,,506,29,Man,Right,5,54,0.15,1,180,-,180,0.29101639999953477,['n'],0.5514895000005708,2.0,2669.9080066000006,,,,,506,29,Man,Right,
,,,,,,,,,,,,,,,,,506,29,Man,Right,5,27,0.4,2,180,0,180,0.5605580999999802,['n'],0.6161902000003465,1.1480000000000001,2673.5921807000004,,,,,506,29,Man,Right,
,,,,,,,,,,,,,,,,,506,29,Man,Right,5,8,0.4,1,0,-,180,0.37633570000070904,['n'],0.5919361000005665,2.0,2677.0573394000003,,,,,506,29,Man,Right,
,,,,,,,,,,,,,,,,,506,29,Man,Right,5,45,0.15,2,0,180,180,0.45961329999954614,['n'],0.3917447000003449,2.0,2680.4413254,,,,,506,29,Man,Right,
,,,,,,,,,,,,,,,,,506,29,Man,Right,5,28,0.4,1,0,-,180,0.18671069999982137,['n'],0.47199079999973037,1.28,2683.6414179000003,,,,,506,29,Man,Right,
,,,,,,,,,,,,,,,,,506,29,Man,Right,5,78,0.15,1,180,-,180,0.2826817999994091,['n'],0.44070860000010725,1.6520000000000001,2687.224574600001,,,,,506,29,Man,Right,
,,,,,,,,,,,,,,,,,506,29,Man,Right,5,59,0.15,2,180,0,180,0.18636629999946308,['n'],0.39197300000068935,2.0,2690.4244900000003,,,,,506,29,Man,Right,
,,,,,,,,,,,,,,,,,506,29,Man,Right,5,55,0.15,2,180,0,180,0.18740009999964968,['n'],0.8642057999995814,2.0,2693.9911060000004,,,,,506,29,Man,Right,
,,,,,,,,,,,,,,,,,506,29,Man,Right,5,18,0.4,1,180,-,180,0.3083859999997003,['n'],0.44038670000009006,2.0,2697.1255177000003,,,,,506,29,Man,Right,
,,,,,,,,,,,,,,,,,506,29,Man,Right,5,6,1,1,180,-,180,0.2947088000000804,['n'],0.5760662000002412,2.0,2700.5078031000003,,,,,506,29,Man,Right,
,,,,,,,,,,,,,,,,,506,29,Man,Right,5,4,1,1,0,-,0,0.3607047999994393,['n'],0.6159243000001879,2.0,2703.9248704,,,,,506,29,Man,Right,
,,,,,,,,,,,,,,,,,506,29,Man,Right,5,25,0.4,2,0,180,180,0.5326828999995996,['y'],0.79541590000008,1.246,2707.7574328,,,,,506,29,Man,Right,
,,,,,,,,,,,,,,,,,506,29,Man,Right,5,39,0.4,2,180,0,180,0.5909369999999399,['n'],0.6878646999994089,1.142,2711.6416028000003,,,,,506,29,Man,Right,
,,,,,,,,,,,,,,,,,506,29,Man,Right,5,64,0.15,1,0,-,180,0.28969019999931334,['n'],0.6478242000002865,2.0,2715.0409949000004,,,,,506,29,Man,Right,
,,,,,,,,,,,,,,,,,506,29,Man,Right,5,67,0.15,2,180,0,180,0.3087702000002537,['n'],0.39216789999954926,1.302,2718.490956400001,,,,,506,29,Man,Right,
,,,,,,,,,,,,,,,,,506,29,Man,Right,5,56,0.15,1,0,-,180,0.33549050000056013,['n'],0.4720471999999063,1.282,2721.8736197000007,,,,,506,29,Man,Right,
,,,,,,,,,,,,,,,,,506,29,Man,Right,5,21,0.4,2,0,180,180,0.38056130000040866,['n'],0.5196494000001621,1.722,2725.6746224000008,,,,,506,29,Man,Right,
,,,,,,,,,,,,,,,,,506,29,Man,Right,5,10,0.4,1,180,-,180,0.22626750000017637,['n'],0.36801399999967543,1.47,2729.0744640000003,,,,,506,29,Man,Right,
,,,,,,,,,,,,,,,,,506,29,Man,Right,5,30,0.4,1,180,-,180,0.2247706999996808,['n'],0.3924692000000505,1.366,2732.140955600001,,,,,506,29,Man,Right,
,,,,,,,,,,,,,,,,,506,29,Man,Right,5,2,1,1,180,-,180,0.3127996000002895,['n'],0.6084164000003511,2.0,2735.4406495000003,,,,,506,29,Man,Right,
,,,,,,,,,,,,,,,,,506,29,Man,Right,5,15,0.4,2,180,0,0,0.7215862999992169,['y'],0.824165300000459,1.17,2739.7086096000003,,,,,506,29,Man,Right,
,,,,,,,,,,,,,,,,,506,29,Man,Right,5,35,0.4,2,180,0,0,0.9052644999992481,['y'],0.44840910000039,1.572,2743.5744515000006,,,,,506,29,Man,Right,
,,,,,,,,,,,,,,,,,506,29,Man,Right,5,58,0.15,1,180,-,180,0.6492392000000109,['n'],0.6444302999998399,1.3,2747.3409292000006,,,,,506,29,Man,Right,
,,,,,,,,,,,,,,,,,506,29,Man,Right,5,77,0.15,2,0,180,0,1.3041604000000007,['n'],0.4645133000003625,1.282,2751.6418871000005,,,,,506,29,Man,Right,
,,,,,,,,,,,,,,,,,506,29,Man,Right,5,69,0.15,2,0,180,180,0.45185979999951087,['n'],0.4717728999994506,1.68,2755.2745172000004,,,,,506,29,Man,Right,
,,,,,,,,,,,,,,,,,506,29,Man,Right,5,43,0.4,2,180,0,0,0.47645829999964917,['y'],0.7198779999998806,1.24,2759.124984,,,,,506,29,Man,Right,
,,,,,,,,,,,,,,,,,506,29,Man,Right,5,5,1,2,0,180,180,1.2074150999997073,['y'],1.0242230999992898,1.558,2764.2415317000005,,,,,506,29,Man,Right,
,,,,,,,,,,,,,,,,,506,29,Man,Right,5,7,1,2,180,0,0,0.7492520999994667,['y'],0.7186535000000731,2.0,2768.2579662000007,,,,,506,29,Man,Right,
,,,,,,,,,,,,,,,,,506,29,Man,Right,5,23,0.4,2,180,0,0,0.6339413000005152,['y'],0.6321775999995225,1.742,2771.9418135000005,,,,,506,29,Man,Right,
,,,,,,,,,,,,,,,,,506,29,Man,Right,5,20,0.4,1,0,-,180,0.4810172999996212,['n'],0.6081641999999192,1.252,2775.4912324000006,,,,,506,29,Man,Right,
,,,,,,,,,,,,,,,,,,,,,,,,,,,,,,,,,63.75,100.0,32.5,2387.0517468999997,,,,,
