p_block,p_section,p_coherence,p_direction1,p_direction2,p_direction_response,p_direction_RT,p_change_response,p_change_RT,p_confidence,p_full_correct,p_without5_correct,p_full_total,p_without5_total,p_full_avg,p_witout5_avg,p_total_time,sub,age,sex,handedness,loop,trial randomization,coherence,condition,direction1,direction2,direction_response,direction_RT,change_response,change_RT,change_confidence,change_confidence_RT,block_direction_avg,block_stable_avg,block_change_avg,total_time,sub,age,sex,handedness,
1,1,1.0,0,-,0,1.9390687000013713,-,-,-,,,,,,,,504,19,Woman,Left,,,,,,,,,,,,,,,,,504,19,Woman,Left,
1,1,1.0,180,-,180,0.26372669999909704,-,-,-,,,,,,,,504,19,Woman,Left,,,,,,,,,,,,,,,,,504,19,Woman,Left,
1,1,1.0,0,-,0,0.2877741000011156,-,-,-,,,,,,,,504,19,Woman,Left,,,,,,,,,,,,,,,,,504,19,Woman,Left,
1,1,1.0,0,-,0,0.27081270000053337,-,-,-,,,,,,,,504,19,Woman,Left,,,,,,,,,,,,,,,,,504,19,Woman,Left,
1,1,1.0,180,-,180,0.2702436999970814,-,-,-,,,,,,,,504,19,Woman,Left,,,,,,,,,,,,,,,,,504,19,Woman,Left,
1,1,1.0,180,-,180,0.374256900002365,-,-,-,,,,,,,,504,19,Woman,Left,,,,,,,,,,,,,,,,,504,19,Woman,Left,
1,1,1.0,180,-,180,0.19300359999760985,-,-,-,,,,,,,,504,19,Woman,Left,,,,,,,,,,,,,,,,,504,19,Woman,Left,
1,1,1.0,180,-,180,0.4200985999996192,-,-,-,,,,,,,,504,19,Woman,Left,,,,,,,,,,,,,,,,,504,19,Woman,Left,
1,1,1.0,180,-,180,0.2531559000017296,-,-,-,,,,,,,,504,19,Woman,Left,,,,,,,,,,,,,,,,,504,19,Woman,Left,
1,1,1.0,180,-,180,0.016905300002690637,-,-,-,10,10,10,10,1.0,1.0,,504,19,Woman,Left,,,,,,,,,,,,,,,,,504,19,Woman,Left,
2,1,0.15,180,-,180,1.2758810999985144,-,-,-,,,,,,,,504,19,Woman,Left,,,,,,,,,,,,,,,,,504,19,Woman,Left,
2,1,0.4,0,-,0,0.7952595999995538,-,-,-,,,,,,,,504,19,Woman,Left,,,,,,,,,,,,,,,,,504,19,Woman,Left,
2,1,0.4,0,-,0,1.006862900001579,-,-,-,,,,,,,,504,19,Woman,Left,,,,,,,,,,,,,,,,,504,19,Woman,Left,
2,1,0.15,180,-,180,1.6084429000002274,-,-,-,,,,,,,,504,19,Woman,Left,,,,,,,,,,,,,,,,,504,19,Woman,Left,
2,1,0.4,0,-,0,0.3385796999973536,-,-,-,,,,,,,,504,19,Woman,Left,,,,,,,,,,,,,,,,,504,19,Woman,Left,
2,1,0.15,180,-,180,0.5592432000012195,-,-,-,,,,,,,,504,19,Woman,Left,,,,,,,,,,,,,,,,,504,19,Woman,Left,
2,1,0.4,180,-,0,0.7869444999996631,-,-,-,,,,,,,,504,19,Woman,Left,,,,,,,,,,,,,,,,,504,19,Woman,Left,
2,1,0.15,180,-,180,0.3094363999989582,-,-,-,,,,,,,,504,19,Woman,Left,,,,,,,,,,,,,,,,,504,19,Woman,Left,
2,1,0.15,180,-,180,0.3166372000014235,-,-,-,,,,,,,,504,19,Woman,Left,,,,,,,,,,,,,,,,,504,19,Woman,Left,
2,1,0.15,0,-,0,0.24867639999865787,-,-,-,,,,,,,,504,19,Woman,Left,,,,,,,,,,,,,,,,,504,19,Woman,Left,
2,1,0.4,0,-,0,0.2967904999968596,-,-,-,,,,,,,,504,19,Woman,Left,,,,,,,,,,,,,,,,,504,19,Woman,Left,
2,1,0.15,0,-,0,0.24769620000006398,-,-,-,,,,,,,,504,19,Woman,Left,,,,,,,,,,,,,,,,,504,19,Woman,Left,
2,1,0.15,180,-,0,0.2566627000014705,-,-,-,,,,,,,,504,19,Woman,Left,,,,,,,,,,,,,,,,,504,19,Woman,Left,
2,1,0.15,180,-,180,0.27286850000018603,-,-,-,,,,,,,,504,19,Woman,Left,,,,,,,,,,,,,,,,,504,19,Woman,Left,
2,1,0.15,0,-,180,0.2563693999982206,-,-,-,,,,,,,,504,19,Woman,Left,,,,,,,,,,,,,,,,,504,19,Woman,Left,
2,1,0.4,0,-,0,0.2880470999989484,-,-,-,,,,,,,,504,19,Woman,Left,,,,,,,,,,,,,,,,,504,19,Woman,Left,
2,1,0.15,180,-,0,0.23054880000199773,-,-,-,,,,,,,,504,19,Woman,Left,,,,,,,,,,,,,,,,,504,19,Woman,Left,
2,1,0.15,180,-,180,0.311581699999806,-,-,-,,,,,,,,504,19,Woman,Left,,,,,,,,,,,,,,,,,504,19,Woman,Left,
2,1,0.4,180,-,180,0.2623082999998587,-,-,-,,,,,,,,504,19,Woman,Left,,,,,,,,,,,,,,,,,504,19,Woman,Left,
2,1,0.15,180,-,180,0.2222488000006706,-,-,-,7,3,10,3,0.7,1.0,,504,19,Woman,Left,,,,,,,,,,,,,,,,,504,19,Woman,Left,
3,2,1.0,0,180,180,2.5404787000006763,['y'],1.843270699999266,1.866,,,,,,,,504,19,Woman,Left,,,,,,,,,,,,,,,,,504,19,Woman,Left,
3,2,1.0,180,0,0,0.8601132000003417,['y'],1.3997329999983776,1.846,,,,,,,,504,19,Woman,Left,,,,,,,,,,,,,,,,,504,19,Woman,Left,
3,2,1.0,180,0,0,0.5705820999974094,['y'],0.2721385000004375,1.8519999999999999,,,,,,,,504,19,Woman,Left,,,,,,,,,,,,,,,,,504,19,Woman,Left,
3,2,1.0,180,0,0,1.0105937000007543,['y'],0.1902144000014232,1.842,,,,,,,,504,19,Woman,Left,,,,,,,,,,,,,,,,,504,19,Woman,Left,
3,2,1.0,180,0,0,0.4152347000017471,['y'],0.6510375999969256,1.842,,,,,,,,504,19,Woman,Left,,,,,,,,,,,,,,,,,504,19,Woman,Left,
3,2,1.0,180,0,0,0.2717741999986174,['y'],0.6017114999995101,1.9060000000000001,,,,,,,,504,19,Woman,Left,,,,,,,,,,,,,,,,,504,19,Woman,Left,
3,2,1.0,180,0,0,0.31714970000030007,['y'],0.26799779999782913,1.8519999999999999,,,,,,,,504,19,Woman,Left,,,,,,,,,,,,,,,,,504,19,Woman,Left,
3,2,1.0,180,0,0,0.28218439999909606,['y'],0.5629208999998809,1.846,,,,,,,,504,19,Woman,Left,,,,,,,,,,,,,,,,,504,19,Woman,Left,
3,2,1.0,0,180,180,0.5693525000024238,['y'],0.8388128999977198,1.904,,,,,,,,504,19,Woman,Left,,,,,,,,,,,,,,,,,504,19,Woman,Left,
3,2,1.0,0,180,180,0.816643699999986,['y'],0.6433489999981248,1.892,10,10,10,10,1.0,1.0,,504,19,Woman,Left,,,,,,,,,,,,,,,,,504,19,Woman,Left,
4,2,0.4,180,0,0,0.7997827999970468,['y'],0.8388709999999264,1.756,,,,,,,,504,19,Woman,Left,,,,,,,,,,,,,,,,,504,19,Woman,Left,
4,2,0.15,180,0,0,0.6430241999987629,['n'],0.8457555999993929,1.8519999999999999,,,,,,,,504,19,Woman,Left,,,,,,,,,,,,,,,,,504,19,Woman,Left,
4,2,0.4,0,180,180,0.5733459000002767,['y'],1.370799000000261,1.8559999999999999,,,,,,,,504,19,Woman,Left,,,,,,,,,,,,,,,,,504,19,Woman,Left,
4,2,0.4,180,0,0,0.6061893000005512,['y'],0.25851239999974496,1.824,,,,,,,,504,19,Woman,Left,,,,,,,,,,,,,,,,,504,19,Woman,Left,
4,2,0.15,0,180,180,1.3146077999990666,['y'],0.2507366000027105,1.6400000000000001,,,,,,,,504,19,Woman,Left,,,,,,,,,,,,,,,,,504,19,Woman,Left,
4,2,0.4,0,180,0,2.03696559999662,['y'],0.2637931999997818,1.714,,,,,,,,504,19,Woman,Left,,,,,,,,,,,,,,,,,504,19,Woman,Left,
4,2,0.4,0,180,180,1.428704400001152,['y'],0.21687459999884595,1.8439999999999999,,,,,,,,504,19,Woman,Left,,,,,,,,,,,,,,,,,504,19,Woman,Left,
4,2,0.15,0,180,180,0.7663498000001709,['y'],0.26755319999938365,1.808,,,,,,,,504,19,Woman,Left,,,,,,,,,,,,,,,,,504,19,Woman,Left,
4,2,0.15,0,180,180,1.7257386999990558,['y'],3.1956411999999546,1.79,,,,,,,,504,19,Woman,Left,,,,,,,,,,,,,,,,,504,19,Woman,Left,
4,2,0.15,180,0,0,0.6891515999996045,['y'],0.26583579999714857,1.6560000000000001,9,4,10,5,0.9,0.8,,504,19,Woman,Left,,,,,,,,,,,,,,,,,504,19,Woman,Left,
5,3,0.4,180,-,0,0.5292383000014524,['y'],1.2730547999999544,1.5939999999999999,,,,,,,,504,19,Woman,Left,,,,,,,,,,,,,,,,,504,19,Woman,Left,
5,3,0.15,0,-,0,0.5270415999984834,['y'],0.74303769999824,1.5899999999999999,,,,,,,,504,19,Woman,Left,,,,,,,,,,,,,,,,,504,19,Woman,Left,
5,3,1.0,180,-,180,0.7200365000026068,['y'],0.783252100001846,1.5939999999999999,,,,,,,,504,19,Woman,Left,,,,,,,,,,,,,,,,,504,19,Woman,Left,
5,3,1.0,0,-,0,1.4823609000013676,['n'],1.370851899999252,1.794,,,,,,,,504,19,Woman,Left,,,,,,,,,,,,,,,,,504,19,Woman,Left,
5,3,0.15,0,180,180,1.0892254000027606,['y'],0.6100607000007585,1.694,,,,,,,,504,19,Woman,Left,,,,,,,,,,,,,,,,,504,19,Woman,Left,
5,3,0.4,180,-,180,0.729160499999125,['y'],0.3119318999997631,1.634,,,,,,,,504,19,Woman,Left,,,,,,,,,,,,,,,,,504,19,Woman,Left,
5,3,0.15,180,-,0,1.6718059000013454,['n'],0.37713950000033947,1.6280000000000001,,,,,,,,504,19,Woman,Left,,,,,,,,,,,,,,,,,504,19,Woman,Left,
5,3,0.4,180,0,0,0.6524965000025986,['y'],0.3580537000016193,1.6520000000000001,,,,,,,,504,19,Woman,Left,,,,,,,,,,,,,,,,,504,19,Woman,Left,
5,3,1.0,180,0,0,0.5336873000014748,['y'],0.739255199998297,1.638,,,,,,,,504,19,Woman,Left,,,,,,,,,,,,,,,,,504,19,Woman,Left,
5,3,0.4,0,-,0,0.43312129999685567,['y'],0.242810499999905,1.674,8,6,10,7,0.8,0.8571428571428571,,504,19,Woman,Left,,,,,,,,,,,,,,,,,504,19,Woman,Left,
,,,,,,,,,,,,,,,,5.49999822396785e-06,504,19,Woman,Left,,,,,,,,,,,,,,,,,504,19,Woman,Left,
,,,,,,,,,,,,,,,,,504,19,Woman,Left,0,34,0.4,1,180,-,0,2.8676293999997142,['y'],3.736024500001804,1.604,292.4177411000019,,,,,504,19,Woman,Left,
,,,,,,,,,,,,,,,,,504,19,Woman,Left,0,63,0.15,2,180,0,0,2.936528599999292,['n'],0.831556900000578,1.766,299.6835609000009,,,,,504,19,Woman,Left,
,,,,,,,,,,,,,,,,,504,19,Woman,Left,0,28,0.4,1,0,-,0,0.8638618000004499,['y'],1.1044388999980583,1.726,305.06731130000117,,,,,504,19,Woman,Left,
,,,,,,,,,,,,,,,,,504,19,Woman,Left,0,36,0.4,1,0,-,0,1.1418438000000606,['y'],0.8644348999987415,1.79,310.2505765999995,,,,,504,19,Woman,Left,
,,,,,,,,,,,,,,,,,504,19,Woman,Left,0,21,0.4,2,0,180,180,1.1701371999988623,['y'],1.2000609999995504,1.88,316.1329020000012,,,,,504,19,Woman,Left,
,,,,,,,,,,,,,,,,,504,19,Woman,Left,0,72,0.15,1,0,-,0,1.8784774000014295,['n'],1.1837669000015012,1.6099999999999999,322.28410670000085,,,,,504,19,Woman,Left,
,,,,,,,,,,,,,,,,,504,19,Woman,Left,0,77,0.15,2,0,180,0,0.8346335000023828,['n'],1.7205410999995365,1.67,328.116875300002,,,,,504,19,Woman,Left,
,,,,,,,,,,,,,,,,,504,19,Woman,Left,0,35,0.4,2,180,0,0,0.6576069000002462,['y'],3.128164400000969,1.6019999999999999,336.1171138000027,,,,,504,19,Woman,Left,
,,,,,,,,,,,,,,,,,504,19,Woman,Left,0,8,0.4,1,0,-,0,0.8920890999979747,['n'],0.9281302999988839,1.742,341.3497994999998,,,,,504,19,Woman,Left,
,,,,,,,,,,,,,,,,,504,19,Woman,Left,0,48,0.15,1,0,-,0,2.563214000001608,['n'],1.0641268999970634,1.726,348.46706339999946,,,,,504,19,Woman,Left,
,,,,,,,,,,,,,,,,,504,19,Woman,Left,0,45,0.15,2,0,180,180,2.2247444999993604,['n'],1.0394061000006332,1.6099999999999999,355.2830933000005,,,,,504,19,Woman,Left,
,,,,,,,,,,,,,,,,,504,19,Woman,Left,0,43,0.4,2,180,0,0,0.6404197000010754,['y'],1.2080882000009296,1.692,360.0503729000011,,,,,504,19,Woman,Left,
,,,,,,,,,,,,,,,,,504,19,Woman,Left,0,44,0.15,1,0,-,0,3.051569400002336,['n'],0.9360961000020325,1.624,366.93344360000265,,,,,504,19,Woman,Left,
,,,,,,,,,,,,,,,,,504,19,Woman,Left,0,55,0.15,2,180,0,0,3.1269171000021743,['y'],1.2633986000000732,1.296,374.4833552000018,,,,,504,19,Woman,Left,
,,,,,,,,,,,,,,,,,504,19,Woman,Left,0,24,0.4,1,0,-,180,1.4518285999984073,['y'],0.759591800000635,1.422,380.61635390000083,,,,,504,19,Woman,Left,
,,,,,,,,,,,,,,,,,504,19,Woman,Left,0,42,0.4,1,180,-,180,0.7943573000011384,['n'],0.9432316999991599,1.3639999999999999,387.36562740000227,,,,,504,19,Woman,Left,
,,,,,,,,,,,,,,,,,504,19,Woman,Left,0,16,0.4,1,0,-,0,0.5765171000020928,['n'],0.9681276999981492,1.654,392.3992916999996,,,,,504,19,Woman,Left,
,,,,,,,,,,,,,,,,,504,19,Woman,Left,0,78,0.15,1,180,-,180,1.7933363999982248,['n'],0.9199891999996908,1.82,398.5338427000024,,,,,504,19,Woman,Left,
,,,,,,,,,,,,,,,,,504,19,Woman,Left,0,7,1,2,180,0,0,0.671951700001955,['y'],0.9440045999981521,1.79,403.5824855000028,,,,,504,19,Woman,Left,
,,,,,,,,,,,,,,,,,504,19,Woman,Left,0,10,0.4,1,180,-,0,2.5004840000001423,['n'],1.3020561999983329,1.748,410.38280710000254,,,,,504,19,Woman,Left,
,,,,,,,,,,,,,,,,,504,19,Woman,Left,0,53,0.15,2,0,180,180,1.2669411999995646,['n'],6.05572949999987,1.676,421.2320727000006,,,,,504,19,Woman,Left,
,,,,,,,,,,,,,,,,,504,19,Woman,Left,0,56,0.15,1,0,-,0,2.765800600001967,['n'],0.9200307999999495,1.702,428.33308690000194,,,,,504,19,Woman,Left,
,,,,,,,,,,,,,,,,,504,19,Woman,Left,0,2,1,1,180,-,180,1.8055107000000135,['n'],1.727605100000801,1.756,435.24954250000155,,,,,504,19,Woman,Left,
,,,,,,,,,,,,,,,,,504,19,Woman,Left,0,61,0.15,2,0,180,0,2.1907092000001285,['n'],0.9677837999988697,1.6360000000000001,441.632440100002,,,,,504,19,Woman,Left,
,,,,,,,,,,,,,,,,,504,19,Woman,Left,0,22,0.4,1,180,-,180,1.8600192999983847,['n'],1.200052300002426,1.6640000000000001,448.34997250000015,,,,,504,19,Woman,Left,
,,,,,,,,,,,,,,,,,504,19,Woman,Left,0,75,0.15,2,180,0,0,1.8262157999997726,['n'],1.0716058999969391,1.678,454.59912890000123,,,,,504,19,Woman,Left,
,,,,,,,,,,,,,,,,,504,19,Woman,Left,0,11,0.4,2,180,0,0,0.7374799999997776,['n'],2.7278346000020974,1.658,460.932377000001,,,,,504,19,Woman,Left,
,,,,,,,,,,,,,,,,,504,19,Woman,Left,0,26,0.4,1,180,-,180,0.849182900001324,['n'],1.4558753999990586,1.354,467.6995500000012,,,,,504,19,Woman,Left,
,,,,,,,,,,,,,,,,,504,19,Woman,Left,0,59,0.15,2,180,0,0,1.089269800002512,['n'],3.567294699998456,1.686,475.4319942000002,,,,,504,19,Woman,Left,
,,,,,,,,,,,,,,,,,504,19,Woman,Left,0,46,0.15,1,180,-,0,1.8969142999994801,['n'],0.8791618999966886,1.746,481.5317940999994,,,,,504,19,Woman,Left,
,,,,,,,,,,,,,,,,,504,19,Woman,Left,0,57,0.15,2,0,180,0,2.367236600002798,['n'],0.9036293999997724,1.726,487.9985732999994,,,,,504,19,Woman,Left,
,,,,,,,,,,,,,,,,,504,19,Woman,Left,0,30,0.4,1,180,-,180,1.3673112000033143,['n'],1.0715371999976924,1.794,493.88258380000116,,,,,504,19,Woman,Left,
,,,,,,,,,,,,,,,,,504,19,Woman,Left,0,40,0.4,1,0,-,0,0.48350009999921895,['y'],1.0633520999981556,1.7,498.2834113000026,,,,,504,19,Woman,Left,
,,,,,,,,,,,,,,,,,504,19,Woman,Left,0,51,0.15,2,180,0,180,2.2070261999979266,['n'],1.01519879999978,1.768,505.5485484000019,,,,,504,19,Woman,Left,
,,,,,,,,,,,,,,,,,504,19,Woman,Left,0,33,0.4,2,0,180,180,1.4496091000000888,['y'],0.7698679000022821,1.4,511.5824348000024,,,,,504,19,Woman,Left,
,,,,,,,,,,,,,,,,,504,19,Woman,Left,0,50,0.15,1,180,-,0,2.266576599999098,['n'],3.8261280999977316,1.358,521.0493648000011,,,,,504,19,Woman,Left,
,,,,,,,,,,,,,,,,,504,19,Woman,Left,0,32,0.4,1,0,-,0,1.6491449999994074,['n'],1.095134399998642,1.702,526.6489806000027,,,,,504,19,Woman,Left,
,,,,,,,,,,,,,,,,,504,19,Woman,Left,0,68,0.15,1,0,-,180,4.129516999997577,['n'],0.7118263000011211,1.576,534.9321166000009,,,,,504,19,Woman,Left,
,,,,,,,,,,,,,,,,,504,19,Woman,Left,0,29,0.4,2,0,180,180,2.462122500000987,['n'],1.0313898000022164,1.3599999999999999,541.8823568000007,,,,,504,19,Woman,Left,
,,,,,,,,,,,,,,,,,504,19,Woman,Left,0,6,1,1,180,-,180,2.1286116000010225,['n'],1.247041700000409,1.42,548.4820840000029,,,,,504,19,Woman,Left,
,,,,,,,,,,,,,,,,,504,19,Woman,Left,0,65,0.15,2,0,180,0,0.8896105999992869,['n'],1.239239999998972,1.774,553.6665759999996,,,,,504,19,Woman,Left,
,,,,,,,,,,,,,,,,,504,19,Woman,Left,0,23,0.4,2,180,0,0,0.5858709999993152,['y'],1.087358900000254,1.822,558.1152567000026,,,,,504,19,Woman,Left,
,,,,,,,,,,,,,,,,,504,19,Woman,Left,0,15,0.4,2,180,0,0,0.3356002000000444,['y'],0.7033785000021453,1.74,562.0817177999998,,,,,504,19,Woman,Left,
,,,,,,,,,,,,,,,,,504,19,Woman,Left,0,62,0.15,1,180,-,180,1.3774567000000388,['n'],1.1194940999994287,1.6019999999999999,567.7654089999996,,,,,504,19,Woman,Left,
,,,,,,,,,,,,,,,,,504,19,Woman,Left,0,9,0.4,2,0,180,180,0.4079526999994414,['y'],0.6629812000028323,1.732,571.6317940000008,,,,,504,19,Woman,Left,
,,,,,,,,,,,,,,,,,504,19,Woman,Left,0,18,0.4,1,180,-,180,1.339975000002596,['y'],0.44700879999800236,1.736,576.3153722999996,,,,,504,19,Woman,Left,
,,,,,,,,,,,,,,,,,504,19,Woman,Left,0,1,1,2,0,180,180,0.4255464999987453,['y'],0.6309329999967304,1.78,580.2158135999998,,,,,504,19,Woman,Left,
,,,,,,,,,,,,,,,,,504,19,Woman,Left,0,74,0.15,1,180,-,180,1.838483499999711,['n'],1.207301099999313,1.5939999999999999,586.5335717000016,,,,,504,19,Woman,Left,
,,,,,,,,,,,,,,,,,504,19,Woman,Left,0,3,1,2,180,0,0,1.2546264999982668,['y'],1.3671128999994835,1.79,592.2317317000015,,,,,504,19,Woman,Left,
,,,,,,,,,,,,,,,,,504,19,Woman,Left,0,31,0.4,2,180,0,0,2.268496000000596,['n'],1.0552666000003228,1.112,598.8656759000005,,,,,504,19,Woman,Left,
,,,,,,,,,,,,,,,,,504,19,Woman,Left,0,0,1,1,0,-,0,0.6101113000004261,['y'],0.7909567000024254,1.8679999999999999,603.799202000002,,,,,504,19,Woman,Left,
,,,,,,,,,,,,,,,,,504,19,Woman,Left,0,20,0.4,1,0,-,0,0.9905147000026773,['y'],0.8068515999984811,1.798,608.8652703000007,,,,,504,19,Woman,Left,
,,,,,,,,,,,,,,,,,504,19,Woman,Left,0,73,0.15,2,0,180,0,2.0592219999998633,['n'],0.7990611999994144,1.322,615.0154982000022,,,,,504,19,Woman,Left,
,,,,,,,,,,,,,,,,,504,19,Woman,Left,0,39,0.4,2,180,0,0,0.626479799997469,['y'],1.8072277999999642,1.612,620.7324067000009,,,,,504,19,Woman,Left,
,,,,,,,,,,,,,,,,,504,19,Woman,Left,0,76,0.15,1,0,-,180,1.8737408999986656,['n'],1.383393399999477,1.638,627.4477434,,,,,504,19,Woman,Left,
,,,,,,,,,,,,,,,,,504,19,Woman,Left,0,4,1,1,0,-,0,0.39895329999853857,['y'],0.7365637000002607,1.83,631.6647456999999,,,,,504,19,Woman,Left,
,,,,,,,,,,,,,,,,,504,19,Woman,Left,0,49,0.15,2,0,180,180,1.3555612999989535,['n'],1.142692099998385,1.6280000000000001,637.0989918000014,,,,,504,19,Woman,Left,
,,,,,,,,,,,,,,,,,504,19,Woman,Left,0,5,1,2,0,180,180,0.9919727999986208,['n'],0.9990235999975994,1.726,641.9822418000003,,,,,504,19,Woman,Left,
,,,,,,,,,,,,,,,,,504,19,Woman,Left,0,79,0.15,2,180,0,0,0.574596800001018,['n'],1.0873059000005014,1.714,646.3484697000022,,,,,504,19,Woman,Left,
,,,,,,,,,,,,,,,,,504,19,Woman,Left,0,12,0.4,1,0,-,0,0.7494974999972328,['n'],1.0482937999986461,1.71,652.1823503000014,,,,,504,19,Woman,Left,
,,,,,,,,,,,,,,,,,504,19,Woman,Left,0,17,0.4,2,0,180,0,0.7688123000007181,['n'],0.9751178000005893,1.766,656.6819175000019,,,,,504,19,Woman,Left,
,,,,,,,,,,,,,,,,,504,19,Woman,Left,0,71,0.15,2,180,0,0,1.2649333999979717,['n'],0.9989715999981854,1.202,662.1483714999995,,,,,504,19,Woman,Left,
,,,,,,,,,,,,,,,,,504,19,Woman,Left,0,19,0.4,2,180,0,0,0.37625979999938863,['y'],0.8150153999995382,1.6019999999999999,666.4155107000006,,,,,504,19,Woman,Left,
,,,,,,,,,,,,,,,,,504,19,Woman,Left,0,58,0.15,1,180,-,0,2.3880720999986806,['y'],1.415052199998172,1.5819999999999999,673.0820741000025,,,,,504,19,Woman,Left,
,,,,,,,,,,,,,,,,,504,19,Woman,Left,0,47,0.15,2,180,0,0,0.6036547000003338,['y'],0.5510092999975313,1.45,677.6158031000014,,,,,504,19,Woman,Left,
,,,,,,,,,,,,,,,,,504,19,Woman,Left,0,38,0.4,1,180,-,180,1.9102383999997983,['y'],0.48675399999774527,1.282,683.0487389000009,,,,,504,19,Woman,Left,
,,,,,,,,,,,,,,,,,504,19,Woman,Left,0,69,0.15,2,0,180,0,0.4861087999997835,['y'],2.3033885000004375,1.222,688.8814497000021,,,,,504,19,Woman,Left,
,,,,,,,,,,,,,,,,,504,19,Woman,Left,0,67,0.15,2,180,0,0,0.6145759999999427,['n'],1.015436600002431,1.284,693.5487633000012,,,,,504,19,Woman,Left,
,,,,,,,,,,,,,,,,,504,19,Woman,Left,0,14,0.4,1,180,-,0,0.5858786000026157,['n'],0.9189390999999887,1.446,698.7655500000001,,,,,504,19,Woman,Left,
,,,,,,,,,,,,,,,,,504,19,Woman,Left,0,27,0.4,2,180,0,0,0.4220034999998461,['y'],0.5746871999981522,1.78,702.8986437000021,,,,,504,19,Woman,Left,
,,,,,,,,,,,,,,,,,504,19,Woman,Left,0,52,0.15,1,0,-,180,1.74946799999816,['n'],2.5988225000000966,1.6400000000000001,711.5819291000007,,,,,504,19,Woman,Left,
,,,,,,,,,,,,,,,,,504,19,Woman,Left,0,70,0.15,1,180,-,180,4.065893200000573,['n'],0.9477350000015576,1.306,719.9154364000024,,,,,504,19,Woman,Left,
,,,,,,,,,,,,,,,,,504,19,Woman,Left,0,54,0.15,1,180,-,0,1.0990507999995316,['n'],10.047570099999575,1.3359999999999999,734.182411400001,,,,,504,19,Woman,Left,
,,,,,,,,,,,,,,,,,504,19,Woman,Left,0,13,0.4,2,0,180,180,0.45567039999878034,['y'],0.9027438000011898,1.702,738.8979284000015,,,,,504,19,Woman,Left,
,,,,,,,,,,,,,,,,,504,19,Woman,Left,0,60,0.15,1,0,-,0,1.0086859000002733,['n'],1.00693119999778,1.738,743.8489112999996,,,,,504,19,Woman,Left,
,,,,,,,,,,,,,,,,,504,19,Woman,Left,0,37,0.4,2,0,180,180,0.26005979999899864,['y'],0.5987857000000076,1.72,747.3984214000011,,,,,504,19,Woman,Left,
,,,,,,,,,,,,,,,,,504,19,Woman,Left,0,25,0.4,2,0,180,180,1.1165355999983149,['y'],2.6815332000005583,1.6640000000000001,754.0311758999997,,,,,504,19,Woman,Left,
,,,,,,,,,,,,,,,,,504,19,Woman,Left,0,41,0.4,2,0,180,180,0.5577969000005396,['n'],4.110809900001186,1.7,762.597917500003,,,,,504,19,Woman,Left,
,,,,,,,,,,,,,,,,,504,19,Woman,Left,0,66,0.15,1,180,-,0,0.36071089999677497,['n'],1.2068577999998524,1.666,766.9824301000008,,,,,504,19,Woman,Left,
,,,,,,,,,,,,,,,,,504,19,Woman,Left,0,64,0.15,1,0,-,0,0.4831061000004411,['n'],0.916434399998252,1.754,770.9813694000004,,,,,504,19,Woman,Left,
,,,,,,,,,,,,,,,,,504,19,Woman,Left,1,75,0.15,2,180,0,180,2.7405653999994684,['n'],1.7826720000011846,1.278,803.2642519000001,75.0,72.5,47.5,,504,19,Woman,Left,
,,,,,,,,,,,,,,,,,504,19,Woman,Left,1,55,0.15,2,180,0,0,1.1076623000008112,['n'],1.0951525000018592,1.346,808.1140025999994,,,,,504,19,Woman,Left,
,,,,,,,,,,,,,,,,,504,19,Woman,Left,1,46,0.15,1,180,-,0,0.5235713000001851,['n'],0.9750382999991416,1.6019999999999999,813.2647179000014,,,,,504,19,Woman,Left,
,,,,,,,,,,,,,,,,,504,19,Woman,Left,1,44,0.15,1,0,-,180,0.6823976999985462,['n'],1.1028872999995656,1.6179999999999999,818.681381800001,,,,,504,19,Woman,Left,
,,,,,,,,,,,,,,,,,504,19,Woman,Left,1,78,0.15,1,180,-,0,0.4830044000009366,['n'],1.2707784000012907,1.708,823.8480858000003,,,,,504,19,Woman,Left,
,,,,,,,,,,,,,,,,,504,19,Woman,Left,1,73,0.15,2,0,180,180,0.5454117999979644,['n'],1.4309594000005745,1.674,828.9651584000021,,,,,504,19,Woman,Left,
,,,,,,,,,,,,,,,,,504,19,Woman,Left,1,32,0.4,1,0,-,180,0.6092959999987215,['n'],0.8304155000005267,1.658,833.3812096000001,,,,,504,19,Woman,Left,
,,,,,,,,,,,,,,,,,504,19,Woman,Left,1,24,0.4,1,0,-,180,0.8016067999997176,['n'],2.974695699998847,1.65,840.1313651000019,,,,,504,19,Woman,Left,
,,,,,,,,,,,,,,,,,504,19,Woman,Left,1,71,0.15,2,180,0,0,6.970276799998828,['n'],0.7349302999973588,1.196,851.0475712000007,,,,,504,19,Woman,Left,
,,,,,,,,,,,,,,,,,504,19,Woman,Left,1,34,0.4,1,180,-,0,0.6607855999973253,['n'],0.7911463000018557,1.596,855.6978243000012,,,,,504,19,Woman,Left,
,,,,,,,,,,,,,,,,,504,19,Woman,Left,1,28,0.4,1,0,-,180,0.6699236999993445,['y'],1.3820568999981333,1.6219999999999999,860.7807429999993,,,,,504,19,Woman,Left,
,,,,,,,,,,,,,,,,,504,19,Woman,Left,1,79,0.15,2,180,0,0,0.5086035000022093,['y'],1.0788093000010122,1.71,865.4139552000015,,,,,504,19,Woman,Left,
,,,,,,,,,,,,,,,,,504,19,Woman,Left,1,60,0.15,1,0,-,180,2.8462580000013986,['n'],0.8465030999977898,1.694,871.9970812000029,,,,,504,19,Woman,Left,
,,,,,,,,,,,,,,,,,504,19,Woman,Left,1,50,0.15,1,180,-,0,2.369141099999979,['n'],2.1263800999986415,1.5899999999999999,879.3636006000015,,,,,504,19,Woman,Left,
,,,,,,,,,,,,,,,,,504,19,Woman,Left,1,29,0.4,2,0,180,180,0.5857106000003114,['n'],0.7349566999982926,1.662,883.4309465000006,,,,,504,19,Woman,Left,
,,,,,,,,,,,,,,,,,504,19,Woman,Left,1,15,0.4,2,180,0,0,0.630098800000269,['n'],0.7825140999993891,1.6139999999999999,887.6978594000029,,,,,504,19,Woman,Left,
,,,,,,,,,,,,,,,,,504,19,Woman,Left,1,31,0.4,2,180,0,0,0.38684639999701176,['y'],2.6306877999995777,1.738,893.4466386000022,,,,,504,19,Woman,Left,
,,,,,,,,,,,,,,,,,504,19,Woman,Left,1,14,0.4,1,180,-,180,0.7519095000025118,['y'],3.2465751000017917,1.6520000000000001,900.3145653000029,,,,,504,19,Woman,Left,
,,,,,,,,,,,,,,,,,504,19,Woman,Left,1,52,0.15,1,0,-,0,0.3870906999982253,['n'],0.7829656999965664,1.692,904.1636548999995,,,,,504,19,Woman,Left,
,,,,,,,,,,,,,,,,,504,19,Woman,Left,1,39,0.4,2,180,0,0,0.3243185999999696,['n'],1.0142029000016919,1.8719999999999999,908.180513700001,,,,,504,19,Woman,Left,
,,,,,,,,,,,,,,,,,504,19,Woman,Left,1,6,1,1,180,-,180,0.44007129999954486,['n'],1.2706452999991598,1.408,913.213066100001,,,,,504,19,Woman,Left,
,,,,,,,,,,,,,,,,,504,19,Woman,Left,1,72,0.15,1,0,-,0,0.40138540000043577,['n'],0.8787740000007034,1.674,917.0479144000019,,,,,504,19,Woman,Left,
,,,,,,,,,,,,,,,,,504,19,Woman,Left,1,49,0.15,2,0,180,180,1.2970390000009502,['n'],0.7424194000013813,1.584,921.8132461000023,,,,,504,19,Woman,Left,
,,,,,,,,,,,,,,,,,504,19,Woman,Left,1,65,0.15,2,0,180,180,1.5378474999997707,['n'],0.31079740000132006,1.572,926.3136750000012,,,,,504,19,Woman,Left,
,,,,,,,,,,,,,,,,,504,19,Woman,Left,1,76,0.15,1,0,-,0,0.7247767000008025,['n'],0.5988366999990831,1.624,930.1972029999997,,,,,504,19,Woman,Left,
,,,,,,,,,,,,,,,,,504,19,Woman,Left,1,59,0.15,2,180,0,0,1.7590457999976934,['n'],0.35835339999903226,1.6019999999999999,935.0474524000019,,,,,504,19,Woman,Left,
,,,,,,,,,,,,,,,,,504,19,Woman,Left,1,43,0.4,2,180,0,0,0.6685160000015458,['n'],0.6463834999995015,1.592,939.0969694000014,,,,,504,19,Woman,Left,
,,,,,,,,,,,,,,,,,504,19,Woman,Left,1,10,0.4,1,180,-,0,2.0881537000022945,['n'],0.8061032999976305,1.45,946.929508600002,,,,,504,19,Woman,Left,
,,,,,,,,,,,,,,,,,504,19,Woman,Left,1,19,0.4,2,180,0,0,0.3607680999994045,['n'],0.8785289000006742,1.3860000000000001,951.6461106999996,,,,,504,19,Woman,Left,
,,,,,,,,,,,,,,,,,504,19,Woman,Left,1,9,0.4,2,0,180,180,0.9170107000027201,['n'],0.8650895999999193,1.418,956.2636084000005,,,,,504,19,Woman,Left,
,,,,,,,,,,,,,,,,,504,19,Woman,Left,1,42,0.4,1,180,-,180,1.9626612000029127,['n'],0.6059641000028932,1.708,961.6462307000002,,,,,504,19,Woman,Left,
,,,,,,,,,,,,,,,,,504,19,Woman,Left,1,57,0.15,2,0,180,180,0.9488778000013554,['n'],0.7100260000006529,1.728,966.3307335000027,,,,,504,19,Woman,Left,
,,,,,,,,,,,,,,,,,504,19,Woman,Left,1,41,0.4,2,0,180,180,0.7141233999973338,['n'],0.7184224999982689,1.6099999999999999,970.7469832999996,,,,,504,19,Woman,Left,
,,,,,,,,,,,,,,,,,504,19,Woman,Left,1,66,0.15,1,180,-,0,1.0563957999984268,['n'],0.614557100001548,1.4,979.6963835000024,,,,,504,19,Woman,Left,
,,,,,,,,,,,,,,,,,504,19,Woman,Left,1,1,1,2,0,180,180,0.7128525000007357,['y'],0.8301609000009194,1.7,983.9633686000016,,,,,504,19,Woman,Left,
,,,,,,,,,,,,,,,,,504,19,Woman,Left,1,22,0.4,1,180,-,180,0.6338852000008046,['n'],0.798434600001201,1.286,990.1469494000012,,,,,504,19,Woman,Left,
,,,,,,,,,,,,,,,,,504,19,Woman,Left,1,40,0.4,1,0,-,0,1.5964879999992263,['n'],1.2146412000001874,1.6320000000000001,996.1802591000014,,,,,504,19,Woman,Left,
,,,,,,,,,,,,,,,,,504,19,Woman,Left,1,27,0.4,2,180,0,0,0.33506969999871217,['n'],0.7107671000012488,1.6480000000000001,1000.1646261999995,,,,,504,19,Woman,Left,
,,,,,,,,,,,,,,,,,504,19,Woman,Left,1,33,0.4,2,0,180,180,0.39650110000002314,['y'],1.2946073000020988,1.71,1004.6130903000012,,,,,504,19,Woman,Left,
,,,,,,,,,,,,,,,,,504,19,Woman,Left,1,20,0.4,1,0,-,0,2.856213899998693,['n'],1.014501100002235,1.0,1013.9800403000008,,,,,504,19,Woman,Left,
,,,,,,,,,,,,,,,,,504,19,Woman,Left,1,37,0.4,2,0,180,180,0.3273034000012558,['y'],0.5745658000014373,1.732,1017.896319800002,,,,,504,19,Woman,Left,
,,,,,,,,,,,,,,,,,504,19,Woman,Left,1,4,1,1,0,-,0,0.7646390000008978,['n'],1.0778952000000572,1.736,1022.3627393000024,,,,,504,19,Woman,Left,
,,,,,,,,,,,,,,,,,504,19,Woman,Left,1,74,0.15,1,180,-,180,0.8083118000031391,['n'],1.0461431000003358,1.624,1027.0295468000004,,,,,504,19,Woman,Left,
,,,,,,,,,,,,,,,,,504,19,Woman,Left,1,13,0.4,2,0,180,180,0.9043569999994361,['n'],1.014520900000207,1.342,1032.6967994000006,,,,,504,19,Woman,Left,
,,,,,,,,,,,,,,,,,504,19,Woman,Left,1,63,0.15,2,180,0,0,0.5476304000003438,['y'],3.2382493000004615,1.6280000000000001,1039.4627562999995,,,,,504,19,Woman,Left,
,,,,,,,,,,,,,,,,,504,19,Woman,Left,1,62,0.15,1,180,-,180,2.2604964999991353,['n'],1.6382995000021765,1.69,1047.6803368,,,,,504,19,Woman,Left,
,,,,,,,,,,,,,,,,,504,19,Woman,Left,1,11,0.4,2,180,0,180,2.9336444000000483,['n'],1.1909760999988066,1.316,1055.396409500001,,,,,504,19,Woman,Left,
,,,,,,,,,,,,,,,,,504,19,Woman,Left,1,30,0.4,1,180,-,180,0.296302899998409,['n'],0.7663132000016049,1.692,1059.8132404000025,,,,,504,19,Woman,Left,
,,,,,,,,,,,,,,,,,504,19,Woman,Left,1,48,0.15,1,0,-,0,1.3690397000027588,['n'],1.2458154999985709,1.684,1065.4459344000024,,,,,504,19,Woman,Left,
,,,,,,,,,,,,,,,,,504,19,Woman,Left,1,25,0.4,2,0,180,180,0.6159203999995952,['y'],1.1506587000003492,1.6179999999999999,1070.2136941999997,,,,,504,19,Woman,Left,
,,,,,,,,,,,,,,,,,504,19,Woman,Left,1,17,0.4,2,0,180,0,2.5049460000009276,['n'],0.8860789999998815,1.0,1076.8125701000026,,,,,504,19,Woman,Left,
,,,,,,,,,,,,,,,,,504,19,Woman,Left,1,0,1,1,0,-,0,1.3991416999997455,['n'],0.40649560000019846,1.8780000000000001,1083.9802335999993,,,,,504,19,Woman,Left,
,,,,,,,,,,,,,,,,,504,19,Woman,Left,1,38,0.4,1,180,-,180,1.77769249999983,['n'],1.2783407999995688,1.702,1089.7965667000026,,,,,504,19,Woman,Left,
,,,,,,,,,,,,,,,,,504,19,Woman,Left,1,68,0.15,1,0,-,0,0.971734099999594,['n'],1.3022401999987778,1.744,1094.4128453000012,,,,,504,19,Woman,Left,
,,,,,,,,,,,,,,,,,504,19,Woman,Left,1,36,0.4,1,0,-,0,0.22472449999986566,['n'],1.9421016000014788,1.178,1099.696766000001,,,,,504,19,Woman,Left,
,,,,,,,,,,,,,,,,,504,19,Woman,Left,1,56,0.15,1,0,-,0,0.6406018999987282,['n'],1.8781959000007191,1.5899999999999999,1105.062371,,,,,504,19,Woman,Left,
,,,,,,,,,,,,,,,,,504,19,Woman,Left,1,12,0.4,1,0,-,0,0.4110538999993878,['n'],0.9259663000011642,1.5819999999999999,1109.2469445000024,,,,,504,19,Woman,Left,
,,,,,,,,,,,,,,,,,504,19,Woman,Left,1,70,0.15,1,180,-,180,1.849337399999058,['n'],1.0301659999968251,1.3479999999999999,1114.9305065000008,,,,,504,19,Woman,Left,
,,,,,,,,,,,,,,,,,504,19,Woman,Left,1,47,0.15,2,180,0,0,0.25747169999885955,['n'],0.7498417999995581,1.55,1118.3457598000023,,,,,504,19,Woman,Left,
,,,,,,,,,,,,,,,,,504,19,Woman,Left,1,51,0.15,2,180,0,0,0.9686640999971132,['n'],0.8060927000005904,1.822,1122.7294875000007,,,,,504,19,Woman,Left,
,,,,,,,,,,,,,,,,,504,19,Woman,Left,1,18,0.4,1,180,-,180,0.3534819999986212,['n'],2.0939185000024736,1.5819999999999999,1129.863094700002,,,,,504,19,Woman,Left,
,,,,,,,,,,,,,,,,,504,19,Woman,Left,1,53,0.15,2,0,180,0,5.22108930000104,['n'],2.3980831999979273,1.204,1142.4628553000002,,,,,504,19,Woman,Left,
,,,,,,,,,,,,,,,,,504,19,Woman,Left,1,7,1,2,180,0,0,2.2783619000001636,['y'],1.0295880000012403,1.762,1149.4964519000023,,,,,504,19,Woman,Left,
,,,,,,,,,,,,,,,,,504,19,Woman,Left,1,16,0.4,1,0,-,0,3.508615999999165,['n'],0.5418078999973659,1.736,1156.429680000001,,,,,504,19,Woman,Left,
,,,,,,,,,,,,,,,,,504,19,Woman,Left,1,8,0.4,1,0,-,0,0.2731132999979309,['n'],0.757738899999822,1.702,1160.2462687000007,,,,,504,19,Woman,Left,
,,,,,,,,,,,,,,,,,504,19,Woman,Left,1,21,0.4,2,0,180,180,0.606079299999692,['y'],1.1740510999989056,1.65,1164.9464546000017,,,,,504,19,Woman,Left,
,,,,,,,,,,,,,,,,,504,19,Woman,Left,1,5,1,2,0,180,180,0.32895189999908325,['y'],2.125933499999519,1.608,1170.7627312000004,,,,,504,19,Woman,Left,
,,,,,,,,,,,,,,,,,504,19,Woman,Left,1,23,0.4,2,180,0,0,0.2658956000013859,['n'],2.91710299999977,1.576,1177.1957605000025,,,,,504,19,Woman,Left,
,,,,,,,,,,,,,,,,,504,19,Woman,Left,1,67,0.15,2,180,0,180,1.4661244999988412,['n'],2.3975770999968518,1.684,1184.463602300002,,,,,504,19,Woman,Left,
,,,,,,,,,,,,,,,,,504,19,Woman,Left,1,61,0.15,2,0,180,0,3.891396300001361,['n'],1.150401699997019,1.0,1192.6288268000026,,,,,504,19,Woman,Left,
,,,,,,,,,,,,,,,,,504,19,Woman,Left,1,77,0.15,2,0,180,0,0.7062685999990208,['n'],1.054158799997822,1.718,1197.1620236000017,,,,,504,19,Woman,Left,
,,,,,,,,,,,,,,,,,504,19,Woman,Left,1,58,0.15,1,180,-,0,0.39447190000282717,['n'],0.8777134999982081,1.6560000000000001,1201.0126826000014,,,,,504,19,Woman,Left,
,,,,,,,,,,,,,,,,,504,19,Woman,Left,1,2,1,1,180,-,180,0.3872090000004391,['y'],0.8938269999998738,1.314,1205.429050900002,,,,,504,19,Woman,Left,
,,,,,,,,,,,,,,,,,504,19,Woman,Left,1,69,0.15,2,0,180,0,0.8364472000030219,['n'],0.9738219999999274,1.5739999999999998,1209.9291034000016,,,,,504,19,Woman,Left,
,,,,,,,,,,,,,,,,,504,19,Woman,Left,1,26,0.4,1,180,-,180,1.2631571999991138,['n'],0.8776854000025196,1.6600000000000001,1214.795995700002,,,,,504,19,Woman,Left,
,,,,,,,,,,,,,,,,,504,19,Woman,Left,1,64,0.15,1,0,-,0,0.3499225999985356,['n'],1.4059919999999693,1.306,1219.5461800000012,,,,,504,19,Woman,Left,
,,,,,,,,,,,,,,,,,504,19,Woman,Left,1,54,0.15,1,180,-,180,2.437792000000627,['n'],0.5820199999980105,1.642,1225.745087000003,,,,,504,19,Woman,Left,
,,,,,,,,,,,,,,,,,504,19,Woman,Left,1,45,0.15,2,0,180,180,1.4231798000000708,['n'],0.7172695000008389,1.27,1231.5284637000004,,,,,504,19,Woman,Left,
,,,,,,,,,,,,,,,,,504,19,Woman,Left,1,35,0.4,2,180,0,180,1.1095201000025554,['n'],1.477782699999807,1.576,1237.9618104,,,,,504,19,Woman,Left,
,,,,,,,,,,,,,,,,,504,19,Woman,Left,1,3,1,2,180,0,0,1.5977816999984498,['n'],0.9656209999993735,1.688,1243.1622733000004,,,,,504,19,Woman,Left,
,,,,,,,,,,,,,,,,,504,19,Woman,Left,2,79,0.15,2,180,0,0,1.68909419999909,['n'],0.9414107000011427,1.0,1261.2621338000026,73.75,92.5,25.0,,504,19,Woman,Left,
,,,,,,,,,,,,,,,,,504,19,Woman,Left,2,51,0.15,2,180,0,0,0.5851915999992343,['n'],0.9903267000008782,1.204,1265.7282927000015,,,,,504,19,Woman,Left,
,,,,,,,,,,,,,,,,,504,19,Woman,Left,2,21,0.4,2,0,180,180,0.6300751999988279,['y'],0.6618487000014284,1.616,1271.3954599999997,,,,,504,19,Woman,Left,
,,,,,,,,,,,,,,,,,504,19,Woman,Left,2,7,1,2,180,0,0,1.12247539999953,['y'],1.029419999998936,1.6139999999999999,1276.5613105000011,,,,,504,19,Woman,Left,
,,,,,,,,,,,,,,,,,504,19,Woman,Left,2,75,0.15,2,180,0,0,2.3309578000007605,['n'],0.9096994999999879,1.1280000000000001,1282.9121546000024,,,,,504,19,Woman,Left,
,,,,,,,,,,,,,,,,,504,19,Woman,Left,2,30,0.4,1,180,-,0,2.832284100000834,['n'],1.2291904999983672,1.71,1290.2120460000006,,,,,504,19,Woman,Left,
,,,,,,,,,,,,,,,,,504,19,Woman,Left,2,18,0.4,1,180,-,0,2.246739099999104,['n'],0.9012686999994912,1.716,1296.095436300002,,,,,504,19,Woman,Left,
,,,,,,,,,,,,,,,,,504,19,Woman,Left,2,34,0.4,1,180,-,0,0.9824192999985826,['n'],0.8854261999986193,1.642,1301.5287113000013,,,,,504,19,Woman,Left,
,,,,,,,,,,,,,,,,,504,19,Woman,Left,2,12,0.4,1,0,-,0,1.3954213000033633,['n'],1.749889800001256,1.6600000000000001,1309.4288369999995,,,,,504,19,Woman,Left,
,,,,,,,,,,,,,,,,,504,19,Woman,Left,2,47,0.15,2,180,0,180,1.618047199997818,['y'],1.7733938999990642,1.314,1316.5956829999996,,,,,504,19,Woman,Left,
,,,,,,,,,,,,,,,,,504,19,Woman,Left,2,73,0.15,2,0,180,180,0.49067569999897387,['y'],1.2613258000019414,1.3639999999999999,1321.6783977000014,,,,,504,19,Woman,Left,
,,,,,,,,,,,,,,,,,504,19,Woman,Left,2,70,0.15,1,180,-,0,0.568958299998485,['n'],0.677881299998262,1.708,1325.6120039000016,,,,,504,19,Woman,Left,
,,,,,,,,,,,,,,,,,504,19,Woman,Left,2,5,1,2,0,180,180,0.44383920000109356,['y'],0.8615629000014451,1.896,1329.4623415000024,,,,,504,19,Woman,Left,
,,,,,,,,,,,,,,,,,504,19,Woman,Left,2,37,0.4,2,0,180,180,0.631155499999295,['y'],0.765570999999909,1.682,1333.311325300001,,,,,504,19,Woman,Left,
,,,,,,,,,,,,,,,,,504,19,Woman,Left,2,35,0.4,2,180,0,0,0.20516370000041206,['y'],0.8057144000013068,1.662,1336.8451816000015,,,,,504,19,Woman,Left,
,,,,,,,,,,,,,,,,,504,19,Woman,Left,2,1,1,2,0,180,180,0.45474620000095456,['y'],0.5815306999975292,1.67,1340.6112160000011,,,,,504,19,Woman,Left,
,,,,,,,,,,,,,,,,,504,19,Woman,Left,2,61,0.15,2,0,180,180,0.46625309999944875,['n'],1.2693128999999317,1.706,1345.1278351,,,,,504,19,Woman,Left,
,,,,,,,,,,,,,,,,,504,19,Woman,Left,2,42,0.4,1,180,-,0,0.7211420999992697,['n'],0.8529997000005096,1.65,1349.2448845,,,,,504,19,Woman,Left,
,,,,,,,,,,,,,,,,,504,19,Woman,Left,2,22,0.4,1,180,-,180,1.370922199999768,['n'],1.3246959999996761,1.734,1354.8952428000011,,,,,504,19,Woman,Left,
,,,,,,,,,,,,,,,,,504,19,Woman,Left,2,36,0.4,1,0,-,0,3.0658478000004834,['n'],1.3738465999995242,1.84,1361.8785115000028,,,,,504,19,Woman,Left,
,,,,,,,,,,,,,,,,,504,19,Woman,Left,2,25,0.4,2,0,180,180,1.5443780999994488,['y'],0.7651442999995197,1.728,1367.0789212000018,,,,,504,19,Woman,Left,
,,,,,,,,,,,,,,,,,504,19,Woman,Left,2,45,0.15,2,0,180,180,2.146909000002779,['n'],0.8935223000007682,1.812,1372.7448342999996,,,,,504,19,Woman,Left,
,,,,,,,,,,,,,,,,,504,19,Woman,Left,2,20,0.4,1,0,-,0,0.5815342999994755,['n'],1.3892974000009417,1.658,1377.244867700003,,,,,504,19,Woman,Left,
,,,,,,,,,,,,,,,,,504,19,Woman,Left,2,39,0.4,2,180,0,180,1.749596699999529,['n'],1.0052840999996988,1.672,1382.3782009000024,,,,,504,19,Woman,Left,
,,,,,,,,,,,,,,,,,504,19,Woman,Left,2,58,0.15,1,180,-,0,1.2749607000005199,['n'],0.6937447000018437,1.758,1386.9109145000002,,,,,504,19,Woman,Left,
,,,,,,,,,,,,,,,,,504,19,Woman,Left,2,0,1,1,0,-,0,0.6547228999988874,['n'],0.4369403999990027,1.766,1390.5621487999997,,,,,504,19,Woman,Left,
,,,,,,,,,,,,,,,,,504,19,Woman,Left,2,14,0.4,1,180,-,180,1.23556280000048,['n'],0.25349999999889405,1.762,1394.677827200001,,,,,504,19,Woman,Left,
,,,,,,,,,,,,,,,,,504,19,Woman,Left,2,66,0.15,1,180,-,0,1.3645026999984111,['n'],0.3010171000023547,1.326,1398.8119521000008,,,,,504,19,Woman,Left,
,,,,,,,,,,,,,,,,,504,19,Woman,Left,2,40,0.4,1,0,-,0,0.671321199999511,['n'],0.4208571999988635,1.276,1402.2940213000002,,,,,504,19,Woman,Left,
,,,,,,,,,,,,,,,,,504,19,Woman,Left,2,56,0.15,1,0,-,180,1.177298399998108,['y'],0.30107850000058534,1.146,1407.1119505000024,,,,,504,19,Woman,Left,
,,,,,,,,,,,,,,,,,504,19,Woman,Left,2,63,0.15,2,180,0,0,1.9920065999976941,['y'],0.26899609999964014,1.0,1412.360700600002,,,,,504,19,Woman,Left,
,,,,,,,,,,,,,,,,,504,19,Woman,Left,2,15,0.4,2,180,0,0,1.4294636999984505,['y'],0.18147979999775998,1.588,1416.6618682000008,,,,,504,19,Woman,Left,
,,,,,,,,,,,,,,,,,504,19,Woman,Left,2,41,0.4,2,0,180,180,1.2753130000019155,['y'],0.2208385999983875,1.698,1420.5454855999997,,,,,504,19,Woman,Left,
,,,,,,,,,,,,,,,,,504,19,Woman,Left,2,26,0.4,1,180,-,0,2.1058462000000873,['n'],0.5333245000001625,1.248,1425.827634100002,,,,,504,19,Woman,Left,
,,,,,,,,,,,,,,,,,504,19,Woman,Left,2,59,0.15,2,180,0,0,0.572676900002989,['n'],0.6777241000017966,1.254,1429.6950398000008,,,,,504,19,Woman,Left,
,,,,,,,,,,,,,,,,,504,19,Woman,Left,2,8,0.4,1,0,-,0,0.26362280000103055,['n'],0.9172150000013062,1.3820000000000001,1433.911319400002,,,,,504,19,Woman,Left,
,,,,,,,,,,,,,,,,,504,19,Woman,Left,2,38,0.4,1,180,-,180,1.6606820999986667,['n'],0.7889556000009179,1.3479999999999999,1438.8777300000002,,,,,504,19,Woman,Left,
,,,,,,,,,,,,,,,,,504,19,Woman,Left,2,53,0.15,2,0,180,0,1.08595140000034,['y'],0.8529425999986415,1.012,1444.5772243000029,,,,,504,19,Woman,Left,
,,,,,,,,,,,,,,,,,504,19,Woman,Left,2,62,0.15,1,180,-,0,2.0133009999990463,['n'],0.8690487999992911,1.678,1451.4111587000007,,,,,504,19,Woman,Left,
,,,,,,,,,,,,,,,,,504,19,Woman,Left,2,77,0.15,2,0,180,0,0.9416842999999062,['n'],0.8367519000021275,1.658,1456.8616382,,,,,504,19,Woman,Left,
,,,,,,,,,,,,,,,,,504,19,Woman,Left,2,49,0.15,2,0,180,0,0.5867816999998468,['n'],0.6770996999985073,1.702,1462.2617825000016,,,,,504,19,Woman,Left,
,,,,,,,,,,,,,,,,,504,19,Woman,Left,2,19,0.4,2,180,0,0,1.1782464999996591,['y'],0.5327867999985756,1.83,1466.5610245999997,,,,,504,19,Woman,Left,
,,,,,,,,,,,,,,,,,504,19,Woman,Left,2,17,0.4,2,0,180,180,0.40793289999783156,['y'],0.3252609000010125,1.6680000000000001,1469.6953224999997,,,,,504,19,Woman,Left,
,,,,,,,,,,,,,,,,,504,19,Woman,Left,2,10,0.4,1,180,-,0,1.3214669999979378,['n'],0.301014299999224,1.3780000000000001,1473.9269956999997,,,,,504,19,Woman,Left,
,,,,,,,,,,,,,,,,,504,19,Woman,Left,2,78,0.15,1,180,-,0,0.5205479999967793,['n'],0.8696937000022444,1.304,1477.9781225000006,,,,,504,19,Woman,Left,
,,,,,,,,,,,,,,,,,504,19,Woman,Left,2,23,0.4,2,180,0,0,0.4719428999997035,['n'],1.0132435000014084,1.2,1482.2948486000023,,,,,504,19,Woman,Left,
,,,,,,,,,,,,,,,,,504,19,Woman,Left,2,4,1,1,0,-,0,1.5438839999987977,['n'],2.365247800000361,1.686,1489.3111307,,,,,504,19,Woman,Left,
,,,,,,,,,,,,,,,,,504,19,Woman,Left,2,33,0.4,2,0,180,180,1.26992429999882,['y'],4.2533431999981985,1.8559999999999999,1497.5111094000022,,,,,504,19,Woman,Left,
,,,,,,,,,,,,,,,,,504,19,Woman,Left,2,46,0.15,1,180,-,0,1.6733080000012706,['n'],1.5007473999976355,1.74,1503.6447359000013,,,,,504,19,Woman,Left,
,,,,,,,,,,,,,,,,,504,19,Woman,Left,2,43,0.4,2,180,0,0,0.8064020000019809,['y'],1.6927546999977494,1.6680000000000001,1509.461468900001,,,,,504,19,Woman,Left,
,,,,,,,,,,,,,,,,,504,19,Woman,Left,2,28,0.4,1,0,-,0,0.8364810999992187,['n'],0.9332574999971257,1.6600000000000001,1513.7776325000013,,,,,504,19,Woman,Left,
,,,,,,,,,,,,,,,,,504,19,Woman,Left,2,74,0.15,1,180,-,0,0.4294259999987844,['n'],0.685376699999324,1.654,1517.3280365000028,,,,,504,19,Woman,Left,
,,,,,,,,,,,,,,,,,504,19,Woman,Left,2,57,0.15,2,0,180,0,4.154790199998388,['n'],0.8928110000015295,1.674,1525.4613329000022,,,,,504,19,Woman,Left,
,,,,,,,,,,,,,,,,,504,19,Woman,Left,2,72,0.15,1,0,-,0,0.8832098000020778,['n'],0.2771671999980754,1.6480000000000001,1529.0767828999997,,,,,504,19,Woman,Left,
,,,,,,,,,,,,,,,,,504,19,Woman,Left,2,69,0.15,2,0,180,0,0.7208347000014328,['n'],1.2611324999998033,1.692,1533.6771681999999,,,,,504,19,Woman,Left,
,,,,,,,,,,,,,,,,,504,19,Woman,Left,2,64,0.15,1,0,-,0,0.24926810000033583,['n'],0.5407129999985045,1.292,1537.7612219000002,,,,,504,19,Woman,Left,
,,,,,,,,,,,,,,,,,504,19,Woman,Left,2,67,0.15,2,180,0,0,0.4940433000010671,['n'],1.7811766999984684,1.6440000000000001,1543.4771261000024,,,,,504,19,Woman,Left,
,,,,,,,,,,,,,,,,,504,19,Woman,Left,2,31,0.4,2,180,0,0,0.1625014999990526,['n'],0.6929364999996324,1.666,1547.3935124000018,,,,,504,19,Woman,Left,
,,,,,,,,,,,,,,,,,504,19,Woman,Left,2,9,0.4,2,0,180,180,1.2735052999996697,['y'],0.3091688000022259,1.6600000000000001,1551.7273679000027,,,,,504,19,Woman,Left,
,,,,,,,,,,,,,,,,,504,19,Woman,Left,2,50,0.15,1,180,-,180,1.1340146000002278,['y'],0.7253320999989228,1.288,1557.3101081000023,,,,,504,19,Woman,Left,
,,,,,,,,,,,,,,,,,504,19,Woman,Left,2,54,0.15,1,180,-,0,1.5198786000000837,['n'],1.0450196999991022,1.706,1562.4432110000016,,,,,504,19,Woman,Left,
,,,,,,,,,,,,,,,,,504,19,Woman,Left,2,11,0.4,2,180,0,180,4.091800199999852,['n'],0.700955199998134,1.71,1569.7104584000008,,,,,504,19,Woman,Left,
,,,,,,,,,,,,,,,,,504,19,Woman,Left,2,52,0.15,1,0,-,0,0.5847614000012982,['n'],0.7084100000029139,1.68,1573.627824700001,,,,,504,19,Woman,Left,
,,,,,,,,,,,,,,,,,504,19,Woman,Left,2,32,0.4,1,0,-,0,1.1327350999999908,['n'],0.7168700000001991,1.338,1578.3934603000016,,,,,504,19,Woman,Left,
,,,,,,,,,,,,,,,,,504,19,Woman,Left,2,60,0.15,1,0,-,180,0.6207094999990659,['n'],0.844687699998758,1.244,1582.3767619000027,,,,,504,19,Woman,Left,
,,,,,,,,,,,,,,,,,504,19,Woman,Left,2,3,1,2,180,0,0,0.3912889000021096,['y'],0.6130047000006016,1.75,1585.8104512999998,,,,,504,19,Woman,Left,
,,,,,,,,,,,,,,,,,504,19,Woman,Left,2,16,0.4,1,0,-,0,1.4468452999972214,['n'],0.5646606999980577,1.82,1590.2277343000023,,,,,504,19,Woman,Left,
,,,,,,,,,,,,,,,,,504,19,Woman,Left,2,29,0.4,2,0,180,180,0.5905286999986856,['y'],0.8049671000007947,1.6520000000000001,1594.077629200001,,,,,504,19,Woman,Left,
,,,,,,,,,,,,,,,,,504,19,Woman,Left,2,13,0.4,2,0,180,180,0.7555763999989722,['y'],1.1246108999985154,1.6099999999999999,1598.4776481000008,,,,,504,19,Woman,Left,
,,,,,,,,,,,,,,,,,504,19,Woman,Left,2,6,1,1,180,-,180,0.8904294999992999,['n'],0.6132409999991069,1.77,1602.4774907000028,,,,,504,19,Woman,Left,
,,,,,,,,,,,,,,,,,504,19,Woman,Left,2,71,0.15,2,180,0,180,0.6324734999980137,['n'],0.7892277999999351,1.786,1606.2431112000013,,,,,504,19,Woman,Left,
,,,,,,,,,,,,,,,,,504,19,Woman,Left,2,68,0.15,1,0,-,0,0.9705259000002115,['n'],0.8691039000004821,1.826,1610.4441277000005,,,,,504,19,Woman,Left,
,,,,,,,,,,,,,,,,,504,19,Woman,Left,2,65,0.15,2,0,180,0,1.5329051000007894,['n'],0.6687485000002198,1.758,1615.1597102000014,,,,,504,19,Woman,Left,
,,,,,,,,,,,,,,,,,504,19,Woman,Left,2,55,0.15,2,180,0,0,0.37623529999837046,['n'],0.8131515999994008,1.676,1618.9767944000014,,,,,504,19,Woman,Left,
,,,,,,,,,,,,,,,,,504,19,Woman,Left,2,44,0.15,1,0,-,0,1.3272236000011617,['n'],0.7651874000002863,1.754,1623.5269289000025,,,,,504,19,Woman,Left,
,,,,,,,,,,,,,,,,,504,19,Woman,Left,2,2,1,1,180,-,180,1.8731210000005376,['n'],0.22835850000046776,1.72,1628.0938287999998,,,,,504,19,Woman,Left,
,,,,,,,,,,,,,,,,,504,19,Woman,Left,2,24,0.4,1,0,-,0,0.6829089999991993,['n'],1.180690199998935,1.88,1632.4103950000026,,,,,504,19,Woman,Left,
,,,,,,,,,,,,,,,,,504,19,Woman,Left,2,48,0.15,1,0,-,0,0.4212368999978935,['n'],0.7572087999978976,1.692,1636.0936554,,,,,504,19,Woman,Left,
,,,,,,,,,,,,,,,,,504,19,Woman,Left,2,76,0.15,1,0,-,0,0.2751858000010543,['n'],0.8206989999998768,1.8519999999999999,1639.577061,,,,,504,19,Woman,Left,
,,,,,,,,,,,,,,,,,504,19,Woman,Left,2,27,0.4,2,180,0,0,0.7330296999971324,['y'],0.47686759999851347,1.174,1643.6431033000008,,,,,504,19,Woman,Left,
,,,,,,,,,,,,,,,,,504,19,Woman,Left,3,25,0.4,2,0,180,180,0.7905185999989044,['y'],0.34059200000046985,1.684,1650.7602538000028,67.5,95.0,55.0,,504,19,Woman,Left,
,,,,,,,,,,,,,,,,,504,19,Woman,Left,3,38,0.4,1,180,-,180,1.1133900999993784,['n'],1.652024099999835,1.1320000000000001,1655.8434565000025,,,,,504,19,Woman,Left,
,,,,,,,,,,,,,,,,,504,19,Woman,Left,3,77,0.15,2,0,180,0,0.6610271999998076,['n'],0.8767274999991059,1.178,1660.2430342000007,,,,,504,19,Woman,Left,
,,,,,,,,,,,,,,,,,504,19,Woman,Left,3,67,0.15,2,180,0,0,1.1922222999965015,['n'],0.6448104000010062,1.214,1664.6101165,,,,,504,19,Woman,Left,
,,,,,,,,,,,,,,,,,504,19,Woman,Left,3,11,0.4,2,180,0,0,0.6958556999998109,['y'],0.5005492999989656,1.8599999999999999,1668.1114261000002,,,,,504,19,Woman,Left,
,,,,,,,,,,,,,,,,,504,19,Woman,Left,3,35,0.4,2,180,0,0,0.7360182999982499,['y'],0.48449450000043726,1.722,1671.8603251000022,,,,,504,19,Woman,Left,
,,,,,,,,,,,,,,,,,504,19,Woman,Left,3,41,0.4,2,0,180,0,0.7418664999968314,['y'],2.316681200001767,1.76,1677.6759665999998,,,,,504,19,Woman,Left,
,,,,,,,,,,,,,,,,,504,19,Woman,Left,3,47,0.15,2,180,0,0,2.9264148000002024,['n'],0.38060290000066743,1.826,1683.8273186000006,,,,,504,19,Woman,Left,
,,,,,,,,,,,,,,,,,504,19,Woman,Left,3,60,0.15,1,0,-,0,0.2787257999989379,['n'],0.7250693999994837,1.766,1687.2771680000005,,,,,504,19,Woman,Left,
,,,,,,,,,,,,,,,,,504,19,Woman,Left,3,21,0.4,2,0,180,180,0.5968855999999505,['y'],0.3487165000005916,1.732,1690.6266015,,,,,504,19,Woman,Left,
,,,,,,,,,,,,,,,,,504,19,Woman,Left,3,50,0.15,1,180,-,180,1.9898260000009032,['n'],1.2367973000000347,1.792,1696.2606968,,,,,504,19,Woman,Left,
,,,,,,,,,,,,,,,,,504,19,Woman,Left,3,75,0.15,2,180,0,0,1.269529799999873,['n'],0.46830450000197743,1.704,1700.4274121000017,,,,,504,19,Woman,Left,
,,,,,,,,,,,,,,,,,504,19,Woman,Left,3,18,0.4,1,180,-,180,2.199241800000891,['n'],0.30862509999860777,1.678,1705.6601993000004,,,,,504,19,Woman,Left,
,,,,,,,,,,,,,,,,,504,19,Woman,Left,3,23,0.4,2,180,0,0,0.5408100999993621,['y'],0.6206089000006614,1.662,1709.2929317000016,,,,,504,19,Woman,Left,
,,,,,,,,,,,,,,,,,504,19,Woman,Left,3,49,0.15,2,0,180,0,16.36608040000283,['n'],1.137895200001367,1.0,1729.3428138000017,,,,,504,19,Woman,Left,
,,,,,,,,,,,,,,,,,504,19,Woman,Left,3,65,0.15,2,0,180,180,1.4015646999978344,['n'],0.22038790000078734,1.78,1733.293039100001,,,,,504,19,Woman,Left,
,,,,,,,,,,,,,,,,,504,19,Woman,Left,3,3,1,2,180,0,0,0.43588399999862304,['y'],0.5567499999997381,1.708,1736.6266655,,,,,504,19,Woman,Left,
,,,,,,,,,,,,,,,,,504,19,Woman,Left,3,12,0.4,1,0,-,0,0.4706703000010748,['n'],2.9805444000012358,1.796,1742.4101340000016,,,,,504,19,Woman,Left,
,,,,,,,,,,,,,,,,,504,19,Woman,Left,3,15,0.4,2,180,0,0,0.9869588000001386,['y'],0.7242445000010775,1.672,1746.5927013,,,,,504,19,Woman,Left,
,,,,,,,,,,,,,,,,,504,19,Woman,Left,3,28,0.4,1,0,-,0,1.036385600000358,['n'],0.9086293000000296,1.81,1751.009759200002,,,,,504,19,Woman,Left,
,,,,,,,,,,,,,,,,,504,19,Woman,Left,3,26,0.4,1,180,-,180,0.28419020000001183,['n'],0.9245232000030228,1.6640000000000001,1754.7100142000018,,,,,504,19,Woman,Left,
,,,,,,,,,,,,,,,,,504,19,Woman,Left,3,32,0.4,1,0,-,0,0.12288160000025528,['n'],0.7326118999990285,1.8639999999999999,1758.1936294000006,,,,,504,19,Woman,Left,
,,,,,,,,,,,,,,,,,504,19,Woman,Left,3,73,0.15,2,0,180,0,0.2078633000019181,['n'],2.916757200000575,1.684,1763.8426007000016,,,,,504,19,Woman,Left,
,,,,,,,,,,,,,,,,,504,19,Woman,Left,3,64,0.15,1,0,-,0,0.2934671000002709,['n'],0.7085587999972631,1.712,1767.5763625,,,,,504,19,Woman,Left,
,,,,,,,,,,,,,,,,,504,19,Woman,Left,3,36,0.4,1,0,-,0,0.12734509999791044,['n'],1.0442871000013838,1.762,1771.0596145000018,,,,,504,19,Woman,Left,
,,,,,,,,,,,,,,,,,504,19,Woman,Left,3,13,0.4,2,0,180,180,0.6437512999982573,['y'],3.0683596000017133,1.842,1777.1923112000004,,,,,504,19,Woman,Left,
,,,,,,,,,,,,,,,,,504,19,Woman,Left,3,59,0.15,2,180,0,0,0.9459195999988879,['n'],0.8848141999988002,1.304,1781.6428780000024,,,,,504,19,Woman,Left,
,,,,,,,,,,,,,,,,,504,19,Woman,Left,3,55,0.15,2,180,0,180,0.7339950999994471,['n'],0.852134600001591,1.8940000000000001,1785.6923636000029,,,,,504,19,Woman,Left,
,,,,,,,,,,,,,,,,,504,19,Woman,Left,3,70,0.15,1,180,-,0,1.0695128999977896,['n'],1.6046573000021453,1.736,1790.5762871000006,,,,,504,19,Woman,Left,
,,,,,,,,,,,,,,,,,504,19,Woman,Left,3,44,0.15,1,0,-,0,1.151087299997016,['n'],0.7402948000017204,1.612,1794.7928896000012,,,,,504,19,Woman,Left,
,,,,,,,,,,,,,,,,,504,19,Woman,Left,3,30,0.4,1,180,-,180,0.7610042000014801,['n'],0.9327210000010382,1.698,1798.676162300002,,,,,504,19,Woman,Left,
,,,,,,,,,,,,,,,,,504,19,Woman,Left,3,4,1,1,0,-,0,0.835624999999709,['n'],0.5166069000006246,1.91,1802.3269618000013,,,,,504,19,Woman,Left,
,,,,,,,,,,,,,,,,,504,19,Woman,Left,3,46,0.15,1,180,-,180,0.28842430000077,['n'],0.6364627000002656,1.7,1805.6259611999994,,,,,504,19,Woman,Left,
,,,,,,,,,,,,,,,,,504,19,Woman,Left,3,8,0.4,1,0,-,0,0.49240020000070217,['n'],0.43648100000064005,1.708,1808.9590946999997,,,,,504,19,Woman,Left,
,,,,,,,,,,,,,,,,,504,19,Woman,Left,3,16,0.4,1,0,-,0,0.6187214000019594,['n'],0.5639090999975451,1.73,1812.5098883000028,,,,,504,19,Woman,Left,
,,,,,,,,,,,,,,,,,504,19,Woman,Left,3,7,1,2,180,0,0,0.5519053999996686,['y'],0.4602269000024535,1.736,1815.9588390999998,,,,,504,19,Woman,Left,
,,,,,,,,,,,,,,,,,504,19,Woman,Left,3,1,1,2,0,180,180,1.1287264999991748,['y'],0.26837460000024294,1.734,1819.7099938000028,,,,,504,19,Woman,Left,
,,,,,,,,,,,,,,,,,504,19,Woman,Left,3,48,0.15,1,0,-,180,1.4002533000020776,['n'],0.3806992999998329,1.818,1823.8089937000004,,,,,504,19,Woman,Left,
,,,,,,,,,,,,,,,,,504,19,Woman,Left,3,42,0.4,1,180,-,180,1.18172290000075,['n'],0.29188910000084434,1.768,1827.8755630000014,,,,,504,19,Woman,Left,
,,,,,,,,,,,,,,,,,504,19,Woman,Left,3,43,0.4,2,180,0,0,0.5268178000005719,['y'],0.5722644000015862,1.754,1831.3427723000023,,,,,504,19,Woman,Left,
,,,,,,,,,,,,,,,,,504,19,Woman,Left,3,10,0.4,1,180,-,180,1.8268786000007822,['y'],0.18048670000280254,1.71,1835.6589660999998,,,,,504,19,Woman,Left,
,,,,,,,,,,,,,,,,,504,19,Woman,Left,3,56,0.15,1,0,-,0,0.7564196000021184,['n'],0.6765030000024126,1.8,1839.4258802000004,,,,,504,19,Woman,Left,
,,,,,,,,,,,,,,,,,504,19,Woman,Left,3,61,0.15,2,0,180,180,1.1266026000012062,['y'],0.19628439999723923,1.808,1843.0919236000009,,,,,504,19,Woman,Left,
,,,,,,,,,,,,,,,,,504,19,Woman,Left,3,34,0.4,1,180,-,180,1.3082549999999173,['n'],1.1643306000005396,1.596,1847.842657600002,,,,,504,19,Woman,Left,
,,,,,,,,,,,,,,,,,504,19,Woman,Left,3,24,0.4,1,0,-,0,2.0940522999990208,['n'],0.2441556000012497,1.76,1852.3758187000021,,,,,504,19,Woman,Left,
,,,,,,,,,,,,,,,,,504,19,Woman,Left,3,78,0.15,1,180,-,0,1.3121852000003855,['n'],0.7483295999991242,1.692,1856.8759627,,,,,504,19,Woman,Left,
,,,,,,,,,,,,,,,,,504,19,Woman,Left,3,68,0.15,1,0,-,0,1.0609929000020202,['n'],0.6281161999977485,1.316,1861.0759681000018,,,,,504,19,Woman,Left,
,,,,,,,,,,,,,,,,,504,19,Woman,Left,3,52,0.15,1,0,-,180,2.285906099998101,['n'],1.4438407000016014,1.32,1868.093819400001,,,,,504,19,Woman,Left,
,,,,,,,,,,,,,,,,,504,19,Woman,Left,3,2,1,1,180,-,180,1.3084421999992628,['n'],0.8362812000013946,1.82,1872.8261397999995,,,,,504,19,Woman,Left,
,,,,,,,,,,,,,,,,,504,19,Woman,Left,3,58,0.15,1,180,-,0,0.6726127000001725,['n'],0.9003431000019191,1.782,1876.8916043000027,,,,,504,19,Woman,Left,
,,,,,,,,,,,,,,,,,504,19,Woman,Left,3,6,1,1,180,-,180,0.8227928999986034,['n'],1.243889000001218,1.69,1881.2758085999994,,,,,504,19,Woman,Left,
,,,,,,,,,,,,,,,,,504,19,Woman,Left,3,27,0.4,2,180,0,0,0.25234229999841773,['n'],0.7319877000009001,1.772,1884.6424645000006,,,,,504,19,Woman,Left,
,,,,,,,,,,,,,,,,,504,19,Woman,Left,3,40,0.4,1,0,-,0,0.8537032999993244,['n'],0.5881690000023809,1.6179999999999999,1888.4928972000016,,,,,504,19,Woman,Left,
,,,,,,,,,,,,,,,,,504,19,Woman,Left,3,5,1,2,0,180,180,0.430567900002643,['n'],1.8357830999993894,1.866,1893.0086888000005,,,,,504,19,Woman,Left,
,,,,,,,,,,,,,,,,,504,19,Woman,Left,3,72,0.15,1,0,-,0,0.3901747999989311,['n'],0.667631899999833,1.72,1897.0591582000015,,,,,504,19,Woman,Left,
,,,,,,,,,,,,,,,,,504,19,Woman,Left,3,0,1,1,0,-,0,0.6452511999996204,['n'],0.7003394999992452,1.5979999999999999,1900.7422351000023,,,,,504,19,Woman,Left,
,,,,,,,,,,,,,,,,,504,19,Woman,Left,3,39,0.4,2,180,0,0,0.5540379000012763,['n'],0.9478361000001314,1.612,1904.6256943000008,,,,,504,19,Woman,Left,
,,,,,,,,,,,,,,,,,504,19,Woman,Left,3,20,0.4,1,0,-,0,0.4648715000002994,['n'],3.8117646999999124,1.5859999999999999,1911.0592547000015,,,,,504,19,Woman,Left,
,,,,,,,,,,,,,,,,,504,19,Woman,Left,3,51,0.15,2,180,0,180,1.6004285999988497,['n'],0.18779089999952703,1.374,1915.8427198000027,,,,,504,19,Woman,Left,
,,,,,,,,,,,,,,,,,504,19,Woman,Left,3,66,0.15,1,180,-,180,0.8565887000004295,['n'],0.6999878999995417,1.068,1920.2256944,,,,,504,19,Woman,Left,
,,,,,,,,,,,,,,,,,504,19,Woman,Left,3,37,0.4,2,0,180,180,0.48151969999889843,['y'],0.5481964999999036,1.728,1923.5750776999994,,,,,504,19,Woman,Left,
,,,,,,,,,,,,,,,,,504,19,Woman,Left,3,76,0.15,1,0,-,0,2.6637879999980214,['n'],2.492434100000537,1.272,1931.6926631999995,,,,,504,19,Woman,Left,
,,,,,,,,,,,,,,,,,504,19,Woman,Left,3,9,0.4,2,0,180,180,1.5865310000008321,['y'],0.33220239999718615,1.73,1936.458191900001,,,,,504,19,Woman,Left,
,,,,,,,,,,,,,,,,,504,19,Woman,Left,3,79,0.15,2,180,0,0,0.40824410000277567,['n'],0.596048499999597,1.308,1941.3091749000014,,,,,504,19,Woman,Left,
,,,,,,,,,,,,,,,,,504,19,Woman,Left,3,31,0.4,2,180,0,0,0.6507450000026438,['y'],0.3083736000007775,1.746,1944.7258441000013,,,,,504,19,Woman,Left,
,,,,,,,,,,,,,,,,,504,19,Woman,Left,3,63,0.15,2,180,0,0,0.7945393000009062,['n'],0.26820670000233804,1.73,1948.0767460000025,,,,,504,19,Woman,Left,
,,,,,,,,,,,,,,,,,504,19,Woman,Left,3,33,0.4,2,0,180,180,0.7091849999997066,['y'],0.6361770000003162,1.678,1952.024828200003,,,,,504,19,Woman,Left,
,,,,,,,,,,,,,,,,,504,19,Woman,Left,3,29,0.4,2,0,180,180,1.204906300001312,['y'],0.45995570000013686,1.5779999999999998,1956.3254680999999,,,,,504,19,Woman,Left,
,,,,,,,,,,,,,,,,,504,19,Woman,Left,3,54,0.15,1,180,-,0,0.8071985999995377,['n'],0.7482237000003806,1.4100000000000001,1960.558558300003,,,,,504,19,Woman,Left,
,,,,,,,,,,,,,,,,,504,19,Woman,Left,3,14,0.4,1,180,-,180,0.5953490000028978,['n'],1.1879331000018283,1.734,1964.9418420000002,,,,,504,19,Woman,Left,
,,,,,,,,,,,,,,,,,504,19,Woman,Left,3,69,0.15,2,0,180,180,1.768038100002741,['n'],0.5720841999973345,1.196,1969.9259014000017,,,,,504,19,Woman,Left,
,,,,,,,,,,,,,,,,,504,19,Woman,Left,3,19,0.4,2,180,0,0,1.9622994999990624,['y'],0.35552589999861084,1.976,1974.6756000000023,,,,,504,19,Woman,Left,
,,,,,,,,,,,,,,,,,504,19,Woman,Left,3,74,0.15,1,180,-,0,1.4910458000013023,['n'],1.0283703999994032,1.252,1979.6419379,,,,,504,19,Woman,Left,
,,,,,,,,,,,,,,,,,504,19,Woman,Left,3,62,0.15,1,180,-,0,0.5101781000012124,['n'],1.2842775999997684,1.162,1983.8922961999997,,,,,504,19,Woman,Left,
,,,,,,,,,,,,,,,,,504,19,Woman,Left,3,22,0.4,1,180,-,180,1.5654372999997577,['n'],0.9800968999988982,1.15,1988.8587652999995,,,,,504,19,Woman,Left,
,,,,,,,,,,,,,,,,,504,19,Woman,Left,3,57,0.15,2,0,180,180,0.9950411999998323,['n'],0.796019500001421,1.124,1995.1416221,,,,,504,19,Woman,Left,
,,,,,,,,,,,,,,,,,504,19,Woman,Left,3,71,0.15,2,180,0,0,0.9911270000011427,['n'],0.4278529000002891,1.334,1999.1253195999998,,,,,504,19,Woman,Left,
,,,,,,,,,,,,,,,,,504,19,Woman,Left,3,45,0.15,2,0,180,0,2.9544429999987187,['n'],0.8282737000008638,1.322,2005.3253590000022,,,,,504,19,Woman,Left,
,,,,,,,,,,,,,,,,,504,19,Woman,Left,3,53,0.15,2,0,180,0,2.111551599999075,['n'],2.243914999999106,1.718,2012.3415523000003,,,,,504,19,Woman,Left,
,,,,,,,,,,,,,,,,,504,19,Woman,Left,3,17,0.4,2,0,180,180,1.2290602000030049,['n'],1.7632770000018354,1.25,2018.1255507000023,,,,,504,19,Woman,Left,
,,,,,,,,,,,,,,,,,504,19,Woman,Left,4,76,0.15,1,0,-,0,0.7378958000008424,['n'],1.547840700000961,1.298,2025.0922836999998,80.0,97.5,47.5,,504,19,Woman,Left,
,,,,,,,,,,,,,,,,,504,19,Woman,Left,4,6,1,1,180,-,180,1.16590240000005,['n'],1.1051160999995773,1.858,2030.0586237999996,,,,,504,19,Woman,Left,
,,,,,,,,,,,,,,,,,504,19,Woman,Left,4,75,0.15,2,180,0,0,0.6123131999993348,['n'],0.3959976000005554,1.698,2033.5256679000013,,,,,504,19,Woman,Left,
,,,,,,,,,,,,,,,,,504,19,Woman,Left,4,54,0.15,1,180,-,0,1.4884672000007413,['n'],0.5640492000020458,1.222,2038.425063300001,,,,,504,19,Woman,Left,
,,,,,,,,,,,,,,,,,504,19,Woman,Left,4,40,0.4,1,0,-,0,0.3847867000004044,['n'],0.5639517999989039,1.724,2041.7249360999995,,,,,504,19,Woman,Left,
,,,,,,,,,,,,,,,,,504,19,Woman,Left,4,55,0.15,2,180,0,180,1.6891609999984212,['n'],0.8758473000016238,1.3900000000000001,2046.8079585000014,,,,,504,19,Woman,Left,
,,,,,,,,,,,,,,,,,504,19,Woman,Left,4,5,1,2,0,180,180,0.4586882000003243,['y'],1.4996926999992866,1.8639999999999999,2053.391628000001,,,,,504,19,Woman,Left,
,,,,,,,,,,,,,,,,,504,19,Woman,Left,4,22,0.4,1,180,-,180,0.6242233000011765,['n'],0.6677128999981505,1.688,2057.1755024000013,,,,,504,19,Woman,Left,
,,,,,,,,,,,,,,,,,504,19,Woman,Left,4,16,0.4,1,0,-,0,1.5241834000007657,['n'],0.6194725999994262,1.6520000000000001,2062.491082200002,,,,,504,19,Woman,Left,
,,,,,,,,,,,,,,,,,504,19,Woman,Left,4,64,0.15,1,0,-,180,3.7573733999997785,['n'],1.3235781999974279,1.738,2070.557486400001,,,,,504,19,Woman,Left,
,,,,,,,,,,,,,,,,,504,19,Woman,Left,4,35,0.4,2,180,0,0,0.9366450000015902,['n'],1.3718206999983522,1.654,2075.5742513000005,,,,,504,19,Woman,Left,
,,,,,,,,,,,,,,,,,504,19,Woman,Left,4,58,0.15,1,180,-,180,2.616289900000993,['n'],0.9155802999994194,1.138,2081.8079147999997,,,,,504,19,Woman,Left,
,,,,,,,,,,,,,,,,,504,19,Woman,Left,4,41,0.4,2,0,180,180,1.1652504000012414,['y'],0.2838699000021734,1.672,2085.8245021000002,,,,,504,19,Woman,Left,
,,,,,,,,,,,,,,,,,504,19,Woman,Left,4,21,0.4,2,0,180,180,0.638069099997665,['n'],0.8681352000021434,1.83,2090.9586548000007,,,,,504,19,Woman,Left,
,,,,,,,,,,,,,,,,,504,19,Woman,Left,4,47,0.15,2,180,0,0,9.249905399999989,['n'],0.9079161000008753,1.0,2103.5586403000016,,,,,504,19,Woman,Left,
,,,,,,,,,,,,,,,,,504,19,Woman,Left,4,61,0.15,2,0,180,0,0.7537863999968977,['n'],0.6033065000010538,1.0,2107.3749594,,,,,504,19,Woman,Left,
,,,,,,,,,,,,,,,,,504,19,Woman,Left,4,49,0.15,2,0,180,0,1.0136366999977326,['n'],0.7721247999979823,1.248,2111.6752085000007,,,,,504,19,Woman,Left,
,,,,,,,,,,,,,,,,,504,19,Woman,Left,4,65,0.15,2,0,180,180,0.8627608999995573,['n'],0.7798045000017737,1.278,2115.9914093000007,,,,,504,19,Woman,Left,
,,,,,,,,,,,,,,,,,504,19,Woman,Left,4,70,0.15,1,180,-,0,0.5931509999973059,['n'],0.6038785000018834,1.308,2119.7421302000002,,,,,504,19,Woman,Left,
,,,,,,,,,,,,,,,,,504,19,Woman,Left,4,28,0.4,1,0,-,0,0.5047317999997176,['n'],1.3798048000026029,1.326,2124.1915792,,,,,504,19,Woman,Left,
,,,,,,,,,,,,,,,,,504,19,Woman,Left,4,1,1,2,0,180,180,0.3108214999992924,['y'],0.9477544999972451,1.806,2128.0580929999996,,,,,504,19,Woman,Left,
,,,,,,,,,,,,,,,,,504,19,Woman,Left,4,10,0.4,1,180,-,180,0.9976650999997219,['n'],0.26760700000158977,1.6440000000000001,2131.7747089000004,,,,,504,19,Woman,Left,
,,,,,,,,,,,,,,,,,504,19,Woman,Left,4,56,0.15,1,0,-,0,0.4947902999992948,['n'],0.7157576999998128,1.676,2135.9078771999993,,,,,504,19,Woman,Left,
,,,,,,,,,,,,,,,,,504,19,Woman,Left,4,43,0.4,2,180,0,0,0.5164461999993364,['y'],0.437214400000812,1.694,2139.174695900001,,,,,504,19,Woman,Left,
,,,,,,,,,,,,,,,,,504,19,Woman,Left,4,68,0.15,1,0,-,0,1.080300099998567,['n'],1.5155100999982096,1.742,2144.425295000001,,,,,504,19,Woman,Left,
,,,,,,,,,,,,,,,,,504,19,Woman,Left,4,13,0.4,2,0,180,0,1.0491320000000997,['n'],0.7314417999987199,1.5979999999999999,2148.724373600002,,,,,504,19,Woman,Left,
,,,,,,,,,,,,,,,,,504,19,Woman,Left,4,67,0.15,2,180,0,0,0.4215321999981825,['n'],0.6436542000010377,1.67,2152.4409952000024,,,,,504,19,Woman,Left,
,,,,,,,,,,,,,,,,,504,19,Woman,Left,4,74,0.15,1,180,-,0,1.7869958999981463,['n'],0.5717280999997456,1.266,2157.757784700003,,,,,504,19,Woman,Left,
,,,,,,,,,,,,,,,,,504,19,Woman,Left,4,12,0.4,1,0,-,0,1.7627441999975417,['n'],1.2439369999992778,1.744,2163.357735200003,,,,,504,19,Woman,Left,
,,,,,,,,,,,,,,,,,504,19,Woman,Left,4,72,0.15,1,0,-,0,1.3777116000019305,['n'],0.587801000001491,1.676,2167.8415926000016,,,,,504,19,Woman,Left,
,,,,,,,,,,,,,,,,,504,19,Woman,Left,4,23,0.4,2,180,0,0,1.8852740000002086,['y'],0.23540910000156146,1.724,2172.2910986000024,,,,,504,19,Woman,Left,
,,,,,,,,,,,,,,,,,504,19,Woman,Left,4,27,0.4,2,180,0,0,0.37673199999699136,['y'],0.5952490999989095,1.81,2175.807786900001,,,,,504,19,Woman,Left,
,,,,,,,,,,,,,,,,,504,19,Woman,Left,4,59,0.15,2,180,0,0,1.4985123999977077,['n'],1.0915603000030387,1.616,2180.6743351000005,,,,,504,19,Woman,Left,
,,,,,,,,,,,,,,,,,504,19,Woman,Left,4,77,0.15,2,0,180,0,0.5039184999986901,['n'],0.4270054999979038,1.428,2184.1915111000017,,,,,504,19,Woman,Left,
,,,,,,,,,,,,,,,,,504,19,Woman,Left,4,14,0.4,1,180,-,180,1.5629977999997209,['n'],0.8110577000006742,1.788,2189.0239118000027,,,,,504,19,Woman,Left,
,,,,,,,,,,,,,,,,,504,19,Woman,Left,4,24,0.4,1,0,-,0,1.4625730000007025,['n'],0.6594874000002164,1.0,2193.774259400001,,,,,504,19,Woman,Left,
,,,,,,,,,,,,,,,,,504,19,Woman,Left,4,15,0.4,2,180,0,0,1.171490000000631,['n'],0.24293820000093547,1.81,2198.2574028000017,,,,,504,19,Woman,Left,
,,,,,,,,,,,,,,,,,504,19,Woman,Left,4,45,0.15,2,0,180,180,0.47808530000111205,['n'],0.6996500999994169,1.802,2201.9574066999994,,,,,504,19,Woman,Left,
,,,,,,,,,,,,,,,,,504,19,Woman,Left,4,52,0.15,1,0,-,180,1.9226808000021265,['n'],0.851467299999058,1.008,2207.3735006999996,,,,,504,19,Woman,Left,
,,,,,,,,,,,,,,,,,504,19,Woman,Left,4,79,0.15,2,180,0,0,1.0131245000011404,['n'],1.0589789000005112,1.73,2211.807006500003,,,,,504,19,Woman,Left,
,,,,,,,,,,,,,,,,,504,19,Woman,Left,4,25,0.4,2,0,180,0,1.9041347999991558,['n'],0.7873365000014019,1.734,2217.1239232000007,,,,,504,19,Woman,Left,
,,,,,,,,,,,,,,,,,504,19,Woman,Left,4,50,0.15,1,180,-,0,1.5772763999993913,['n'],0.8675909000012325,1.24,2221.9909184000026,,,,,504,19,Woman,Left,
,,,,,,,,,,,,,,,,,504,19,Woman,Left,4,42,0.4,1,180,-,180,1.0485750000007101,['n'],0.1555365999993228,1.73,2225.574214700002,,,,,504,19,Woman,Left,
,,,,,,,,,,,,,,,,,504,19,Woman,Left,4,62,0.15,1,180,-,0,1.0907220999979472,['n'],0.7234748000009859,1.272,2230.1245073000027,,,,,504,19,Woman,Left,
,,,,,,,,,,,,,,,,,504,19,Woman,Left,4,2,1,1,180,-,180,1.8202440999993996,['n'],0.32280920000266633,1.858,2234.7070905,,,,,504,19,Woman,Left,
,,,,,,,,,,,,,,,,,504,19,Woman,Left,4,51,0.15,2,180,0,0,1.5124824000013177,['n'],0.4913206999990507,1.772,2239.690779700002,,,,,504,19,Woman,Left,
,,,,,,,,,,,,,,,,,504,19,Woman,Left,4,46,0.15,1,180,-,0,0.6869590999995125,['n'],0.8270744000001287,1.306,2244.0569035000008,,,,,504,19,Woman,Left,
,,,,,,,,,,,,,,,,,504,19,Woman,Left,4,11,0.4,2,180,0,0,1.5542337000006228,['y'],0.5314526000001933,1.734,2248.573565400002,,,,,504,19,Woman,Left,
,,,,,,,,,,,,,,,,,504,19,Woman,Left,4,44,0.15,1,0,-,0,0.22585329999856185,['n'],0.6595540999987861,1.838,2251.9572566999996,,,,,504,19,Woman,Left,
,,,,,,,,,,,,,,,,,504,19,Woman,Left,4,71,0.15,2,180,0,0,0.2909981999982847,['n'],0.7153400000024703,1.6600000000000001,2255.374214200001,,,,,504,19,Woman,Left,
,,,,,,,,,,,,,,,,,504,19,Woman,Left,4,69,0.15,2,0,180,0,1.1779683999993722,['n'],0.8677313999978651,1.85,2259.6917568999997,,,,,504,19,Woman,Left,
,,,,,,,,,,,,,,,,,504,19,Woman,Left,4,63,0.15,2,180,0,0,0.3813173000016832,['n'],0.6755812999981572,1.874,2263.007091700001,,,,,504,19,Woman,Left,
,,,,,,,,,,,,,,,,,504,19,Woman,Left,4,3,1,2,180,0,0,0.6902339000007487,['y'],0.7394508999968821,1.662,2266.908779600002,,,,,504,19,Woman,Left,
,,,,,,,,,,,,,,,,,504,19,Woman,Left,4,20,0.4,1,0,-,0,0.2999512999995204,['n'],1.69436819999828,1.748,2271.323984800001,,,,,504,19,Woman,Left,
,,,,,,,,,,,,,,,,,504,19,Woman,Left,4,33,0.4,2,0,180,180,0.4931170999989263,['y'],0.9231791999991401,1.97,2275.3574518999994,,,,,504,19,Woman,Left,
,,,,,,,,,,,,,,,,,504,19,Woman,Left,4,26,0.4,1,180,-,180,0.8664344999997411,['n'],0.5948183999971661,1.728,2281.3237684000014,,,,,504,19,Woman,Left,
,,,,,,,,,,,,,,,,,504,19,Woman,Left,4,9,0.4,2,0,180,180,0.7346760999971593,['y'],0.41091249999954016,1.5819999999999999,2284.8235018000014,,,,,504,19,Woman,Left,
,,,,,,,,,,,,,,,,,504,19,Woman,Left,4,29,0.4,2,0,180,180,1.0509822999993048,['y'],0.24312560000180383,1.5939999999999999,2288.440140400002,,,,,504,19,Woman,Left,
,,,,,,,,,,,,,,,,,504,19,Woman,Left,4,19,0.4,2,180,0,0,0.4618296000007831,['y'],0.4031117999984417,1.754,2292.173763300001,,,,,504,19,Woman,Left,
,,,,,,,,,,,,,,,,,504,19,Woman,Left,4,34,0.4,1,180,-,180,2.002746299996943,['n'],0.6351915000013832,1.276,2297.5576357000027,,,,,504,19,Woman,Left,
,,,,,,,,,,,,,,,,,504,19,Woman,Left,4,78,0.15,1,180,-,180,2.0253659000009065,['n'],0.25117210000098567,1.198,2302.3737836,,,,,504,19,Woman,Left,
,,,,,,,,,,,,,,,,,504,19,Woman,Left,4,37,0.4,2,0,180,180,1.4256163999998535,['n'],0.8673858000001928,1.3439999999999999,2308.2071471000017,,,,,504,19,Woman,Left,
,,,,,,,,,,,,,,,,,504,19,Woman,Left,4,48,0.15,1,0,-,180,2.656589999998687,['n'],0.611293799996929,1.0,2313.8733226000004,,,,,504,19,Woman,Left,
,,,,,,,,,,,,,,,,,504,19,Woman,Left,4,8,0.4,1,0,-,0,0.7333298999983526,['n'],0.27518179999970016,1.7,2317.7733006000017,,,,,504,19,Woman,Left,
,,,,,,,,,,,,,,,,,504,19,Woman,Left,4,0,1,1,0,-,0,0.6321458000020357,['n'],0.32357390000106534,1.73,2321.3577274000017,,,,,504,19,Woman,Left,
,,,,,,,,,,,,,,,,,504,19,Woman,Left,4,53,0.15,2,0,180,180,2.099686699999438,['n'],0.29955270000209566,1.678,2326.3408965000017,,,,,504,19,Woman,Left,
,,,,,,,,,,,,,,,,,504,19,Woman,Left,4,73,0.15,2,0,180,180,1.4662411000026623,['y'],0.1715565999984392,1.054,2330.6235720000004,,,,,504,19,Woman,Left,
,,,,,,,,,,,,,,,,,504,19,Woman,Left,4,57,0.15,2,0,180,0,0.5366209999992861,['n'],0.7153135999978986,1.6640000000000001,2334.2574919,,,,,504,19,Woman,Left,
,,,,,,,,,,,,,,,,,504,19,Woman,Left,4,17,0.4,2,0,180,180,0.9926995999994688,['n'],0.5391644000010274,1.736,2338.1730320999995,,,,,504,19,Woman,Left,
,,,,,,,,,,,,,,,,,504,19,Woman,Left,4,32,0.4,1,0,-,0,0.7408643999988271,['n'],1.2827522000006866,1.716,2342.707347800002,,,,,504,19,Woman,Left,
,,,,,,,,,,,,,,,,,504,19,Woman,Left,4,30,0.4,1,180,-,0,9.65928310000163,['n'],0.6750289000010525,1.0,2355.873188200003,,,,,504,19,Woman,Left,
,,,,,,,,,,,,,,,,,504,19,Woman,Left,4,18,0.4,1,180,-,180,2.1538612000003923,['n'],0.2505036000002292,1.792,2360.873052900002,,,,,504,19,Woman,Left,
,,,,,,,,,,,,,,,,,504,19,Woman,Left,4,36,0.4,1,0,-,0,1.6858194000014919,['n'],0.76292210000247,1.694,2365.7743018,,,,,504,19,Woman,Left,
,,,,,,,,,,,,,,,,,504,19,Woman,Left,4,7,1,2,180,0,0,1.8351081000000704,['y'],0.27465289999963716,1.726,2370.0908430000018,,,,,504,19,Woman,Left,
,,,,,,,,,,,,,,,,,504,19,Woman,Left,4,66,0.15,1,180,-,0,0.37232240000230377,['n'],1.227076200000738,1.822,2374.1234885000013,,,,,504,19,Woman,Left,
,,,,,,,,,,,,,,,,,504,19,Woman,Left,4,39,0.4,2,180,0,0,1.9006479999989097,['n'],0.19517249999989872,1.078,2378.857178000002,,,,,504,19,Woman,Left,
,,,,,,,,,,,,,,,,,504,19,Woman,Left,4,31,0.4,2,180,0,0,0.7433801000006497,['y'],0.23455749999993714,1.794,2382.1730346000004,,,,,504,19,Woman,Left,
,,,,,,,,,,,,,,,,,504,19,Woman,Left,4,60,0.15,1,0,-,0,3.1243859000023804,['n'],0.2264729000016814,1.926,2387.9562895000017,,,,,504,19,Woman,Left,
,,,,,,,,,,,,,,,,,504,19,Woman,Left,4,4,1,1,0,-,0,0.7872087999967334,['n'],1.0188297999993665,1.792,2392.1402805,,,,,504,19,Woman,Left,
,,,,,,,,,,,,,,,,,504,19,Woman,Left,4,38,0.4,1,180,-,0,0.7380878000003577,['n'],0.42741749999913736,1.326,2395.889490400001,,,,,504,19,Woman,Left,
,,,,,,,,,,,,,,,,,504,19,Woman,Left,5,24,0.4,1,0,-,0,3.4749659999979485,['n'],0.8111884000027203,1.1440000000000001,2418.5065166999993,75.0,100.0,37.5,,504,19,Woman,Left,
,,,,,,,,,,,,,,,,,504,19,Woman,Left,5,31,0.4,2,180,0,0,1.2044750999993994,['n'],1.3870127000009234,1.358,2425.3067771999995,,,,,504,19,Woman,Left,
,,,,,,,,,,,,,,,,,504,19,Woman,Left,5,76,0.15,1,0,-,0,0.34120550000079675,['n'],0.538942399998632,1.17,2428.8567650000005,,,,,504,19,Woman,Left,
,,,,,,,,,,,,,,,,,504,19,Woman,Left,5,17,0.4,2,0,180,180,1.9788784999982454,['y'],0.8744848999995156,1.796,2434.3900168,,,,,504,19,Woman,Left,
,,,,,,,,,,,,,,,,,504,19,Woman,Left,5,50,0.15,1,180,-,0,0.5551238999978523,['n'],0.7310553999996046,1.258,2438.6560984000025,,,,,504,19,Woman,Left,
,,,,,,,,,,,,,,,,,504,19,Woman,Left,5,15,0.4,2,180,0,0,1.392774299998564,['n'],0.6426257999992231,1.768,2443.723012800001,,,,,504,19,Woman,Left,
,,,,,,,,,,,,,,,,,504,19,Woman,Left,5,74,0.15,1,180,-,0,0.46848599999793805,['n'],0.5545036000003165,1.708,2447.2395316,,,,,504,19,Woman,Left,
,,,,,,,,,,,,,,,,,504,19,Woman,Left,5,72,0.15,1,0,-,0,3.165486099998816,['n'],0.6108059999969555,1.6680000000000001,2453.806980600002,,,,,504,19,Woman,Left,
,,,,,,,,,,,,,,,,,504,19,Woman,Left,5,56,0.15,1,0,-,0,1.6638649999986228,['n'],0.7870164000014483,1.354,2459.739630100001,,,,,504,19,Woman,Left,
,,,,,,,,,,,,,,,,,504,19,Woman,Left,5,18,0.4,1,180,-,180,1.0678025999986858,['n'],0.6268751000025077,1.32,2464.189634000002,,,,,504,19,Woman,Left,
,,,,,,,,,,,,,,,,,504,19,Woman,Left,5,45,0.15,2,0,180,0,0.39057580000007874,['n'],0.6270942000010109,1.762,2467.8560698,,,,,504,19,Woman,Left,
,,,,,,,,,,,,,,,,,504,19,Woman,Left,5,26,0.4,1,180,-,180,0.7479696000009426,['n'],0.5708016000025964,1.696,2471.906427400001,,,,,504,19,Woman,Left,
,,,,,,,,,,,,,,,,,504,19,Woman,Left,5,57,0.15,2,0,180,0,0.5843491999985417,['n'],0.8752730000014708,1.674,2475.9398550000005,,,,,504,19,Woman,Left,
,,,,,,,,,,,,,,,,,504,19,Woman,Left,5,4,1,1,0,-,0,0.4435678999980155,['n'],2.107199000001856,2.0,2481.089705800001,,,,,504,19,Woman,Left,
,,,,,,,,,,,,,,,,,504,19,Woman,Left,5,55,0.15,2,180,0,0,0.8130143000016687,['n'],0.787155599999096,1.24,2485.922976500002,,,,,504,19,Woman,Left,
,,,,,,,,,,,,,,,,,504,19,Woman,Left,5,11,0.4,2,180,0,0,0.7948562999990827,['y'],0.4189086000005773,1.698,2489.5397158000014,,,,,504,19,Woman,Left,
,,,,,,,,,,,,,,,,,504,19,Woman,Left,5,2,1,1,180,-,180,0.5979636000010942,['n'],0.946500100002595,1.798,2493.8893352000014,,,,,504,19,Woman,Left,
,,,,,,,,,,,,,,,,,504,19,Woman,Left,5,29,0.4,2,0,180,180,0.6684142000012798,['y'],0.6105370000004768,1.752,2497.6067060999994,,,,,504,19,Woman,Left,
,,,,,,,,,,,,,,,,,504,19,Woman,Left,5,12,0.4,1,0,-,0,0.26675629999954253,['n'],0.5770135999991908,1.73,2500.9562066,,,,,504,19,Woman,Left,
,,,,,,,,,,,,,,,,,504,19,Woman,Left,5,67,0.15,2,180,0,0,0.579046599999856,['n'],0.45070490000216523,1.6560000000000001,2504.4070692000023,,,,,504,19,Woman,Left,
,,,,,,,,,,,,,,,,,504,19,Woman,Left,5,33,0.4,2,0,180,180,1.3129603000015777,['y'],0.2747577999980422,1.318,2508.7563819999996,,,,,504,19,Woman,Left,
,,,,,,,,,,,,,,,,,504,19,Woman,Left,5,65,0.15,2,0,180,180,1.426005699999223,['y'],0.21081879999837838,1.264,2512.8723548000016,,,,,504,19,Woman,Left,
,,,,,,,,,,,,,,,,,504,19,Woman,Left,5,34,0.4,1,180,-,180,0.6922918999989633,['n'],0.6025200000003679,1.626,2517.0560091000007,,,,,504,19,Woman,Left,
,,,,,,,,,,,,,,,,,504,19,Woman,Left,5,41,0.4,2,0,180,180,1.5825365999990026,['y'],0.1624124000009033,1.21,2521.7230869000014,,,,,504,19,Woman,Left,
,,,,,,,,,,,,,,,,,504,19,Woman,Left,5,51,0.15,2,180,0,180,1.1094904000019596,['n'],0.8908917999979167,1.004,2526.4232677,,,,,504,19,Woman,Left,
,,,,,,,,,,,,,,,,,504,19,Woman,Left,5,37,0.4,2,0,180,180,0.9361682999988261,['y'],0.20268649999707122,1.816,2529.9229369999994,,,,,504,19,Woman,Left,
,,,,,,,,,,,,,,,,,504,19,Woman,Left,5,46,0.15,1,180,-,180,0.28490140000212705,['n'],0.7863873999995121,1.086,2533.7226986000023,,,,,504,19,Woman,Left,
,,,,,,,,,,,,,,,,,504,19,Woman,Left,5,21,0.4,2,0,180,180,1.045315200000914,['y'],0.21054050000020652,1.6179999999999999,2539.0060735000006,,,,,504,19,Woman,Left,
,,,,,,,,,,,,,,,,,504,19,Woman,Left,5,58,0.15,1,180,-,180,11.780089300002146,['n'],0.7670348999999987,1.244,2554.3900920000015,,,,,504,19,Woman,Left,
,,,,,,,,,,,,,,,,,504,19,Woman,Left,5,73,0.15,2,0,180,180,3.2998712999979034,['y'],0.14930249999815715,1.3359999999999999,2561.5901172000013,,,,,504,19,Woman,Left,
,,,,,,,,,,,,,,,,,504,19,Woman,Left,5,35,0.4,2,180,0,0,0.41168889999971725,['n'],0.42688099999941187,1.666,2564.822987300002,,,,,504,19,Woman,Left,
,,,,,,,,,,,,,,,,,504,19,Woman,Left,5,68,0.15,1,0,-,0,0.7264214999995602,['n'],0.634685900000477,1.706,2568.6399286000014,,,,,504,19,Woman,Left,
,,,,,,,,,,,,,,,,,504,19,Woman,Left,5,25,0.4,2,0,180,180,0.7705740999990667,['n'],3.738697000000684,1.712,2575.4721938000002,,,,,504,19,Woman,Left,
,,,,,,,,,,,,,,,,,504,19,Woman,Left,5,75,0.15,2,180,0,0,0.9764772000016819,['n'],0.5461071999998239,1.7,2579.3725188000026,,,,,504,19,Woman,Left,
,,,,,,,,,,,,,,,,,504,19,Woman,Left,5,71,0.15,2,180,0,0,0.4102057000018249,['n'],0.49118559999988065,1.782,2582.6398780000018,,,,,504,19,Woman,Left,
,,,,,,,,,,,,,,,,,504,19,Woman,Left,5,20,0.4,1,0,-,0,0.4484089999969001,['n'],0.5304405999995652,1.846,2585.938403,,,,,504,19,Woman,Left,
,,,,,,,,,,,,,,,,,504,19,Woman,Left,5,3,1,2,180,0,0,1.7979995999994571,['y'],0.20991800000047078,2.0,2590.2226107000024,,,,,504,19,Woman,Left,
,,,,,,,,,,,,,,,,,504,19,Woman,Left,5,0,1,1,0,-,0,0.8084330999990925,['n'],0.3381809999991674,2.0,2594.0068500000016,,,,,504,19,Woman,Left,
,,,,,,,,,,,,,,,,,504,19,Woman,Left,5,78,0.15,1,180,-,0,0.4572401000004902,['n'],0.4108797000008053,1.3679999999999999,2597.521888000003,,,,,504,19,Woman,Left,
,,,,,,,,,,,,,,,,,504,19,Woman,Left,5,5,1,2,0,180,180,1.1034084000020812,['y'],0.19462379999822588,1.802,2601.1897057999995,,,,,504,19,Woman,Left,
,,,,,,,,,,,,,,,,,504,19,Woman,Left,5,27,0.4,2,180,0,0,2.4999118000014278,['y'],0.43428119999953196,1.792,2606.589026900001,,,,,504,19,Woman,Left,
,,,,,,,,,,,,,,,,,504,19,Woman,Left,5,13,0.4,2,0,180,180,1.758003800001461,['y'],0.21826420000070357,1.804,2611.6063448000023,,,,,504,19,Woman,Left,
,,,,,,,,,,,,,,,,,504,19,Woman,Left,5,49,0.15,2,0,180,0,2.2871283999993466,['y'],0.33075819999794476,1.8780000000000001,2617.021568600001,,,,,504,19,Woman,Left,
,,,,,,,,,,,,,,,,,504,19,Woman,Left,5,16,0.4,1,0,-,0,0.8843756000023859,['y'],1.546423899999354,1.3519999999999999,2622.3892941000013,,,,,504,19,Woman,Left,
,,,,,,,,,,,,,,,,,504,19,Woman,Left,5,7,1,2,180,0,180,2.9233810999976413,['n'],1.0987075000011828,1.736,2629.8049778000022,,,,,504,19,Woman,Left,
,,,,,,,,,,,,,,,,,504,19,Woman,Left,5,79,0.15,2,180,0,0,1.1486736999977438,['y'],0.7063859999980195,1.77,2634.255555900003,,,,,504,19,Woman,Left,
,,,,,,,,,,,,,,,,,504,19,Woman,Left,5,30,0.4,1,180,-,180,0.8340763999985938,['n'],0.7621322999984841,1.63,2638.2228200000027,,,,,504,19,Woman,Left,
,,,,,,,,,,,,,,,,,504,19,Woman,Left,5,19,0.4,2,180,0,0,0.5000776999986556,['n'],0.1546634999976959,1.714,2641.1553932000024,,,,,504,19,Woman,Left,
,,,,,,,,,,,,,,,,,504,19,Woman,Left,5,63,0.15,2,180,0,0,0.387435299999197,['n'],1.4028001999977278,1.762,2645.8887539000025,,,,,504,19,Woman,Left,
,,,,,,,,,,,,,,,,,504,19,Woman,Left,5,61,0.15,2,0,180,0,0.9804594999986875,['y'],1.1541812999967078,1.65,2650.488638900002,,,,,504,19,Woman,Left,
,,,,,,,,,,,,,,,,,504,19,Woman,Left,5,22,0.4,1,180,-,0,0.2777913999998418,['y'],1.0266518000025826,1.634,2654.6056616999995,,,,,504,19,Woman,Left,
,,,,,,,,,,,,,,,,,504,19,Woman,Left,5,36,0.4,1,0,-,180,1.3634311000023445,['y'],0.1538899000006495,1.716,2658.5722411000024,,,,,504,19,Woman,Left,
,,,,,,,,,,,,,,,,,504,19,Woman,Left,5,66,0.15,1,180,-,0,0.4611146999995981,['n'],1.2184649999981048,1.8479999999999999,2662.873751000003,,,,,504,19,Woman,Left,
,,,,,,,,,,,,,,,,,504,19,Woman,Left,5,10,0.4,1,180,-,0,2.1513367000006838,['y'],0.794665299999906,1.646,2668.1719072000014,,,,,504,19,Woman,Left,
,,,,,,,,,,,,,,,,,504,19,Woman,Left,5,9,0.4,2,0,180,180,0.5003983999995398,['y'],0.698352800001885,1.134,2672.4054644000025,,,,,504,19,Woman,Left,
,,,,,,,,,,,,,,,,,504,19,Woman,Left,5,44,0.15,1,0,-,0,0.46606059999976424,['y'],0.3945026000001235,1.228,2675.7218594000005,,,,,504,19,Woman,Left,
,,,,,,,,,,,,,,,,,504,19,Woman,Left,5,47,0.15,2,180,0,0,1.2064342999983637,['y'],0.24282099999982165,1.324,2679.4891663000017,,,,,504,19,Woman,Left,
,,,,,,,,,,,,,,,,,504,19,Woman,Left,5,8,0.4,1,0,-,0,0.4976829000006546,['y'],0.4498432000000321,1.796,2683.2392019,,,,,504,19,Woman,Left,
,,,,,,,,,,,,,,,,,504,19,Woman,Left,5,48,0.15,1,0,-,0,0.42006100000071456,['y'],0.4662845000020752,1.6059999999999999,2686.521413100003,,,,,504,19,Woman,Left,
,,,,,,,,,,,,,,,,,504,19,Woman,Left,5,40,0.4,1,0,-,0,0.7994063000005553,['y'],0.17089530000157538,1.682,2689.8051097000025,,,,,504,19,Woman,Left,
,,,,,,,,,,,,,,,,,504,19,Woman,Left,5,70,0.15,1,180,-,0,0.2644369000008737,['y'],0.16262190000270493,1.754,2692.7048619000016,,,,,504,19,Woman,Left,
,,,,,,,,,,,,,,,,,504,19,Woman,Left,5,6,1,1,180,-,180,1.3959305999997014,['y'],0.2424083999976574,1.762,2697.088075200001,,,,,504,19,Woman,Left,
,,,,,,,,,,,,,,,,,504,19,Woman,Left,5,62,0.15,1,180,-,180,0.5220979000005173,['y'],0.22626429999945685,1.778,2700.138870300001,,,,,504,19,Woman,Left,
,,,,,,,,,,,,,,,,,504,19,Woman,Left,5,59,0.15,2,180,0,0,0.48009409999940544,['y'],0.8264726000015798,1.802,2703.9887344000017,,,,,504,19,Woman,Left,
,,,,,,,,,,,,,,,,,504,19,Woman,Left,5,60,0.15,1,0,-,0,0.4462715000008757,['y'],1.1707027000011294,1.692,2708.0719455,,,,,504,19,Woman,Left,
,,,,,,,,,,,,,,,,,504,19,Woman,Left,5,42,0.4,1,180,-,180,2.4495919000000868,['y'],0.1541495000019495,1.698,2713.088464200002,,,,,504,19,Woman,Left,
,,,,,,,,,,,,,,,,,504,19,Woman,Left,5,28,0.4,1,0,-,0,1.443907400000171,['y'],0.14578719999917666,1.782,2717.105062300001,,,,,504,19,Woman,Left,
,,,,,,,,,,,,,,,,,504,19,Woman,Left,5,77,0.15,2,0,180,0,0.5538461999967694,['y'],0.2184477999981027,1.714,2720.121863700002,,,,,504,19,Woman,Left,
,,,,,,,,,,,,,,,,,504,19,Woman,Left,5,23,0.4,2,180,0,180,1.7511131999999634,['y'],0.4818225999988499,1.714,2720.121863700002,,,,,504,19,Woman,Left,
,,,,,,,,,,,,,,,,,504,19,Woman,Left,5,64,0.15,1,0,-,0,0.23553010000250652,['y'],0.4902185000028112,1.5,2727.0807886000002,,,,,504,19,Woman,Left,
,,,,,,,,,,,,,,,,,504,19,Woman,Left,5,53,0.15,2,0,180,0,0.8766445000001113,['y'],0.2500268999974651,1.792,2731.070911400002,,,,,504,19,Woman,Left,
,,,,,,,,,,,,,,,,,504,19,Woman,Left,5,14,0.4,1,180,-,0,1.6673489999993762,['y'],0.30635980000079144,1.794,2735.2218269000005,,,,,504,19,Woman,Left,
,,,,,,,,,,,,,,,,,504,19,Woman,Left,5,38,0.4,1,180,-,0,0.16438650000054622,['y'],1.2819413999968674,1.806,2738.8729776,,,,,504,19,Woman,Left,
,,,,,,,,,,,,,,,,,504,19,Woman,Left,5,32,0.4,1,0,-,0,0.23355799999990268,['y'],0.9971948999991582,1.812,2742.6545527000017,,,,,504,19,Woman,Left,
,,,,,,,,,,,,,,,,,504,19,Woman,Left,5,43,0.4,2,180,0,0,0.786937199998647,['y'],0.20996279999963008,1.824,2745.9546807000006,,,,,504,19,Woman,Left,
,,,,,,,,,,,,,,,,,504,19,Woman,Left,5,54,0.15,1,180,-,0,0.5869488999996975,['y'],0.2426884999986214,1.718,2749.2221831999996,,,,,504,19,Woman,Left,
,,,,,,,,,,,,,,,,,504,19,Woman,Left,5,39,0.4,2,180,0,0,0.5341224000003422,['y'],0.29832790000000386,1.834,2752.220828100002,,,,,504,19,Woman,Left,
,,,,,,,,,,,,,,,,,504,19,Woman,Left,5,69,0.15,2,0,180,0,0.9137620000001334,['n'],2.7299157999987074,1.7,2758.422033900002,,,,,504,19,Woman,Left,
,,,,,,,,,,,,,,,,,504,19,Woman,Left,5,1,1,2,0,180,180,0.6961443000000145,['y'],0.27444589999868185,1.722,2761.7214268999996,,,,,504,19,Woman,Left,
,,,,,,,,,,,,,,,,,504,19,Woman,Left,5,52,0.15,1,0,-,0,1.369195999999647,['n'],0.8183692000020528,1.8599999999999999,2766.1883282000017,,,,,504,19,Woman,Left,
,,,,,,,,,,,,,,,,,,,,,,,,,,,,,,,,,73.75,52.5,62.5,2488.219799399998,,,,,
