p_block,p_section,p_coherence,p_direction1,p_direction2,p_direction_response,p_direction_RT,p_change_response,p_change_RT,p_confidence,p_full_correct,p_without5_correct,p_full_total,p_without5_total,p_full_avg,p_witout5_avg,p_total_time,sub,age,sex,handedness,loop,trial randomization,coherence,condition,direction1,direction2,direction_response,direction_RT,change_response,change_RT,change_confidence,change_confidence_RT,block_direction_avg,block_stable_avg,block_change_avg,total_time,sub,age,sex,handedness,
1,1,1.0,180,-,180,1.3448735000001761,-,-,-,,,,,,,,566,18,Woman,Right,,,,,,,,,,,,,,,,,566,18,Woman,Right,
1,1,1.0,180,-,0,0.5816620999994484,-,-,-,,,,,,,,566,18,Woman,Right,,,,,,,,,,,,,,,,,566,18,Woman,Right,
1,1,1.0,180,-,180,0.23246130000006815,-,-,-,,,,,,,,566,18,Woman,Right,,,,,,,,,,,,,,,,,566,18,Woman,Right,
1,1,1.0,0,-,0,0.016701199999261007,-,-,-,,,,,,,,566,18,Woman,Right,,,,,,,,,,,,,,,,,566,18,Woman,Right,
1,1,1.0,0,-,0,0.016755199999352044,-,-,-,,,,,,,,566,18,Woman,Right,,,,,,,,,,,,,,,,,566,18,Woman,Right,
1,1,1.0,0,-,0,0.016561800000090443,-,-,-,,,,,,,,566,18,Woman,Right,,,,,,,,,,,,,,,,,566,18,Woman,Right,
1,1,1.0,180,-,180,1.7007525999997597,-,-,-,,,,,,,,566,18,Woman,Right,,,,,,,,,,,,,,,,,566,18,Woman,Right,
1,1,1.0,180,-,180,0.16334699999970326,-,-,-,,,,,,,,566,18,Woman,Right,,,,,,,,,,,,,,,,,566,18,Woman,Right,
1,1,1.0,180,-,180,0.01671600000008766,-,-,-,,,,,,,,566,18,Woman,Right,,,,,,,,,,,,,,,,,566,18,Woman,Right,
1,1,1.0,0,-,0,0.6409488999997848,-,-,-,9,9,10,10,0.9,0.9,,566,18,Woman,Right,,,,,,,,,,,,,,,,,566,18,Woman,Right,
2,1,0.15,0,-,0,0.5586112000000867,-,-,-,,,,,,,,566,18,Woman,Right,,,,,,,,,,,,,,,,,566,18,Woman,Right,
2,1,0.15,0,-,0,0.12259679999988293,-,-,-,,,,,,,,566,18,Woman,Right,,,,,,,,,,,,,,,,,566,18,Woman,Right,
2,1,0.4,0,-,0,0.20782559999952355,-,-,-,,,,,,,,566,18,Woman,Right,,,,,,,,,,,,,,,,,566,18,Woman,Right,
2,1,0.4,180,-,180,0.016920599999139085,-,-,-,,,,,,,,566,18,Woman,Right,,,,,,,,,,,,,,,,,566,18,Woman,Right,
2,1,0.15,0,-,0,0.41920290000052773,-,-,-,,,,,,,,566,18,Woman,Right,,,,,,,,,,,,,,,,,566,18,Woman,Right,
2,1,0.15,180,-,180,0.6604521999997814,-,-,-,,,,,,,,566,18,Woman,Right,,,,,,,,,,,,,,,,,566,18,Woman,Right,
2,1,0.15,180,-,0,0.3084668999999849,-,-,-,,,,,,,,566,18,Woman,Right,,,,,,,,,,,,,,,,,566,18,Woman,Right,
2,1,0.15,180,-,180,0.5550102000006518,-,-,-,,,,,,,,566,18,Woman,Right,,,,,,,,,,,,,,,,,566,18,Woman,Right,
2,1,0.15,180,-,0,1.0552420000003622,-,-,-,,,,,,,,566,18,Woman,Right,,,,,,,,,,,,,,,,,566,18,Woman,Right,
2,1,0.15,0,-,0,0.5031873999996606,-,-,-,8,2,10,2,0.8,1.0,,566,18,Woman,Right,,,,,,,,,,,,,,,,,566,18,Woman,Right,
3,2,1.0,180,0,180,4.686562899999444,['y'],3.5643621999997777,2,,,,,,,,566,18,Woman,Right,,,,,,,,,,,,,,,,,566,18,Woman,Right,
3,2,1.0,0,180,0,0.9835989000002883,['y'],1.5858252999996694,2.0,,,,,,,,566,18,Woman,Right,,,,,,,,,,,,,,,,,566,18,Woman,Right,
3,2,1.0,180,0,180,2.467059600000539,['y'],2.872304599999552,2.0,,,,,,,,566,18,Woman,Right,,,,,,,,,,,,,,,,,566,18,Woman,Right,
3,2,1.0,180,0,180,2.0223650999996607,['y'],1.7348464999995485,2.0,,,,,,,,566,18,Woman,Right,,,,,,,,,,,,,,,,,566,18,Woman,Right,
3,2,1.0,0,180,180,1.4174878000003446,['y'],1.4591427000004842,2.0,,,,,,,,566,18,Woman,Right,,,,,,,,,,,,,,,,,566,18,Woman,Right,
3,2,1.0,180,0,0,1.0047702000001664,['y'],1.6624673000005714,2.0,,,,,,,,566,18,Woman,Right,,,,,,,,,,,,,,,,,566,18,Woman,Right,
3,2,1.0,0,180,180,0.9681456999996954,['y'],1.2824143000007098,2.0,,,,,,,,566,18,Woman,Right,,,,,,,,,,,,,,,,,566,18,Woman,Right,
3,2,1.0,180,0,0,0.732756800000061,['y'],1.3288185999999769,2.0,,,,,,,,566,18,Woman,Right,,,,,,,,,,,,,,,,,566,18,Woman,Right,
3,2,1.0,180,0,0,1.193186099999366,['y'],1.6749761000000944,2.0,,,,,,,,566,18,Woman,Right,,,,,,,,,,,,,,,,,566,18,Woman,Right,
3,2,1.0,0,180,180,0.8930717000002915,['y'],1.1936955999999554,2.0,,,,,,,,566,18,Woman,Right,,,,,,,,,,,,,,,,,566,18,Woman,Right,
3,2,1.0,180,0,0,0.7575400999994599,['y'],1.2966419000003953,2.0,,,,,,,,566,18,Woman,Right,,,,,,,,,,,,,,,,,566,18,Woman,Right,
3,2,1.0,180,0,0,1.9735627000000022,['y'],1.0958769999997457,2.0,,,,,,,,566,18,Woman,Right,,,,,,,,,,,,,,,,,566,18,Woman,Right,
3,2,1.0,180,0,0,0.5832370999996783,['y'],1.5214194999998654,2.0,,,,,,,,566,18,Woman,Right,,,,,,,,,,,,,,,,,566,18,Woman,Right,
3,2,1.0,180,0,0,0.9313695999999254,['y'],1.2482796000003873,2.0,,,,,,,,566,18,Woman,Right,,,,,,,,,,,,,,,,,566,18,Woman,Right,
3,2,1.0,180,0,0,0.8508884000002581,['y'],1.4901902000001428,2.0,,,,,,,,566,18,Woman,Right,,,,,,,,,,,,,,,,,566,18,Woman,Right,
3,2,1.0,0,180,180,0.7194870000002993,['y'],1.405144399999699,2.0,,,,,,,,566,18,Woman,Right,,,,,,,,,,,,,,,,,566,18,Woman,Right,
3,2,1.0,0,180,180,0.41473820000010164,['y'],0.9521530000001803,2.0,,,,,,,,566,18,Woman,Right,,,,,,,,,,,,,,,,,566,18,Woman,Right,
3,2,1.0,0,180,180,0.38345209999988583,['y'],0.39275129999987257,2.0,,,,,,,,566,18,Woman,Right,,,,,,,,,,,,,,,,,566,18,Woman,Right,
3,2,1.0,180,0,0,0.33006569999997737,['y'],0.7669631999997364,2.0,,,,,,,,566,18,Woman,Right,,,,,,,,,,,,,,,,,566,18,Woman,Right,
3,2,1.0,180,0,0,0.4893735999994533,['y'],0.8472059999994599,2.0,10,10,10,10,1.0,1.0,,566,18,Woman,Right,,,,,,,,,,,,,,,,,566,18,Woman,Right,
4,2,0.4,0,180,180,1.3721879000004265,['y'],1.0947673999999097,2.0,,,,,,,,566,18,Woman,Right,,,,,,,,,,,,,,,,,566,18,Woman,Right,
4,2,0.4,0,180,180,0.5535689999996976,['y'],0.8920585000005303,2.0,,,,,,,,566,18,Woman,Right,,,,,,,,,,,,,,,,,566,18,Woman,Right,
4,2,0.15,0,180,0,1.6279174999999668,['y'],2.173232000000098,1.266,,,,,,,,566,18,Woman,Right,,,,,,,,,,,,,,,,,566,18,Woman,Right,
4,2,0.15,180,0,0,0.6447788000004948,['y'],1.7326978000000963,2.0,,,,,,,,566,18,Woman,Right,,,,,,,,,,,,,,,,,566,18,Woman,Right,
4,2,0.4,0,180,180,0.42481279999992694,['y'],1.1051431000005323,2.0,,,,,,,,566,18,Woman,Right,,,,,,,,,,,,,,,,,566,18,Woman,Right,
4,2,0.4,0,180,180,0.3318245000000388,['y'],0.792165699999714,2.0,,,,,,,,566,18,Woman,Right,,,,,,,,,,,,,,,,,566,18,Woman,Right,
4,2,0.4,0,180,180,0.4847311000003174,['y'],1.210709300000417,2.0,,,,,,,,566,18,Woman,Right,,,,,,,,,,,,,,,,,566,18,Woman,Right,
4,2,0.4,180,0,0,0.5192692000000534,['y'],1.1402813999993668,2.0,,,,,,,,566,18,Woman,Right,,,,,,,,,,,,,,,,,566,18,Woman,Right,
4,2,0.4,180,0,0,0.43064589999994496,['y'],1.0314806000005774,2.0,,,,,,,,566,18,Woman,Right,,,,,,,,,,,,,,,,,566,18,Woman,Right,
4,2,0.15,180,0,0,0.3344710999999734,['y'],1.0581648999996105,2.0,9,7,10,7,0.9,1.0,,566,18,Woman,Right,,,,,,,,,,,,,,,,,566,18,Woman,Right,
5,3,1.0,0,180,180,0.5000781000007919,['y'],1.1078640999994604,2.0,,,,,,,,566,18,Woman,Right,,,,,,,,,,,,,,,,,566,18,Woman,Right,
5,3,0.15,180,0,180,0.6759148000001005,['y'],0.906838400000197,2.0,,,,,,,,566,18,Woman,Right,,,,,,,,,,,,,,,,,566,18,Woman,Right,
5,3,0.15,180,0,0,0.4550933000000441,['y'],1.1117411000004722,2.0,,,,,,,,566,18,Woman,Right,,,,,,,,,,,,,,,,,566,18,Woman,Right,
5,3,1.0,0,-,180,0.5261546000001545,['y'],1.0268752000001768,1.0,,,,,,,,566,18,Woman,Right,,,,,,,,,,,,,,,,,566,18,Woman,Right,
5,3,0.15,0,-,180,0.5400365000004967,['y'],1.1530324999994264,2.0,,,,,,,,566,18,Woman,Right,,,,,,,,,,,,,,,,,566,18,Woman,Right,
5,3,0.4,0,180,180,0.7530147999996188,['y'],0.6365243999998711,2.0,,,,,,,,566,18,Woman,Right,,,,,,,,,,,,,,,,,566,18,Woman,Right,
5,3,0.4,180,-,0,0.520803700000215,['n'],0.8525815000002694,2.0,,,,,,,,566,18,Woman,Right,,,,,,,,,,,,,,,,,566,18,Woman,Right,
5,3,1.0,0,-,0,4.9159294000000955,['n'],0.7932748000002903,2.0,,,,,,,,566,18,Woman,Right,,,,,,,,,,,,,,,,,566,18,Woman,Right,
5,3,0.4,0,180,180,0.5581896000003326,['y'],0.9778083000001061,2.0,,,,,,,,566,18,Woman,Right,,,,,,,,,,,,,,,,,566,18,Woman,Right,
5,3,0.15,0,180,0,2.4598181000001205,['n'],0.5390964000007443,1.0,,,,,,,,566,18,Woman,Right,,,,,,,,,,,,,,,,,566,18,Woman,Right,
5,3,0.4,0,-,0,0.9317031999999017,['n'],0.27983880000010686,2.0,,,,,,,,566,18,Woman,Right,,,,,,,,,,,,,,,,,566,18,Woman,Right,
5,3,0.15,0,180,180,0.7439685999997891,['y'],1.0524207999997088,2.0,,,,,,,,566,18,Woman,Right,,,,,,,,,,,,,,,,,566,18,Woman,Right,
5,3,0.4,180,-,0,1.1916644000002634,['y'],0.4026662000005672,1.0,,,,,,,,566,18,Woman,Right,,,,,,,,,,,,,,,,,566,18,Woman,Right,
5,3,0.4,0,180,180,0.3915412999995169,['y'],0.26696799999990617,2.0,,,,,,,,566,18,Woman,Right,,,,,,,,,,,,,,,,,566,18,Woman,Right,
5,3,0.15,0,180,0,1.542865299999903,['n'],0.4199538999992001,1.28,,,,,,,,566,18,Woman,Right,,,,,,,,,,,,,,,,,566,18,Woman,Right,
5,3,1.0,0,180,180,0.5254670999993323,['y'],0.76201250000031,2.0,,,,,,,,566,18,Woman,Right,,,,,,,,,,,,,,,,,566,18,Woman,Right,
5,3,0.4,0,-,180,1.9685417999999117,['y'],0.7711589000000458,1.0,,,,,,,,566,18,Woman,Right,,,,,,,,,,,,,,,,,566,18,Woman,Right,
5,3,1.0,0,180,180,0.4361961999993582,['y'],1.1162702999999965,2.0,,,,,,,,566,18,Woman,Right,,,,,,,,,,,,,,,,,566,18,Woman,Right,
5,3,1.0,180,0,0,0.5001176999994641,['y'],0.619539899999836,2.0,,,,,,,,566,18,Woman,Right,,,,,,,,,,,,,,,,,566,18,Woman,Right,
5,3,0.4,0,-,0,0.8069825000002311,['n'],0.5360862000006819,2.0,,,,,,,,566,18,Woman,Right,,,,,,,,,,,,,,,,,566,18,Woman,Right,
5,3,1.0,180,0,0,0.4417794999999387,['y'],0.6897782999994888,2.0,,,,,,,,566,18,Woman,Right,,,,,,,,,,,,,,,,,566,18,Woman,Right,
5,3,0.15,0,180,0,0.7571139000001494,['n'],0.6317939000000479,1.254,,,,,,,,566,18,Woman,Right,,,,,,,,,,,,,,,,,566,18,Woman,Right,
5,3,0.4,0,-,0,0.5362171000006128,['n'],0.3320131999998921,2.0,,,,,,,,566,18,Woman,Right,,,,,,,,,,,,,,,,,566,18,Woman,Right,
5,3,0.15,0,-,180,1.2973008999997546,['n'],0.9917773999995916,2.0,,,,,,,,566,18,Woman,Right,,,,,,,,,,,,,,,,,566,18,Woman,Right,
5,3,1.0,0,-,0,1.1408879000000525,['n'],0.735762799999975,2.0,,,,,,,,566,18,Woman,Right,,,,,,,,,,,,,,,,,566,18,Woman,Right,
5,3,1.0,0,180,180,0.41766720000032365,['y'],1.1860428999998476,2.0,,,,,,,,566,18,Woman,Right,,,,,,,,,,,,,,,,,566,18,Woman,Right,
5,3,0.4,180,-,180,0.5173528999994232,['n'],0.31412010000076407,2.0,,,,,,,,566,18,Woman,Right,,,,,,,,,,,,,,,,,566,18,Woman,Right,
5,3,0.15,0,180,180,1.0959449000001769,['y'],1.0311033999996653,2.0,,,,,,,,566,18,Woman,Right,,,,,,,,,,,,,,,,,566,18,Woman,Right,
5,3,1.0,0,180,180,1.0794815999997809,['y'],1.0611956000002465,2.0,,,,,,,,566,18,Woman,Right,,,,,,,,,,,,,,,,,566,18,Woman,Right,
5,3,1.0,180,-,180,2.1572031000005154,['n'],0.5124857999999222,1.88,8,7,10,7,0.8,1.0,,566,18,Woman,Right,,,,,,,,,,,,,,,,,566,18,Woman,Right,
,,,,,,,,,,,,,,,,4.800000169780105e-06,566,18,Woman,Right,,,,,,,,,,,,,,,,,566,18,Woman,Right,
,,,,,,,,,,,,,,,,,566,18,Woman,Right,0,38,0.4,1,180,-,180,1.3835441000001083,['y'],4.729273900000408,2.0,595.8986110000005,,,,,566,18,Woman,Right,
,,,,,,,,,,,,,,,,,566,18,Woman,Right,0,54,0.15,1,180,-,0,1.2742756999996345,['n'],2.103519299999789,1.642,603.3152950000003,,,,,566,18,Woman,Right,
,,,,,,,,,,,,,,,,,566,18,Woman,Right,0,45,0.15,2,0,180,0,1.2334470999994664,['y'],1.3111180000005334,1.74,611.6488607000001,,,,,566,18,Woman,Right,
,,,,,,,,,,,,,,,,,566,18,Woman,Right,0,48,0.15,1,0,-,180,2.2287953000004563,['n'],1.4469263999999384,1.6520000000000001,619.4154407000005,,,,,566,18,Woman,Right,
,,,,,,,,,,,,,,,,,566,18,Woman,Right,0,5,1,2,0,180,180,1.0120583999996597,['y'],1.6553835000004256,2.0,625.6652114999997,,,,,566,18,Woman,Right,
,,,,,,,,,,,,,,,,,566,18,Woman,Right,0,0,1,1,0,-,0,0.9305936000000656,['n'],1.183347600000161,2.0,631.3153233000003,,,,,566,18,Woman,Right,
,,,,,,,,,,,,,,,,,566,18,Woman,Right,0,43,0.4,2,180,0,0,0.7641451999998026,['y'],1.054947199999333,2.0,636.2821870999996,,,,,566,18,Woman,Right,
,,,,,,,,,,,,,,,,,566,18,Woman,Right,0,2,1,1,180,-,180,1.160746300000028,['n'],1.1669539000004079,2.0,642.0652497000001,,,,,566,18,Woman,Right,
,,,,,,,,,,,,,,,,,566,18,Woman,Right,0,29,0.4,2,0,180,180,0.6463015999997879,['y'],1.64679999999953,2.0,647.6986090999999,,,,,566,18,Woman,Right,
,,,,,,,,,,,,,,,,,566,18,Woman,Right,0,53,0.15,2,0,180,180,0.8660768999998254,['n'],3.750841600000058,2.0,655.5653321999998,,,,,566,18,Woman,Right,
,,,,,,,,,,,,,,,,,566,18,Woman,Right,0,65,0.15,2,0,180,180,0.6433489000000918,['y'],1.2868901000001642,1.674,660.6987724,,,,,566,18,Woman,Right,
,,,,,,,,,,,,,,,,,566,18,Woman,Right,0,28,0.4,1,0,-,0,0.6266976999995677,['n'],0.8949052000007214,1.842,665.1486581999998,,,,,566,18,Woman,Right,
,,,,,,,,,,,,,,,,,566,18,Woman,Right,0,9,0.4,2,0,180,180,0.41725419999966107,['y'],1.6870262000002185,1.874,670.5153466000002,,,,,566,18,Woman,Right,
,,,,,,,,,,,,,,,,,566,18,Woman,Right,0,13,0.4,2,0,180,180,0.3806456000002072,['y'],1.0549866000001202,1.744,675.5486960999997,,,,,566,18,Woman,Right,
,,,,,,,,,,,,,,,,,566,18,Woman,Right,0,51,0.15,2,180,0,0,0.4370680000001812,['y'],1.0310671999995975,1.826,679.9821185999999,,,,,566,18,Woman,Right,
,,,,,,,,,,,,,,,,,566,18,Woman,Right,0,47,0.15,2,180,0,0,0.545951299999615,['y'],0.9829822000001514,1.92,684.898655,,,,,566,18,Woman,Right,
,,,,,,,,,,,,,,,,,566,18,Woman,Right,0,32,0.4,1,0,-,180,0.3666970999993282,['y'],1.0069404000005306,1.8479999999999999,689.8320559000003,,,,,566,18,Woman,Right,
,,,,,,,,,,,,,,,,,566,18,Woman,Right,0,68,0.15,1,0,-,180,1.0610070000002452,['n'],1.3906925999999658,1.5939999999999999,696.2486897999997,,,,,566,18,Woman,Right,
,,,,,,,,,,,,,,,,,566,18,Woman,Right,0,6,1,1,180,-,180,0.7987000000002809,['n'],1.0389556999998604,1.854,701.8822621999998,,,,,566,18,Woman,Right,
,,,,,,,,,,,,,,,,,566,18,Woman,Right,0,18,0.4,1,180,-,180,0.5874184999993304,['n'],1.1429025999996156,1.8820000000000001,706.6165419999998,,,,,566,18,Woman,Right,
,,,,,,,,,,,,,,,,,566,18,Woman,Right,0,34,0.4,1,180,-,180,1.0669636000002356,['n'],1.9967972999993435,1.816,713.0822864000002,,,,,566,18,Woman,Right,
,,,,,,,,,,,,,,,,,566,18,Woman,Right,0,40,0.4,1,0,-,0,0.2765020999995613,['n'],1.1749571999998807,1.836,717.9653274000002,,,,,566,18,Woman,Right,
,,,,,,,,,,,,,,,,,566,18,Woman,Right,0,70,0.15,1,180,-,180,1.6888552999998865,['n'],0.9667655000002924,1.83,724.2154151000004,,,,,566,18,Woman,Right,
,,,,,,,,,,,,,,,,,566,18,Woman,Right,0,67,0.15,2,180,0,0,0.8847173999993174,['n'],1.4791591999992306,1.876,731.0330049000004,,,,,566,18,Woman,Right,
,,,,,,,,,,,,,,,,,566,18,Woman,Right,0,69,0.15,2,0,180,180,1.6990638000006584,['y'],1.4712853999999425,1.8860000000000001,737.4153689000004,,,,,566,18,Woman,Right,
,,,,,,,,,,,,,,,,,566,18,Woman,Right,0,75,0.15,2,180,0,0,1.1397515999997267,['n'],1.0711747000004834,1.562,743.8987868000004,,,,,566,18,Woman,Right,
,,,,,,,,,,,,,,,,,566,18,Woman,Right,0,14,0.4,1,180,-,180,0.34702219999962836,['n'],1.0395174000004772,2.0,748.5653975000005,,,,,566,18,Woman,Right,
,,,,,,,,,,,,,,,,,566,18,Woman,Right,0,31,0.4,2,180,0,0,0.4478383000005124,['y'],0.9913464000001113,2.0,753.2656779999998,,,,,566,18,Woman,Right,
,,,,,,,,,,,,,,,,,566,18,Woman,Right,0,46,0.15,1,180,-,0,0.7464995000000272,['y'],1.7990158000002339,2.0,759.0821028,,,,,566,18,Woman,Right,
,,,,,,,,,,,,,,,,,566,18,Woman,Right,0,11,0.4,2,180,0,0,0.29883590000008553,['y'],1.030586900000344,2.0,763.5321242,,,,,566,18,Woman,Right,
,,,,,,,,,,,,,,,,,566,18,Woman,Right,0,59,0.15,2,180,0,0,0.8167483999995966,['y'],1.4169990999998845,2.0,769.0654463999999,,,,,566,18,Woman,Right,
,,,,,,,,,,,,,,,,,566,18,Woman,Right,0,3,1,2,180,0,0,0.35212379999939003,['y'],0.9189657000006264,2.0,773.6655005000002,,,,,566,18,Woman,Right,
,,,,,,,,,,,,,,,,,566,18,Woman,Right,0,72,0.15,1,0,-,180,0.8957780000000639,['y'],1.1348876999991262,1.702,778.9497747000005,,,,,566,18,Woman,Right,
,,,,,,,,,,,,,,,,,566,18,Woman,Right,0,39,0.4,2,180,0,0,0.3197169000004578,['y'],1.0310793999997259,2.0,783.2988323,,,,,566,18,Woman,Right,
,,,,,,,,,,,,,,,,,566,18,Woman,Right,0,78,0.15,1,180,-,180,0.8496957999996084,['n'],0.8794570000000022,1.778,788.0655193000002,,,,,566,18,Woman,Right,
,,,,,,,,,,,,,,,,,566,18,Woman,Right,0,64,0.15,1,0,-,0,2.4046243000002505,['n'],1.0467850000004546,1.65,794.7988065,,,,,566,18,Woman,Right,
,,,,,,,,,,,,,,,,,566,18,Woman,Right,0,55,0.15,2,180,0,180,1.5157345999996323,['y'],1.0393708999999944,1.69,800.8155079999997,,,,,566,18,Woman,Right,
,,,,,,,,,,,,,,,,,566,18,Woman,Right,0,17,0.4,2,0,180,180,0.3644821999996566,['y'],1.0389279999999417,1.824,805.9655144999997,,,,,566,18,Woman,Right,
,,,,,,,,,,,,,,,,,566,18,Woman,Right,0,1,1,2,0,180,180,0.2616723999999522,['y'],1.0388747999995758,2.0,811.8321827,,,,,566,18,Woman,Right,
,,,,,,,,,,,,,,,,,566,18,Woman,Right,0,74,0.15,1,180,-,0,1.2913533000000825,['n'],1.3028363000003083,1.678,817.8821743999997,,,,,566,18,Woman,Right,
,,,,,,,,,,,,,,,,,566,18,Woman,Right,0,4,1,1,0,-,0,0.7185399999998481,['n'],0.958889000000454,2.0,822.5154984000001,,,,,566,18,Woman,Right,
,,,,,,,,,,,,,,,,,566,18,Woman,Right,0,15,0.4,2,180,0,0,0.4671410000000833,['y'],1.3236225999999078,2.0,827.4989205000002,,,,,566,18,Woman,Right,
,,,,,,,,,,,,,,,,,566,18,Woman,Right,0,61,0.15,2,0,180,180,1.4837966000004599,['y'],1.1237802000005104,1.504,832.7156203000004,,,,,566,18,Woman,Right,
,,,,,,,,,,,,,,,,,566,18,Woman,Right,0,19,0.4,2,180,0,0,0.3536284000001615,['y'],1.1189368000004833,2.0,837.4654651999999,,,,,566,18,Woman,Right,
,,,,,,,,,,,,,,,,,566,18,Woman,Right,0,60,0.15,1,0,-,0,0.7138396999998804,['n'],0.9264182999995683,1.558,842.4155369,,,,,566,18,Woman,Right,
,,,,,,,,,,,,,,,,,566,18,Woman,Right,0,27,0.4,2,180,0,0,0.3175983000000997,['y'],1.1672880000005534,1.716,847.6988833000005,,,,,566,18,Woman,Right,
,,,,,,,,,,,,,,,,,566,18,Woman,Right,0,41,0.4,2,0,180,180,0.22563629999967816,['y'],1.6469806999994034,2.0,857.3655724999999,,,,,566,18,Woman,Right,
,,,,,,,,,,,,,,,,,566,18,Woman,Right,0,42,0.4,1,180,-,180,1.0030325999996421,['n'],1.0468838999995569,1.6680000000000001,862.5490000999998,,,,,566,18,Woman,Right,
,,,,,,,,,,,,,,,,,566,18,Woman,Right,0,57,0.15,2,0,180,0,0.5505444000000352,['y'],1.0548203999996986,1.688,867.5155907999997,,,,,566,18,Woman,Right,
,,,,,,,,,,,,,,,,,566,18,Woman,Right,0,22,0.4,1,180,-,180,0.4091243000002578,['n'],0.7591045999997732,2.0,871.6322962000004,,,,,566,18,Woman,Right,
,,,,,,,,,,,,,,,,,566,18,Woman,Right,0,79,0.15,2,180,0,0,0.5382822000001397,['y'],1.0149701000000277,1.572,875.8489575000003,,,,,566,18,Woman,Right,
,,,,,,,,,,,,,,,,,566,18,Woman,Right,0,71,0.15,2,180,0,0,0.3663275999997495,['y'],0.9112703000000693,1.748,879.8323218000005,,,,,566,18,Woman,Right,
,,,,,,,,,,,,,,,,,566,18,Woman,Right,0,23,0.4,2,180,0,0,0.27687239999977464,['y'],0.9355617000001075,1.854,883.9656008000002,,,,,566,18,Woman,Right,
,,,,,,,,,,,,,,,,,566,18,Woman,Right,0,20,0.4,1,0,-,0,0.5502564000007624,['n'],0.8438248000002204,2.0,888.3824055000005,,,,,566,18,Woman,Right,
,,,,,,,,,,,,,,,,,566,18,Woman,Right,0,56,0.15,1,0,-,0,1.212410799999816,['n'],0.8709428000001935,1.418,893.7156035999997,,,,,566,18,Woman,Right,
,,,,,,,,,,,,,,,,,566,18,Woman,Right,0,26,0.4,1,180,-,0,2.232956299999387,['y'],0.511186099999577,2.0,899.2156906,,,,,566,18,Woman,Right,
,,,,,,,,,,,,,,,,,566,18,Woman,Right,0,62,0.15,1,180,-,180,0.986422500000117,['n'],4.574967700000343,1.838,908.6157420999998,,,,,566,18,Woman,Right,
,,,,,,,,,,,,,,,,,566,18,Woman,Right,0,37,0.4,2,0,180,180,0.5833471000005375,['y'],1.2233476999999766,1.9,914.4656201999996,,,,,566,18,Woman,Right,
,,,,,,,,,,,,,,,,,566,18,Woman,Right,0,58,0.15,1,180,-,0,1.7059428999991724,['n'],0.9584253000002718,1.83,920.2823106000005,,,,,566,18,Woman,Right,
,,,,,,,,,,,,,,,,,566,18,Woman,Right,0,16,0.4,1,0,-,0,0.6492199999993318,['n'],0.9509178999996948,1.6099999999999999,924.8989529,,,,,566,18,Woman,Right,
,,,,,,,,,,,,,,,,,566,18,Woman,Right,0,25,0.4,2,0,180,180,0.5382476000004317,['n'],1.1190279000002192,1.804,929.6656493999999,,,,,566,18,Woman,Right,
,,,,,,,,,,,,,,,,,566,18,Woman,Right,0,77,0.15,2,0,180,0,2.288989699999547,['y'],1.1749008000006143,1.434,936.1989334,,,,,566,18,Woman,Right,
,,,,,,,,,,,,,,,,,566,18,Woman,Right,0,10,0.4,1,180,-,0,1.601502999999866,['n'],1.5110371000000669,1.704,942.0991733000001,,,,,566,18,Woman,Right,
,,,,,,,,,,,,,,,,,566,18,Woman,Right,0,66,0.15,1,180,-,0,0.5452494999999544,['y'],0.8778929000000062,2.0,946.4492270999999,,,,,566,18,Woman,Right,
,,,,,,,,,,,,,,,,,566,18,Woman,Right,0,50,0.15,1,180,-,180,0.7005147999998371,['y'],0.8630292999996527,1.816,951.1657353,,,,,566,18,Woman,Right,
,,,,,,,,,,,,,,,,,566,18,Woman,Right,0,24,0.4,1,0,-,0,0.5204343999994308,['n'],0.7751556000002893,2.0,955.3989911999997,,,,,566,18,Woman,Right,
,,,,,,,,,,,,,,,,,566,18,Woman,Right,0,12,0.4,1,0,-,0,0.6243567000001349,['n'],0.8469552999995358,2.0,960.2162017,,,,,566,18,Woman,Right,
,,,,,,,,,,,,,,,,,566,18,Woman,Right,0,73,0.15,2,0,180,180,1.1334052000001975,['n'],3.4472132999999303,1.57,968.3665147000002,,,,,566,18,Woman,Right,
,,,,,,,,,,,,,,,,,566,18,Woman,Right,0,44,0.15,1,0,-,180,0.6323578999999881,['y'],1.0712499999999636,2.0,972.9657389000004,,,,,566,18,Woman,Right,
,,,,,,,,,,,,,,,,,566,18,Woman,Right,0,52,0.15,1,0,-,0,0.7961584000004223,['n'],0.9431635000000824,1.8820000000000001,977.6323952000002,,,,,566,18,Woman,Right,
,,,,,,,,,,,,,,,,,566,18,Woman,Right,0,76,0.15,1,0,-,180,0.6071010000005117,['n'],1.0466313999995691,1.3439999999999999,982.2825794999999,,,,,566,18,Woman,Right,
,,,,,,,,,,,,,,,,,566,18,Woman,Right,0,8,0.4,1,0,-,0,1.008774199999607,['n'],1.4628984000000855,2.0,988.3157315999997,,,,,566,18,Woman,Right,
,,,,,,,,,,,,,,,,,566,18,Woman,Right,0,35,0.4,2,180,0,0,0.5408735999999408,['y'],1.3828823000003467,2.0,993.4992456999998,,,,,566,18,Woman,Right,
,,,,,,,,,,,,,,,,,566,18,Woman,Right,0,30,0.4,1,180,-,0,0.3515722000001915,['y'],1.0071685000002617,1.63,997.5993165,,,,,566,18,Woman,Right,
,,,,,,,,,,,,,,,,,566,18,Woman,Right,0,7,1,2,180,0,0,0.8042940000004819,['y'],1.0388251999993372,2.0,1002.2656784999999,,,,,566,18,Woman,Right,
,,,,,,,,,,,,,,,,,566,18,Woman,Right,0,33,0.4,2,0,180,180,0.4169141000002128,['y'],0.8968133999997008,2.0,1006.6999479000006,,,,,566,18,Woman,Right,
,,,,,,,,,,,,,,,,,566,18,Woman,Right,0,49,0.15,2,0,180,0,0.5333261999994647,['y'],0.9049667999997837,1.6,1011.0159359999998,,,,,566,18,Woman,Right,
,,,,,,,,,,,,,,,,,566,18,Woman,Right,0,36,0.4,1,0,-,0,0.7061906999997518,['n'],0.6948845999995683,2.0,1015.8324324000005,,,,,566,18,Woman,Right,
,,,,,,,,,,,,,,,,,566,18,Woman,Right,0,21,0.4,2,0,180,180,0.4835112000000663,['n'],0.894801099999313,2.0,1020.3325720000003,,,,,566,18,Woman,Right,
,,,,,,,,,,,,,,,,,566,18,Woman,Right,0,63,0.15,2,180,0,0,0.6802827999999863,['y'],0.8630965000002107,2.0,1024.9491494000004,,,,,566,18,Woman,Right,
,,,,,,,,,,,,,,,,,566,18,Woman,Right,1,56,0.15,1,0,-,0,1.8014886000000843,['n'],1.7035992000000988,2.0,1054.0156552999997,76.25,77.5,85.0,,566,18,Woman,Right,
,,,,,,,,,,,,,,,,,566,18,Woman,Right,1,26,0.4,1,180,-,0,0.6151087000007465,['y'],1.0625135000000228,2.0,1059.0326341999998,,,,,566,18,Woman,Right,
,,,,,,,,,,,,,,,,,566,18,Woman,Right,1,7,1,2,180,0,0,1.2002779000004011,['y'],1.4708638000001883,1.762,1065.0157614999998,,,,,566,18,Woman,Right,
,,,,,,,,,,,,,,,,,566,18,Woman,Right,1,40,0.4,1,0,-,180,0.8943391000002521,['y'],0.9511161999998876,1.746,1069.6490939000005,,,,,566,18,Woman,Right,
,,,,,,,,,,,,,,,,,566,18,Woman,Right,1,67,0.15,2,180,0,0,0.7042912999995679,['y'],0.9267666999994617,1.964,1074.1333382000003,,,,,566,18,Woman,Right,
,,,,,,,,,,,,,,,,,566,18,Woman,Right,1,50,0.15,1,180,-,0,0.4720650999997815,['y'],1.038911100000405,1.978,1078.8326560000005,,,,,566,18,Woman,Right,
,,,,,,,,,,,,,,,,,566,18,Woman,Right,1,38,0.4,1,180,-,0,0.6141491999997015,['n'],0.9990729000001011,1.846,1083.5324922,,,,,566,18,Woman,Right,
,,,,,,,,,,,,,,,,,566,18,Woman,Right,1,33,0.4,2,0,180,180,0.29504350000024715,['y'],0.7670404000000417,1.876,1087.8991439000001,,,,,566,18,Woman,Right,
,,,,,,,,,,,,,,,,,566,18,Woman,Right,1,18,0.4,1,180,-,0,3.434867800000575,['n'],1.1831239000002824,1.896,1095.9824386,,,,,566,18,Woman,Right,
,,,,,,,,,,,,,,,,,566,18,Woman,Right,1,70,0.15,1,180,-,0,0.4760932999997749,['y'],0.9673056999999972,1.9060000000000001,1100.8664214,,,,,566,18,Woman,Right,
,,,,,,,,,,,,,,,,,566,18,Woman,Right,1,13,0.4,2,0,180,180,0.5715644000001703,['y'],1.2788796999993792,2.0,1106.5157166999998,,,,,566,18,Woman,Right,
,,,,,,,,,,,,,,,,,566,18,Woman,Right,1,37,0.4,2,0,180,180,2.6832617999998547,['y'],1.6630409999997937,1.918,1114.7167043,,,,,566,18,Woman,Right,
,,,,,,,,,,,,,,,,,566,18,Woman,Right,1,11,0.4,2,180,0,0,0.30623280000054365,['y'],1.0227844999999434,2.0,1119.4325896999999,,,,,566,18,Woman,Right,
,,,,,,,,,,,,,,,,,566,18,Woman,Right,1,42,0.4,1,180,-,0,0.3700760000001537,['y'],0.9509128999998211,2.0,1124.4657612,,,,,566,18,Woman,Right,
,,,,,,,,,,,,,,,,,566,18,Woman,Right,1,29,0.4,2,0,180,180,0.5166457000004812,['y'],0.8309408000004623,2.0,1128.7666712999999,,,,,566,18,Woman,Right,
,,,,,,,,,,,,,,,,,566,18,Woman,Right,1,43,0.4,2,180,0,0,0.333471400000235,['y'],1.0035453999998936,2.0,1132.8995154000004,,,,,566,18,Woman,Right,
,,,,,,,,,,,,,,,,,566,18,Woman,Right,1,1,1,2,0,180,180,0.49268469999969966,['y'],0.695375299999796,2.0,1137.0825747,,,,,566,18,Woman,Right,
,,,,,,,,,,,,,,,,,566,18,Woman,Right,1,39,0.4,2,180,0,0,0.3187121999999363,['y'],0.7189874000005148,2.0,1141.1993523,,,,,566,18,Woman,Right,
,,,,,,,,,,,,,,,,,566,18,Woman,Right,1,28,0.4,1,0,-,0,0.8808368999998493,['n'],0.9827691000000414,1.776,1146.3658821,,,,,566,18,Woman,Right,
,,,,,,,,,,,,,,,,,566,18,Woman,Right,1,74,0.15,1,180,-,0,0.8749610000004395,['n'],0.8620880000007674,1.798,1151.3825206000001,,,,,566,18,Woman,Right,
,,,,,,,,,,,,,,,,,566,18,Woman,Right,1,41,0.4,2,0,180,180,0.4552344000003359,['y'],0.862858999999844,2.0,1155.5159764999999,,,,,566,18,Woman,Right,
,,,,,,,,,,,,,,,,,566,18,Woman,Right,1,45,0.15,2,0,180,0,0.6627150999993319,['n'],1.1989059999996243,1.576,1160.6825931999992,,,,,566,18,Woman,Right,
,,,,,,,,,,,,,,,,,566,18,Woman,Right,1,51,0.15,2,180,0,0,0.503374599999006,['n'],1.094762400000036,1.554,1165.4325700999998,,,,,566,18,Woman,Right,
,,,,,,,,,,,,,,,,,566,18,Woman,Right,1,71,0.15,2,180,0,0,0.44879349999973783,['y'],1.4868230000010954,1.472,1170.7659175999997,,,,,566,18,Woman,Right,
,,,,,,,,,,,,,,,,,566,18,Woman,Right,1,63,0.15,2,180,0,0,0.598019099999874,['y'],1.0951320999993186,1.522,1175.2159295000001,,,,,566,18,Woman,Right,
,,,,,,,,,,,,,,,,,566,18,Woman,Right,1,36,0.4,1,0,-,0,0.7088210000001709,['n'],1.1267481999984739,2.0,1180.3991963999997,,,,,566,18,Woman,Right,
,,,,,,,,,,,,,,,,,566,18,Woman,Right,1,3,1,2,180,0,0,1.0727301999995689,['y'],1.3268965000006574,2.0,1185.6160643999992,,,,,566,18,Woman,Right,
,,,,,,,,,,,,,,,,,566,18,Woman,Right,1,55,0.15,2,180,0,180,3.8336811999997735,['n'],1.7165343000015127,2.0,1194.5826085000008,,,,,566,18,Woman,Right,
,,,,,,,,,,,,,,,,,566,18,Woman,Right,1,54,0.15,1,180,-,0,1.1211256999995385,['y'],1.1991018999997323,2.0,1200.2825826000008,,,,,566,18,Woman,Right,
,,,,,,,,,,,,,,,,,566,18,Woman,Right,1,14,0.4,1,180,-,180,0.46901789999901666,['y'],0.9431010999996943,2.0,1204.7825690999998,,,,,566,18,Woman,Right,
,,,,,,,,,,,,,,,,,566,18,Woman,Right,1,73,0.15,2,0,180,0,0.42313929999909305,['n'],1.254888999999821,2.0,1209.5659171999996,,,,,566,18,Woman,Right,
,,,,,,,,,,,,,,,,,566,18,Woman,Right,1,66,0.15,1,180,-,180,0.33138700000017707,['y'],0.9750443000011728,2.0,1213.7828594000002,,,,,566,18,Woman,Right,
,,,,,,,,,,,,,,,,,566,18,Woman,Right,1,30,0.4,1,180,-,180,0.7532016999994084,['n'],1.2874408000006952,1.68,1218.8158803999995,,,,,566,18,Woman,Right,
,,,,,,,,,,,,,,,,,566,18,Woman,Right,1,65,0.15,2,0,180,180,1.9380171000011615,['n'],1.8950256000007357,1.5899999999999999,1225.6325796,,,,,566,18,Woman,Right,
,,,,,,,,,,,,,,,,,566,18,Woman,Right,1,49,0.15,2,0,180,0,0.35252030000083323,['n'],0.830986999999368,1.784,1229.6825645000008,,,,,566,18,Woman,Right,
,,,,,,,,,,,,,,,,,566,18,Woman,Right,1,35,0.4,2,180,0,0,0.7919702999988658,['y'],0.6388379999989411,1.8559999999999999,1234.5004203999997,,,,,566,18,Woman,Right,
,,,,,,,,,,,,,,,,,566,18,Woman,Right,1,78,0.15,1,180,-,0,0.45489439999983006,['y'],0.8146700000015699,1.83,1238.9659960999998,,,,,566,18,Woman,Right,
,,,,,,,,,,,,,,,,,566,18,Woman,Right,1,20,0.4,1,0,-,0,0.36455410000053234,['n'],0.7909004000011919,2.0,1242.799904900001,,,,,566,18,Woman,Right,
,,,,,,,,,,,,,,,,,566,18,Woman,Right,1,79,0.15,2,180,0,0,1.2832918999993126,['n'],1.0467525999993086,1.58,1247.9160174000008,,,,,566,18,Woman,Right,
,,,,,,,,,,,,,,,,,566,18,Woman,Right,1,4,1,1,0,-,0,0.3502033000004303,['n'],1.0159924999989016,2.0,1252.4161325999994,,,,,566,18,Woman,Right,
,,,,,,,,,,,,,,,,,566,18,Woman,Right,1,61,0.15,2,0,180,0,0.5265303000014683,['n'],1.0628114999999525,1.8439999999999999,1257.1659782000006,,,,,566,18,Woman,Right,
,,,,,,,,,,,,,,,,,566,18,Woman,Right,1,15,0.4,2,180,0,0,0.4612137000003713,['y'],0.694812899999306,2.0,1262.0826514,,,,,566,18,Woman,Right,
,,,,,,,,,,,,,,,,,566,18,Woman,Right,1,59,0.15,2,180,0,0,0.30592090000027383,['y'],0.7348560999998881,2.0,1266.2493235000002,,,,,566,18,Woman,Right,
,,,,,,,,,,,,,,,,,566,18,Woman,Right,1,31,0.4,2,180,0,0,0.39378389999910723,['y'],0.9343975000010687,2.0,1271.3829153999995,,,,,566,18,Woman,Right,
,,,,,,,,,,,,,,,,,566,18,Woman,Right,1,62,0.15,1,180,-,0,1.944448399999601,['y'],0.8634794000008696,1.762,1277.4993964999994,,,,,566,18,Woman,Right,
,,,,,,,,,,,,,,,,,566,18,Woman,Right,1,76,0.15,1,0,-,180,0.7812995000003866,['y'],0.6870782999994844,2.0,1282.0160787999994,,,,,566,18,Woman,Right,
,,,,,,,,,,,,,,,,,566,18,Woman,Right,1,53,0.15,2,0,180,0,0.5059431999998196,['n'],0.9987617999995564,2.0,1286.2326171000004,,,,,566,18,Woman,Right,
,,,,,,,,,,,,,,,,,566,18,Woman,Right,1,34,0.4,1,180,-,0,0.7597607999996399,['n'],1.2630816000000777,1.3980000000000001,1291.2993179999994,,,,,566,18,Woman,Right,
,,,,,,,,,,,,,,,,,566,18,Woman,Right,1,58,0.15,1,180,-,180,1.0677552999986801,['n'],0.959726099999898,2.0,1296.2993766,,,,,566,18,Woman,Right,
,,,,,,,,,,,,,,,,,566,18,Woman,Right,1,9,0.4,2,0,180,180,0.8558436000002985,['y'],0.4149075000004814,2.0,1300.6327400999999,,,,,566,18,Woman,Right,
,,,,,,,,,,,,,,,,,566,18,Woman,Right,1,57,0.15,2,0,180,180,0.5272540000005392,['n'],0.8709368999989238,2.0,1305.132715400001,,,,,566,18,Woman,Right,
,,,,,,,,,,,,,,,,,566,18,Woman,Right,1,24,0.4,1,0,-,0,0.6149991000002046,['n'],0.7268904000011389,2.0,1309.3330287000008,,,,,566,18,Woman,Right,
,,,,,,,,,,,,,,,,,566,18,Woman,Right,1,68,0.15,1,0,-,0,0.33338670000011916,['n'],0.9973767999999836,2.0,1313.8835743,,,,,566,18,Woman,Right,
,,,,,,,,,,,,,,,,,566,18,Woman,Right,1,46,0.15,1,180,-,180,0.7125914999996894,['n'],0.9192215999992186,1.784,1318.9327869999997,,,,,566,18,Woman,Right,
,,,,,,,,,,,,,,,,,566,18,Woman,Right,1,2,1,1,180,-,180,0.695794899998873,['n'],0.6550088000003598,1.572,1323.7993478999997,,,,,566,18,Woman,Right,
,,,,,,,,,,,,,,,,,566,18,Woman,Right,1,77,0.15,2,0,180,180,0.7988869000000705,['n'],1.062937900000179,1.708,1328.7327134999996,,,,,566,18,Woman,Right,
,,,,,,,,,,,,,,,,,566,18,Woman,Right,1,72,0.15,1,0,-,0,0.3597929999996268,['n'],0.6952361000003293,2.0,1332.3829084999998,,,,,566,18,Woman,Right,
,,,,,,,,,,,,,,,,,566,18,Woman,Right,1,52,0.15,1,0,-,180,0.7882658999988053,['y'],2.055100300000049,1.6320000000000001,1338.4660609000002,,,,,566,18,Woman,Right,
,,,,,,,,,,,,,,,,,566,18,Woman,Right,1,25,0.4,2,0,180,180,0.39977619999990566,['y'],1.0311260999988008,2.0,1343.1337619999995,,,,,566,18,Woman,Right,
,,,,,,,,,,,,,,,,,566,18,Woman,Right,1,17,0.4,2,0,180,180,0.4056992000005266,['y'],0.7671255999994173,2.0,1347.6493346999996,,,,,566,18,Woman,Right,
,,,,,,,,,,,,,,,,,566,18,Woman,Right,1,12,0.4,1,0,-,0,0.7826165000005858,['n'],0.8625587999995332,2.0,1352.2326940000003,,,,,566,18,Woman,Right,
,,,,,,,,,,,,,,,,,566,18,Woman,Right,1,5,1,2,0,180,180,0.5763483000009728,['y'],1.119024300000092,2.0,1357.1161212999996,,,,,566,18,Woman,Right,
,,,,,,,,,,,,,,,,,566,18,Woman,Right,1,19,0.4,2,180,0,0,0.4157739999991463,['y'],0.8230769999991026,2.0,1361.4328091999996,,,,,566,18,Woman,Right,
,,,,,,,,,,,,,,,,,566,18,Woman,Right,1,16,0.4,1,0,-,0,0.4617791999990004,['n'],0.6789538000011817,2.0,1365.5496623,,,,,566,18,Woman,Right,
,,,,,,,,,,,,,,,,,566,18,Woman,Right,1,21,0.4,2,0,180,180,0.23390939999990223,['y'],0.7271831999987626,2.0,1369.2662648999994,,,,,566,18,Woman,Right,
,,,,,,,,,,,,,,,,,566,18,Woman,Right,1,22,0.4,1,180,-,180,0.35001110000121116,['n'],0.7719961000002513,2.0,1373.5328074000008,,,,,566,18,Woman,Right,
,,,,,,,,,,,,,,,,,566,18,Woman,Right,1,75,0.15,2,180,0,180,1.8783492000002298,['y'],0.6868837999991229,1.778,1380.9327690999999,,,,,566,18,Woman,Right,
,,,,,,,,,,,,,,,,,566,18,Woman,Right,1,23,0.4,2,180,0,0,0.5516762000006565,['y'],0.8392220999994606,2.0,1385.8160800999995,,,,,566,18,Woman,Right,
,,,,,,,,,,,,,,,,,566,18,Woman,Right,1,27,0.4,2,180,0,0,0.5909207000004244,['y'],0.8949773000003916,2.0,1390.0661772000003,,,,,566,18,Woman,Right,
,,,,,,,,,,,,,,,,,566,18,Woman,Right,1,32,0.4,1,0,-,0,0.26899129999947036,['n'],0.6153076000009605,2.0,1394.3995584999993,,,,,566,18,Woman,Right,
,,,,,,,,,,,,,,,,,566,18,Woman,Right,1,6,1,1,180,-,180,0.3891520999986824,['y'],0.9672217999996064,2.0,1400.8996470000002,,,,,566,18,Woman,Right,
,,,,,,,,,,,,,,,,,566,18,Woman,Right,1,8,0.4,1,0,-,0,0.3317823999987013,['n'],0.7748627000000852,2.0,1405.5328279999994,,,,,566,18,Woman,Right,
,,,,,,,,,,,,,,,,,566,18,Woman,Right,1,48,0.15,1,0,-,0,1.8477256999995006,['n'],0.6550752999992255,2.0,1411.2830622000001,,,,,566,18,Woman,Right,
,,,,,,,,,,,,,,,,,566,18,Woman,Right,1,69,0.15,2,0,180,0,0.43109070000173233,['n'],1.0549667999985104,1.408,1419.299478500001,,,,,566,18,Woman,Right,
,,,,,,,,,,,,,,,,,566,18,Woman,Right,1,10,0.4,1,180,-,180,0.698521599999367,['n'],0.6226349000007758,2.0,1423.8001571999994,,,,,566,18,Woman,Right,
,,,,,,,,,,,,,,,,,566,18,Woman,Right,1,47,0.15,2,180,0,0,0.3621058000007906,['y'],0.7749956000006932,2.0,1427.7161806999993,,,,,566,18,Woman,Right,
,,,,,,,,,,,,,,,,,566,18,Woman,Right,1,0,1,1,0,-,0,0.9500712000008207,['n'],0.6285634999985632,2.0,1432.2662142999998,,,,,566,18,Woman,Right,
,,,,,,,,,,,,,,,,,566,18,Woman,Right,1,64,0.15,1,0,-,0,1.1976560000002792,['y'],0.7349310999998124,1.738,1437.2328073999997,,,,,566,18,Woman,Right,
,,,,,,,,,,,,,,,,,566,18,Woman,Right,1,60,0.15,1,0,-,0,0.3689482000008866,['n'],1.0792495000005147,1.536,1441.5161984000006,,,,,566,18,Woman,Right,
,,,,,,,,,,,,,,,,,566,18,Woman,Right,1,44,0.15,1,0,-,0,0.3461849999985134,['y'],1.1109679000001051,1.558,1445.8661907000005,,,,,566,18,Woman,Right,
,,,,,,,,,,,,,,,,,566,18,Woman,Right,2,43,0.4,2,180,0,0,1.5557334999994055,['y'],0.5514787000010983,1.8479999999999999,1474.0833985000008,72.5,62.5,70.0,,566,18,Woman,Right,
,,,,,,,,,,,,,,,,,566,18,Woman,Right,2,65,0.15,2,0,180,180,0.7515602000003128,['n'],0.45493489999898884,1.948,1477.866369200001,,,,,566,18,Woman,Right,
,,,,,,,,,,,,,,,,,566,18,Woman,Right,2,38,0.4,1,180,-,0,0.5720130999998219,['y'],0.40655619999961345,1.83,1482.0162937000005,,,,,566,18,Woman,Right,
,,,,,,,,,,,,,,,,,566,18,Woman,Right,2,48,0.15,1,0,-,180,0.46683180000036373,['y'],0.9511464999995951,1.9060000000000001,1486.5662350000002,,,,,566,18,Woman,Right,
,,,,,,,,,,,,,,,,,566,18,Woman,Right,2,45,0.15,2,0,180,0,0.481794200000877,['n'],0.5027398000001995,1.816,1490.6497063000006,,,,,566,18,Woman,Right,
,,,,,,,,,,,,,,,,,566,18,Woman,Right,2,62,0.15,1,180,-,0,1.8484583999997994,['y'],0.47877619999962917,1.824,1495.8161670000009,,,,,566,18,Woman,Right,
,,,,,,,,,,,,,,,,,566,18,Woman,Right,2,77,0.15,2,0,180,180,0.7403290999991441,['y'],0.6467613000004349,1.642,1499.8168442000006,,,,,566,18,Woman,Right,
,,,,,,,,,,,,,,,,,566,18,Woman,Right,2,78,0.15,1,180,-,0,0.3922521999993478,['n'],0.5589089000004606,1.6640000000000001,1503.6995545999998,,,,,566,18,Woman,Right,
,,,,,,,,,,,,,,,,,566,18,Woman,Right,2,54,0.15,1,180,-,180,0.7849743000006129,['y'],0.35869149999962247,1.6019999999999999,1507.8496013000004,,,,,566,18,Woman,Right,
,,,,,,,,,,,,,,,,,566,18,Woman,Right,2,19,0.4,2,180,0,0,0.32130549999965297,['y'],0.6869767000007414,1.754,1511.7997904999993,,,,,566,18,Woman,Right,
,,,,,,,,,,,,,,,,,566,18,Woman,Right,2,51,0.15,2,180,0,0,0.8209351999994396,['y'],0.5351516000009724,1.702,1516.2328660000003,,,,,566,18,Woman,Right,
,,,,,,,,,,,,,,,,,566,18,Woman,Right,2,74,0.15,1,180,-,0,0.6042148999986239,['y'],1.0228831000003993,1.738,1520.7831614999996,,,,,566,18,Woman,Right,
,,,,,,,,,,,,,,,,,566,18,Woman,Right,2,57,0.15,2,0,180,0,0.45137959999919985,['n'],0.7258474000009301,1.806,1524.9998503000006,,,,,566,18,Woman,Right,
,,,,,,,,,,,,,,,,,566,18,Woman,Right,2,13,0.4,2,0,180,180,0.5974450000012439,['y'],0.4550742999999784,1.8519999999999999,1529.0831932,,,,,566,18,Woman,Right,
,,,,,,,,,,,,,,,,,566,18,Woman,Right,2,9,0.4,2,0,180,180,0.7088406000002578,['y'],0.3828356000012718,1.8679999999999999,1532.9830352000008,,,,,566,18,Woman,Right,
,,,,,,,,,,,,,,,,,566,18,Woman,Right,2,33,0.4,2,0,180,180,0.3928739000002679,['y'],0.6551084000002447,1.832,1537.0662986000007,,,,,566,18,Woman,Right,
,,,,,,,,,,,,,,,,,566,18,Woman,Right,2,50,0.15,1,180,-,0,0.2954752000005101,['y'],0.670884200000728,2.0,1540.7331759999997,,,,,566,18,Woman,Right,
,,,,,,,,,,,,,,,,,566,18,Woman,Right,2,30,0.4,1,180,-,0,0.30738259999998263,['y'],0.6469904000005045,1.6320000000000001,1544.3329742999995,,,,,566,18,Woman,Right,
,,,,,,,,,,,,,,,,,566,18,Woman,Right,2,79,0.15,2,180,0,0,0.7668274999996356,['n'],0.76906020000024,1.6139999999999999,1549.2996361000005,,,,,566,18,Woman,Right,
,,,,,,,,,,,,,,,,,566,18,Woman,Right,2,25,0.4,2,0,180,180,0.4668892000008782,['y'],0.6260246999991068,1.738,1553.2998716000002,,,,,566,18,Woman,Right,
,,,,,,,,,,,,,,,,,566,18,Woman,Right,2,15,0.4,2,180,0,0,0.3234632999992755,['y'],0.6315773999995145,2.0,1556.9329973000004,,,,,566,18,Woman,Right,
,,,,,,,,,,,,,,,,,566,18,Woman,Right,2,1,1,2,0,180,180,0.745572899999388,['n'],0.486795599999823,1.772,1561.3499952000002,,,,,566,18,Woman,Right,
,,,,,,,,,,,,,,,,,566,18,Woman,Right,2,52,0.15,1,0,-,0,0.9002522999999201,['y'],1.1668383000014728,1.836,1566.4162895000009,,,,,566,18,Woman,Right,
,,,,,,,,,,,,,,,,,566,18,Woman,Right,2,60,0.15,1,0,-,0,2.5884538999998767,['y'],0.7906483000006119,2.0,1572.899615800001,,,,,566,18,Woman,Right,
,,,,,,,,,,,,,,,,,566,18,Woman,Right,2,40,0.4,1,0,-,0,0.29757969999991474,['n'],0.6147952000010264,2.0,1576.5167112,,,,,566,18,Woman,Right,
,,,,,,,,,,,,,,,,,566,18,Woman,Right,2,44,0.15,1,0,-,0,0.9195333999996365,['n'],0.4709168999997928,1.418,1580.7164336000005,,,,,566,18,Woman,Right,
,,,,,,,,,,,,,,,,,566,18,Woman,Right,2,73,0.15,2,0,180,0,0.1653100000003178,['y'],0.574964600000385,1.912,1584.1831920000004,,,,,566,18,Woman,Right,
,,,,,,,,,,,,,,,,,566,18,Woman,Right,2,46,0.15,1,180,-,0,0.4047452999984671,['y'],0.5592336999998224,1.874,1588.1172286,,,,,566,18,Woman,Right,
,,,,,,,,,,,,,,,,,566,18,Woman,Right,2,32,0.4,1,0,-,180,2.0953563999992184,['n'],0.7269467000005534,1.6520000000000001,1593.7665727999993,,,,,566,18,Woman,Right,
,,,,,,,,,,,,,,,,,566,18,Woman,Right,2,37,0.4,2,0,180,180,0.7756444999995438,['y'],0.5030292000010377,1.87,1598.2663864000006,,,,,566,18,Woman,Right,
,,,,,,,,,,,,,,,,,566,18,Woman,Right,2,0,1,1,0,-,0,0.49070209999990766,['n'],0.8792286999996577,1.948,1602.7497127999995,,,,,566,18,Woman,Right,
,,,,,,,,,,,,,,,,,566,18,Woman,Right,2,18,0.4,1,180,-,180,0.7502877000006265,['n'],0.4027096000008896,1.91,1606.8329372000007,,,,,566,18,Woman,Right,
,,,,,,,,,,,,,,,,,566,18,Woman,Right,2,2,1,1,180,-,180,0.7602076000002853,['y'],0.5107351999995444,1.91,1611.3497310000002,,,,,566,18,Woman,Right,
,,,,,,,,,,,,,,,,,566,18,Woman,Right,2,70,0.15,1,180,-,0,0.8375276999995549,['y'],0.8630038000010245,1.91,1616.199673000001,,,,,566,18,Woman,Right,
,,,,,,,,,,,,,,,,,566,18,Woman,Right,2,27,0.4,2,180,0,0,0.7334907000004023,['y'],0.39112159999967844,1.896,1620.0499397999993,,,,,566,18,Woman,Right,
,,,,,,,,,,,,,,,,,566,18,Woman,Right,2,8,0.4,1,0,-,0,0.6287687999993068,['n'],0.6149719000004552,1.92,1624.2164329000007,,,,,566,18,Woman,Right,
,,,,,,,,,,,,,,,,,566,18,Woman,Right,2,49,0.15,2,0,180,0,0.4689596000007441,['n'],0.5508441000001767,1.9020000000000001,1628.8833398000006,,,,,566,18,Woman,Right,
,,,,,,,,,,,,,,,,,566,18,Woman,Right,2,21,0.4,2,0,180,180,0.566047599999365,['y'],0.3908414999987144,1.952,1632.9333685000001,,,,,566,18,Woman,Right,
,,,,,,,,,,,,,,,,,566,18,Woman,Right,2,58,0.15,1,180,-,0,0.32061959999919054,['n'],0.5910334000000148,1.9060000000000001,1636.750030700001,,,,,566,18,Woman,Right,
,,,,,,,,,,,,,,,,,566,18,Woman,Right,2,71,0.15,2,180,0,180,1.3735773999997036,['n'],0.8148424999999406,1.8439999999999999,1641.2829956999994,,,,,566,18,Woman,Right,
,,,,,,,,,,,,,,,,,566,18,Woman,Right,2,59,0.15,2,180,0,0,1.5280024000003323,['n'],0.6630267000000458,1.6440000000000001,1647.0497195000007,,,,,566,18,Woman,Right,
,,,,,,,,,,,,,,,,,566,18,Woman,Right,2,29,0.4,2,0,180,180,0.5600268000016513,['y'],0.4949760999988939,1.976,1651.8666419,,,,,566,18,Woman,Right,
,,,,,,,,,,,,,,,,,566,18,Woman,Right,2,3,1,2,180,0,180,0.8534486999997171,['y'],0.8549094000009063,1.96,1656.6999878000006,,,,,566,18,Woman,Right,
,,,,,,,,,,,,,,,,,566,18,Woman,Right,2,26,0.4,1,180,-,180,1.2806457000006048,['n'],1.2790573000002041,1.9,1662.6663958000008,,,,,566,18,Woman,Right,
,,,,,,,,,,,,,,,,,566,18,Woman,Right,2,28,0.4,1,0,-,0,0.7168241000017588,['n'],0.6014464999989286,1.972,1667.0330852000006,,,,,566,18,Woman,Right,
,,,,,,,,,,,,,,,,,566,18,Woman,Right,2,72,0.15,1,0,-,180,0.7507100000002538,['y'],0.3428791000005731,2.0,1672.3164109999998,,,,,566,18,Woman,Right,
,,,,,,,,,,,,,,,,,566,18,Woman,Right,2,35,0.4,2,180,0,0,0.348536100000274,['y'],0.6229172000003018,2.0,1676.6164372000003,,,,,566,18,Woman,Right,
,,,,,,,,,,,,,,,,,566,18,Woman,Right,2,12,0.4,1,0,-,0,0.8054676000010659,['n'],0.9188535000012052,1.748,1681.1330651999997,,,,,566,18,Woman,Right,
,,,,,,,,,,,,,,,,,566,18,Woman,Right,2,23,0.4,2,180,0,0,0.4433924000004481,['y'],0.6948949999987235,1.8439999999999999,1685.5501753000008,,,,,566,18,Woman,Right,
,,,,,,,,,,,,,,,,,566,18,Woman,Right,2,68,0.15,1,0,-,0,0.6478542000004381,['n'],0.8308742999997776,1.926,1689.7498140999996,,,,,566,18,Woman,Right,
,,,,,,,,,,,,,,,,,566,18,Woman,Right,2,10,0.4,1,180,-,0,0.3045168000007834,['y'],0.8071225999992748,1.874,1694.0330553000003,,,,,566,18,Woman,Right,
,,,,,,,,,,,,,,,,,566,18,Woman,Right,2,76,0.15,1,0,-,0,0.49077480000050855,['n'],0.750927999999476,1.558,1698.1331360999993,,,,,566,18,Woman,Right,
,,,,,,,,,,,,,,,,,566,18,Woman,Right,2,36,0.4,1,0,-,0,0.9187481999997544,['n'],0.7987900000007357,2.0,1702.5331227000006,,,,,566,18,Woman,Right,
,,,,,,,,,,,,,,,,,566,18,Woman,Right,2,22,0.4,1,180,-,0,1.0777610999994067,['y'],0.6469890000007581,1.896,1707.5664985999992,,,,,566,18,Woman,Right,
,,,,,,,,,,,,,,,,,566,18,Woman,Right,2,69,0.15,2,0,180,0,0.37660780000078375,['y'],0.59104379999917,1.924,1712.4998990999993,,,,,566,18,Woman,Right,
,,,,,,,,,,,,,,,,,566,18,Woman,Right,2,55,0.15,2,180,0,0,0.36988989999917976,['n'],0.6949046000008821,1.734,1717.0330959000003,,,,,566,18,Woman,Right,
,,,,,,,,,,,,,,,,,566,18,Woman,Right,2,39,0.4,2,180,0,0,1.6390128999992157,['y'],1.9906522999990557,1.736,1723.5839828999997,,,,,566,18,Woman,Right,
,,,,,,,,,,,,,,,,,566,18,Woman,Right,2,16,0.4,1,0,-,0,0.9506965000000491,['n'],0.5742711999992025,1.842,1728.7834364999999,,,,,566,18,Woman,Right,
,,,,,,,,,,,,,,,,,566,18,Woman,Right,2,6,1,1,180,-,0,0.9793229000006249,['y'],0.5829441999994742,2.0,1733.6498327999998,,,,,566,18,Woman,Right,
,,,,,,,,,,,,,,,,,566,18,Woman,Right,2,61,0.15,2,0,180,180,0.7454774000016187,['n'],0.399305999999342,1.812,1738.9167106000004,,,,,566,18,Woman,Right,
,,,,,,,,,,,,,,,,,566,18,Woman,Right,2,75,0.15,2,180,0,0,0.3507430999998178,['n'],1.110916300000099,2.0,1743.1831989000002,,,,,566,18,Woman,Right,
,,,,,,,,,,,,,,,,,566,18,Woman,Right,2,47,0.15,2,180,0,0,0.6921415999986493,['y'],0.6387897999993584,2.0,1747.4840033,,,,,566,18,Woman,Right,
,,,,,,,,,,,,,,,,,566,18,Woman,Right,2,14,0.4,1,180,-,0,0.6839492999988579,['y'],0.6150158000000374,2.0,1751.7499193999993,,,,,566,18,Woman,Right,
,,,,,,,,,,,,,,,,,566,18,Woman,Right,2,17,0.4,2,0,180,180,0.6387945999995281,['y'],0.3747192000009818,2.0,1755.7165908000006,,,,,566,18,Woman,Right,
,,,,,,,,,,,,,,,,,566,18,Woman,Right,2,4,1,1,0,-,0,0.49412760000086564,['n'],0.7992444999999861,2.0,1759.9001301999997,,,,,566,18,Woman,Right,
,,,,,,,,,,,,,,,,,566,18,Woman,Right,2,7,1,2,180,0,0,0.33431389999896055,['y'],0.7189156000004004,1.762,1764.033390300001,,,,,566,18,Woman,Right,
,,,,,,,,,,,,,,,,,566,18,Woman,Right,2,31,0.4,2,180,0,0,0.3623521999998047,['y'],1.1270070000009582,1.786,1768.5834720999992,,,,,566,18,Woman,Right,
,,,,,,,,,,,,,,,,,566,18,Woman,Right,2,53,0.15,2,0,180,180,1.1366483000001608,['y'],0.48687080000127025,1.558,1774.1165571000001,,,,,566,18,Woman,Right,
,,,,,,,,,,,,,,,,,566,18,Woman,Right,2,42,0.4,1,180,-,0,0.6585445000000618,['y'],0.37489559999994526,1.6440000000000001,1777.6832919999997,,,,,566,18,Woman,Right,
,,,,,,,,,,,,,,,,,566,18,Woman,Right,2,34,0.4,1,180,-,0,0.19377859999985958,['n'],0.7029077999995934,1.76,1782.5665279999994,,,,,566,18,Woman,Right,
,,,,,,,,,,,,,,,,,566,18,Woman,Right,2,67,0.15,2,180,0,0,1.2064697999994678,['y'],0.5110934999993333,1.702,1787.6665386000004,,,,,566,18,Woman,Right,
,,,,,,,,,,,,,,,,,566,18,Woman,Right,2,24,0.4,1,0,-,0,0.25987520000126096,['n'],1.190952599999946,1.866,1792.5332046000003,,,,,566,18,Woman,Right,
,,,,,,,,,,,,,,,,,566,18,Woman,Right,2,56,0.15,1,0,-,0,0.8142662000009295,['n'],0.3349780999997165,1.77,1796.2665419000004,,,,,566,18,Woman,Right,
,,,,,,,,,,,,,,,,,566,18,Woman,Right,2,20,0.4,1,0,-,0,0.25720840000030876,['n'],0.8069247000003088,1.77,1799.9343074000008,,,,,566,18,Woman,Right,
,,,,,,,,,,,,,,,,,566,18,Woman,Right,2,66,0.15,1,180,-,0,0.5645744000012201,['n'],0.7990397999983543,1.72,1804.9501844000006,,,,,566,18,Woman,Right,
,,,,,,,,,,,,,,,,,566,18,Woman,Right,2,64,0.15,1,0,-,0,2.134113399999478,['n'],0.3507327000006626,1.358,1810.7666535999997,,,,,566,18,Woman,Right,
,,,,,,,,,,,,,,,,,566,18,Woman,Right,2,41,0.4,2,0,180,180,0.9846280999990995,['y'],0.46281590000035067,1.994,1815.3674093000009,,,,,566,18,Woman,Right,
,,,,,,,,,,,,,,,,,566,18,Woman,Right,2,63,0.15,2,180,0,0,1.1170873999999458,['y'],0.3588581999993039,1.772,1819.4835411000004,,,,,566,18,Woman,Right,
,,,,,,,,,,,,,,,,,566,18,Woman,Right,2,5,1,2,0,180,180,0.9032984999994369,['y'],0.38290480000068783,2.0,1823.6833179000005,,,,,566,18,Woman,Right,
,,,,,,,,,,,,,,,,,566,18,Woman,Right,2,11,0.4,2,180,0,0,0.30650100000093516,['y'],0.8231379999997444,2.0,1827.5334777999997,,,,,566,18,Woman,Right,
,,,,,,,,,,,,,,,,,566,18,Woman,Right,3,11,0.4,2,180,0,0,0.46667060000072524,['y'],0.9119319000001269,1.996,1848.5165742000008,67.5,55.0,72.5,,566,18,Woman,Right,
,,,,,,,,,,,,,,,,,566,18,Woman,Right,3,32,0.4,1,0,-,0,0.7150151999994705,['n'],0.31892750000042724,1.928,1852.1665871000005,,,,,566,18,Woman,Right,
,,,,,,,,,,,,,,,,,566,18,Woman,Right,3,65,0.15,2,0,180,0,1.0670565999989776,['n'],0.3668870000001334,1.928,1856.1499287999995,,,,,566,18,Woman,Right,
,,,,,,,,,,,,,,,,,566,18,Woman,Right,3,18,0.4,1,180,-,0,0.5962349000001268,['y'],0.8070590999996057,1.9060000000000001,1860.3002223000003,,,,,566,18,Woman,Right,
,,,,,,,,,,,,,,,,,566,18,Woman,Right,3,10,0.4,1,180,-,180,0.48649660000046424,['n'],0.4631625999991229,1.904,1863.9333272999993,,,,,566,18,Woman,Right,
,,,,,,,,,,,,,,,,,566,18,Woman,Right,3,27,0.4,2,180,0,0,0.5070629000001645,['n'],0.4551242000015918,1.904,1867.2668565999993,,,,,566,18,Woman,Right,
,,,,,,,,,,,,,,,,,566,18,Woman,Right,3,16,0.4,1,0,-,0,1.1644121999997878,['y'],0.8789687000007689,1.8,1872.0000562000005,,,,,566,18,Woman,Right,
,,,,,,,,,,,,,,,,,566,18,Woman,Right,3,23,0.4,2,180,0,0,0.773077399999238,['y'],0.38300379999964207,2.0,1877.0832195000003,,,,,566,18,Woman,Right,
,,,,,,,,,,,,,,,,,566,18,Woman,Right,3,35,0.4,2,180,0,0,0.6728407999999035,['y'],1.239377300000342,1.6640000000000001,1881.7501967000007,,,,,566,18,Woman,Right,
,,,,,,,,,,,,,,,,,566,18,Woman,Right,3,9,0.4,2,0,180,180,0.5357301999993069,['y'],0.4630215999986831,2.0,1885.9666349,,,,,566,18,Woman,Right,
,,,,,,,,,,,,,,,,,566,18,Woman,Right,3,4,1,1,0,-,0,0.8235169999989012,['n'],2.135052800000267,2.0,1892.1666984000003,,,,,566,18,Woman,Right,
,,,,,,,,,,,,,,,,,566,18,Woman,Right,3,58,0.15,1,180,-,0,0.36712729999999283,['n'],0.6709721999995963,1.912,1895.7665682999996,,,,,566,18,Woman,Right,
,,,,,,,,,,,,,,,,,566,18,Woman,Right,3,64,0.15,1,0,-,180,0.9116694000003918,['n'],0.45495409999966796,1.634,1899.4834093000009,,,,,566,18,Woman,Right,
,,,,,,,,,,,,,,,,,566,18,Woman,Right,3,37,0.4,2,0,180,180,0.5071129000007204,['y'],0.6388967000002594,1.634,1903.3000018000002,,,,,566,18,Woman,Right,
,,,,,,,,,,,,,,,,,566,18,Woman,Right,3,7,1,2,180,0,0,1.033328999999867,['y'],0.4528130999988207,2.0,1909.2003759,,,,,566,18,Woman,Right,
,,,,,,,,,,,,,,,,,566,18,Woman,Right,3,46,0.15,1,180,-,180,0.6371570999999676,['y'],1.183024200001455,2.0,1913.7500607000002,,,,,566,18,Woman,Right,
,,,,,,,,,,,,,,,,,566,18,Woman,Right,3,25,0.4,2,0,180,180,0.7789864999995189,['y'],0.5191243999997823,2.0,1917.6501165000009,,,,,566,18,Woman,Right,
,,,,,,,,,,,,,,,,,566,18,Woman,Right,3,71,0.15,2,180,0,180,0.7190602999999101,['n'],0.4388302000006661,1.892,1922.1835685000005,,,,,566,18,Woman,Right,
,,,,,,,,,,,,,,,,,566,18,Woman,Right,3,68,0.15,1,0,-,180,0.4530543000000762,['n'],0.7429546000003029,1.874,1925.9002541999998,,,,,566,18,Woman,Right,
,,,,,,,,,,,,,,,,,566,18,Woman,Right,3,42,0.4,1,180,-,180,0.3916544999992766,['y'],0.6632028999993054,1.874,1929.4836238000007,,,,,566,18,Woman,Right,
,,,,,,,,,,,,,,,,,566,18,Woman,Right,3,31,0.4,2,180,0,0,0.4269862999990437,['n'],0.5190598000008322,1.874,1932.9675647999993,,,,,566,18,Woman,Right,
,,,,,,,,,,,,,,,,,566,18,Woman,Right,3,56,0.15,1,0,-,0,0.8149985000000015,['y'],1.1349856999986514,1.324,1938.1838982000008,,,,,566,18,Woman,Right,
,,,,,,,,,,,,,,,,,566,18,Woman,Right,3,63,0.15,2,180,0,180,0.7107684000002337,['n'],1.182509199999913,1.916,1944.6667290000005,,,,,566,18,Woman,Right,
,,,,,,,,,,,,,,,,,566,18,Woman,Right,3,61,0.15,2,0,180,180,1.063939699999537,['y'],0.55167099999926,1.952,1949.8002775999994,,,,,566,18,Woman,Right,
,,,,,,,,,,,,,,,,,566,18,Woman,Right,3,52,0.15,1,0,-,0,0.73544800000127,['n'],0.6866659999996045,1.952,1953.7501561999998,,,,,566,18,Woman,Right,
,,,,,,,,,,,,,,,,,566,18,Woman,Right,3,40,0.4,1,0,-,180,0.9675683999994362,['n'],0.8151078000009875,1.8820000000000001,1958.7001636000005,,,,,566,18,Woman,Right,
,,,,,,,,,,,,,,,,,566,18,Woman,Right,3,13,0.4,2,0,180,180,0.31218769999941287,['y'],0.6790596000009828,1.76,1962.9836187,,,,,566,18,Woman,Right,
,,,,,,,,,,,,,,,,,566,18,Woman,Right,3,48,0.15,1,0,-,0,0.450121300000319,['y'],0.531207699999868,1.5779999999999998,1966.6002549000004,,,,,566,18,Woman,Right,
,,,,,,,,,,,,,,,,,566,18,Woman,Right,3,57,0.15,2,0,180,180,0.44744139999966137,['y'],0.406921699999657,1.942,1971.4838273000005,,,,,566,18,Woman,Right,
,,,,,,,,,,,,,,,,,566,18,Woman,Right,3,24,0.4,1,0,-,180,0.5300984000004973,['n'],0.7746655000009923,1.84,1975.7334463000007,,,,,566,18,Woman,Right,
,,,,,,,,,,,,,,,,,566,18,Woman,Right,3,17,0.4,2,0,180,180,0.46948859999974957,['y'],0.7267195000003994,1.822,1979.684385300001,,,,,566,18,Woman,Right,
,,,,,,,,,,,,,,,,,566,18,Woman,Right,3,0,1,1,0,-,0,0.3494285000015225,['n'],0.8954799999992247,2.0,1984.3336025000008,,,,,566,18,Woman,Right,
,,,,,,,,,,,,,,,,,566,18,Woman,Right,3,59,0.15,2,180,0,0,0.9274638999995659,['y'],0.550882300000012,1.926,1989.0334377,,,,,566,18,Woman,Right,
,,,,,,,,,,,,,,,,,566,18,Woman,Right,3,51,0.15,2,180,0,180,0.25484940000023926,['n'],0.5509222999990016,1.788,1992.8169619,,,,,566,18,Woman,Right,
,,,,,,,,,,,,,,,,,566,18,Woman,Right,3,47,0.15,2,180,0,180,3.788160099999004,['y'],0.9350548000002163,1.788,2000.1501363000007,,,,,566,18,Woman,Right,
,,,,,,,,,,,,,,,,,566,18,Woman,Right,3,50,0.15,1,180,-,0,11.02667880000081,['y'],2.583071699998982,1.712,2017.5834538,,,,,566,18,Woman,Right,
,,,,,,,,,,,,,,,,,566,18,Woman,Right,3,43,0.4,2,180,0,0,0.5682860999986588,['y'],0.7272462000000814,1.744,2022.1000999000007,,,,,566,18,Woman,Right,
,,,,,,,,,,,,,,,,,566,18,Woman,Right,3,74,0.15,1,180,-,0,0.368081999999049,['y'],0.6950194999990345,1.708,2025.6333780999994,,,,,566,18,Woman,Right,
,,,,,,,,,,,,,,,,,566,18,Woman,Right,3,14,0.4,1,180,-,0,0.5227740000009362,['y'],0.4069373000002088,1.81,2028.9502073999993,,,,,566,18,Woman,Right,
,,,,,,,,,,,,,,,,,566,18,Woman,Right,3,45,0.15,2,0,180,180,0.8380035999998654,['y'],0.27854519999891636,1.762,2032.5504311999994,,,,,566,18,Woman,Right,
,,,,,,,,,,,,,,,,,566,18,Woman,Right,3,73,0.15,2,0,180,0,0.6833821000000171,['n'],1.0029570999995485,1.374,2036.7834413,,,,,566,18,Woman,Right,
,,,,,,,,,,,,,,,,,566,18,Woman,Right,3,12,0.4,1,0,-,0,0.7888404000004812,['n'],0.33521490000021004,1.944,2040.5337536999996,,,,,566,18,Woman,Right,
,,,,,,,,,,,,,,,,,566,18,Woman,Right,3,70,0.15,1,180,-,0,0.4694414000005054,['n'],1.1273560999998153,1.982,2044.8667860999994,,,,,566,18,Woman,Right,
,,,,,,,,,,,,,,,,,566,18,Woman,Right,3,67,0.15,2,180,0,0,0.8350401000006968,['y'],0.32669949999944947,1.9020000000000001,2048.4834812999998,,,,,566,18,Woman,Right,
,,,,,,,,,,,,,,,,,566,18,Woman,Right,3,53,0.15,2,0,180,0,0.4034461999999621,['n'],1.023035100000925,1.9020000000000001,2052.5668465,,,,,566,18,Woman,Right,
,,,,,,,,,,,,,,,,,566,18,Woman,Right,3,22,0.4,1,180,-,0,1.136054000000513,['y'],1.0709165999996912,1.8980000000000001,2057.4502539000005,,,,,566,18,Woman,Right,
,,,,,,,,,,,,,,,,,566,18,Woman,Right,3,29,0.4,2,0,180,180,1.094879000000219,['y'],0.31124369999997725,1.722,2062.0502493999993,,,,,566,18,Woman,Right,
,,,,,,,,,,,,,,,,,566,18,Woman,Right,3,19,0.4,2,180,0,0,0.7297853000000032,['y'],0.33452890000080515,1.806,2065.801088100001,,,,,566,18,Woman,Right,
,,,,,,,,,,,,,,,,,566,18,Woman,Right,3,34,0.4,1,180,-,180,0.6075560999997833,['n'],2.61501970000063,1.346,2072.0668607000007,,,,,566,18,Woman,Right,
,,,,,,,,,,,,,,,,,566,18,Woman,Right,3,33,0.4,2,0,180,180,0.7564039999997476,['y'],0.4872684999991179,1.572,2075.7837161999996,,,,,566,18,Woman,Right,
,,,,,,,,,,,,,,,,,566,18,Woman,Right,3,26,0.4,1,180,-,180,0.6742033999998966,['n'],0.5429449999992357,1.71,2079.7503933000007,,,,,566,18,Woman,Right,
,,,,,,,,,,,,,,,,,566,18,Woman,Right,3,21,0.4,2,0,180,180,10.802787499998885,['y'],1.3829604000002291,2.0,2095.183611799999,,,,,566,18,Woman,Right,
,,,,,,,,,,,,,,,,,566,18,Woman,Right,3,75,0.15,2,180,0,0,0.874104399999851,['y'],0.46294250000028114,1.8639999999999999,2099.2002116000003,,,,,566,18,Woman,Right,
,,,,,,,,,,,,,,,,,566,18,Woman,Right,3,1,1,2,0,180,180,0.640209600000162,['y'],0.3589001999989705,1.98,2103.1168897999996,,,,,566,18,Woman,Right,
,,,,,,,,,,,,,,,,,566,18,Woman,Right,3,8,0.4,1,0,-,0,0.6473679000009724,['n'],0.4152665000001434,1.982,2106.5678396999992,,,,,566,18,Woman,Right,
,,,,,,,,,,,,,,,,,566,18,Woman,Right,3,78,0.15,1,180,-,180,0.996041200000036,['y'],0.35888639999939187,1.982,2110.5002103999996,,,,,566,18,Woman,Right,
,,,,,,,,,,,,,,,,,566,18,Woman,Right,3,2,1,1,180,-,180,0.7334845000004862,['y'],0.6469063000004098,1.982,2114.4344284,,,,,566,18,Woman,Right,
,,,,,,,,,,,,,,,,,566,18,Woman,Right,3,79,0.15,2,180,0,180,1.6023783999989973,['n'],6.2299230999997235,1.672,2125.166857100001,,,,,566,18,Woman,Right,
,,,,,,,,,,,,,,,,,566,18,Woman,Right,3,30,0.4,1,180,-,0,0.36740389999977197,['y'],0.7588930999991135,1.706,2129.1504341,,,,,566,18,Woman,Right,
,,,,,,,,,,,,,,,,,566,18,Woman,Right,3,66,0.15,1,180,-,0,0.4627312000011443,['y'],0.4631712999998854,1.706,2132.4173618999994,,,,,566,18,Woman,Right,
,,,,,,,,,,,,,,,,,566,18,Woman,Right,3,55,0.15,2,180,0,180,0.7478785999992397,['y'],0.36685660000148346,1.772,2136.5835633000006,,,,,566,18,Woman,Right,
,,,,,,,,,,,,,,,,,566,18,Woman,Right,3,60,0.15,1,0,-,0,0.42605059999914374,['y'],0.750847999999678,1.772,2140.4003259,,,,,566,18,Woman,Right,
,,,,,,,,,,,,,,,,,566,18,Woman,Right,3,69,0.15,2,0,180,0,0.7588551999997435,['n'],1.7193822999997792,1.774,2146.48359,,,,,566,18,Woman,Right,
,,,,,,,,,,,,,,,,,566,18,Woman,Right,3,20,0.4,1,0,-,0,1.0533988999995927,['n'],0.6630482000000484,2.0,2152.1838270000007,,,,,566,18,Woman,Right,
,,,,,,,,,,,,,,,,,566,18,Woman,Right,3,38,0.4,1,180,-,0,0.566650099999606,['y'],1.3843445000002248,1.952,2156.9002982,,,,,566,18,Woman,Right,
,,,,,,,,,,,,,,,,,566,18,Woman,Right,3,6,1,1,180,-,180,1.0019907999994757,['n'],0.5350242999993498,1.952,2160.7002955999997,,,,,566,18,Woman,Right,
,,,,,,,,,,,,,,,,,566,18,Woman,Right,3,49,0.15,2,0,180,0,0.5127688000011403,['n'],0.3511751000005461,1.952,2163.850218400001,,,,,566,18,Woman,Right,
,,,,,,,,,,,,,,,,,566,18,Woman,Right,3,41,0.4,2,0,180,180,0.6847063999994134,['y'],0.2870198000000528,1.5939999999999999,2167.3171989,,,,,566,18,Woman,Right,
,,,,,,,,,,,,,,,,,566,18,Woman,Right,3,72,0.15,1,0,-,180,0.9882333000005019,['n'],0.278623799998968,1.816,2170.8505619999996,,,,,566,18,Woman,Right,
,,,,,,,,,,,,,,,,,566,18,Woman,Right,3,76,0.15,1,0,-,0,0.8714897999998357,['y'],0.2710224999991624,1.81,2174.1503654000007,,,,,566,18,Woman,Right,
,,,,,,,,,,,,,,,,,566,18,Woman,Right,3,54,0.15,1,180,-,180,1.0647783999993408,['y'],0.27921000000060303,1.6320000000000001,2178.284015200001,,,,,566,18,Woman,Right,
,,,,,,,,,,,,,,,,,566,18,Woman,Right,3,36,0.4,1,0,-,0,0.5308373999996547,['n'],0.32683650000035414,2.0,2181.700525800001,,,,,566,18,Woman,Right,
,,,,,,,,,,,,,,,,,566,18,Woman,Right,3,44,0.15,1,0,-,180,0.4588217000000441,['y'],0.5829579999990528,1.806,2185.4003126999996,,,,,566,18,Woman,Right,
,,,,,,,,,,,,,,,,,566,18,Woman,Right,3,5,1,2,0,180,180,0.7275215999998181,['y'],0.3507475999995222,2.0,2189.0336573000004,,,,,566,18,Woman,Right,
,,,,,,,,,,,,,,,,,566,18,Woman,Right,3,28,0.4,1,0,-,0,1.2848449000011897,['n'],0.5512297000004764,1.966,2193.2003308999992,,,,,566,18,Woman,Right,
,,,,,,,,,,,,,,,,,566,18,Woman,Right,3,39,0.4,2,180,0,0,0.4132033000005322,['y'],0.5029176000007283,1.966,2196.4505628999996,,,,,566,18,Woman,Right,
,,,,,,,,,,,,,,,,,566,18,Woman,Right,3,3,1,2,180,0,0,1.5174428000009357,['y'],0.3908651000001555,1.78,2201.200497,,,,,566,18,Woman,Right,
,,,,,,,,,,,,,,,,,566,18,Woman,Right,3,62,0.15,1,180,-,180,1.2068300999999337,['n'],0.28681000000142376,1.588,2205.6169310000005,,,,,566,18,Woman,Right,
,,,,,,,,,,,,,,,,,566,18,Woman,Right,3,77,0.15,2,0,180,180,0.6209197000007407,['y'],0.28675680000014836,1.784,2210.133679300001,,,,,566,18,Woman,Right,
,,,,,,,,,,,,,,,,,566,18,Woman,Right,3,15,0.4,2,180,0,0,0.679234400000496,['y'],0.2469383999996353,2.0,2213.8503132999995,,,,,566,18,Woman,Right,
,,,,,,,,,,,,,,,,,566,18,Woman,Right,4,5,1,2,0,180,180,1.7019412000008742,['y'],0.3188829999999143,1.966,2224.250431300001,66.25,52.5,72.5,,566,18,Woman,Right,
,,,,,,,,,,,,,,,,,566,18,Woman,Right,4,65,0.15,2,0,180,0,0.6017836999999417,['y'],0.5671359000007214,1.786,2228.5337722000004,,,,,566,18,Woman,Right,
,,,,,,,,,,,,,,,,,566,18,Woman,Right,4,2,1,1,180,-,180,1.3459960999989562,['n'],0.4231620999998995,1.764,2232.5839115,,,,,566,18,Woman,Right,
,,,,,,,,,,,,,,,,,566,18,Woman,Right,4,56,0.15,1,0,-,0,0.5122628999997687,['y'],0.29470930000024964,1.758,2235.6672357999996,,,,,566,18,Woman,Right,
,,,,,,,,,,,,,,,,,566,18,Woman,Right,4,61,0.15,2,0,180,180,0.24867859999903885,['n'],0.7351909999997588,1.3940000000000001,2239.3336676,,,,,566,18,Woman,Right,
,,,,,,,,,,,,,,,,,566,18,Woman,Right,4,3,1,2,180,0,0,0.9986743999997998,['y'],0.47885130000031495,1.98,2243.7837954999995,,,,,566,18,Woman,Right,
,,,,,,,,,,,,,,,,,566,18,Woman,Right,4,71,0.15,2,180,0,0,0.9188477999996394,['y'],0.3747468999990815,1.914,2248.016975300001,,,,,566,18,Woman,Right,
,,,,,,,,,,,,,,,,,566,18,Woman,Right,4,67,0.15,2,180,0,0,0.3714330999991944,['n'],0.6387640000011743,2.0,2252.8337028000005,,,,,566,18,Woman,Right,
,,,,,,,,,,,,,,,,,566,18,Woman,Right,4,21,0.4,2,0,180,180,0.6278318999993644,['y'],0.3990401999999449,1.686,2256.3170797000002,,,,,566,18,Woman,Right,
,,,,,,,,,,,,,,,,,566,18,Woman,Right,4,7,1,2,180,0,0,0.5393973999998707,['y'],0.2628647000001365,2.0,2259.9507116000004,,,,,566,18,Woman,Right,
,,,,,,,,,,,,,,,,,566,18,Woman,Right,4,76,0.15,1,0,-,0,0.6930960999998206,['n'],0.5590433999986999,2.0,2263.9678308000002,,,,,566,18,Woman,Right,
,,,,,,,,,,,,,,,,,566,18,Woman,Right,4,25,0.4,2,0,180,180,0.3398942000003444,['y'],0.5587762000013754,1.79,2267.7677311999996,,,,,566,18,Woman,Right,
,,,,,,,,,,,,,,,,,566,18,Woman,Right,4,0,1,1,0,-,0,0.5565434000000096,['n'],0.590890199999194,2.0,2271.8337102999994,,,,,566,18,Woman,Right,
,,,,,,,,,,,,,,,,,566,18,Woman,Right,4,34,0.4,1,180,-,180,1.17034010000134,['n'],0.34309959999882267,2.0,2276.067075499999,,,,,566,18,Woman,Right,
,,,,,,,,,,,,,,,,,566,18,Woman,Right,4,60,0.15,1,0,-,0,0.45433629999934055,['n'],0.9838658000007854,2.0,2280.1672634999995,,,,,566,18,Woman,Right,
,,,,,,,,,,,,,,,,,566,18,Woman,Right,4,75,0.15,2,180,0,0,0.8139856000016152,['y'],0.5267789999998058,1.63,2284.5006498000002,,,,,566,18,Woman,Right,
,,,,,,,,,,,,,,,,,566,18,Woman,Right,4,41,0.4,2,0,180,180,0.7540799999987939,['y'],0.23870649999844318,1.554,2288.2004190999996,,,,,566,18,Woman,Right,
,,,,,,,,,,,,,,,,,566,18,Woman,Right,4,78,0.15,1,180,-,0,0.5060069999999541,['y'],0.3508270000002085,1.788,2291.9007535,,,,,566,18,Woman,Right,
,,,,,,,,,,,,,,,,,566,18,Woman,Right,4,11,0.4,2,180,0,0,0.512562899999466,['y'],0.3349668999999267,1.774,2295.4679431999994,,,,,566,18,Woman,Right,
,,,,,,,,,,,,,,,,,566,18,Woman,Right,4,14,0.4,1,180,-,180,0.9366688999998587,['n'],0.6627644000000146,1.572,2300.0340013999994,,,,,566,18,Woman,Right,
,,,,,,,,,,,,,,,,,566,18,Woman,Right,4,55,0.15,2,180,0,0,0.6245761000009225,['n'],0.5830824999993638,1.834,2303.983956100001,,,,,566,18,Woman,Right,
,,,,,,,,,,,,,,,,,566,18,Woman,Right,4,59,0.15,2,180,0,180,0.9526789999999892,['n'],0.4226929000014934,1.3679999999999999,2308.4840203999993,,,,,566,18,Woman,Right,
,,,,,,,,,,,,,,,,,566,18,Woman,Right,4,36,0.4,1,0,-,0,0.5598178000000189,['n'],0.5750588000009884,1.8780000000000001,2313.6673314,,,,,566,18,Woman,Right,
,,,,,,,,,,,,,,,,,566,18,Woman,Right,4,27,0.4,2,180,0,0,0.5772324999998091,['y'],0.35886670000036247,2.0,2317.6337079999994,,,,,566,18,Woman,Right,
,,,,,,,,,,,,,,,,,566,18,Woman,Right,4,35,0.4,2,180,0,0,0.3599187999989226,['y'],0.7191937999996298,2.0,2321.5006969000005,,,,,566,18,Woman,Right,
,,,,,,,,,,,,,,,,,566,18,Woman,Right,4,31,0.4,2,180,0,0,0.591849499998716,['y'],0.3351596000011341,1.778,2325.5339089999998,,,,,566,18,Woman,Right,
,,,,,,,,,,,,,,,,,566,18,Woman,Right,4,45,0.15,2,0,180,0,1.5372349999997823,['n'],1.0868694000000687,1.654,2331.117076300001,,,,,566,18,Woman,Right,
,,,,,,,,,,,,,,,,,566,18,Woman,Right,4,51,0.15,2,180,0,0,0.5245326000003843,['y'],0.3587881000003108,2.0,2334.7337678000004,,,,,566,18,Woman,Right,
,,,,,,,,,,,,,,,,,566,18,Woman,Right,4,43,0.4,2,180,0,0,0.7517643000010139,['y'],0.3268559999996796,1.736,2338.8003774999997,,,,,566,18,Woman,Right,
,,,,,,,,,,,,,,,,,566,18,Woman,Right,4,73,0.15,2,0,180,180,1.0989597000007052,['y'],0.35895479999999225,1.842,2343.6671649,,,,,566,18,Woman,Right,
,,,,,,,,,,,,,,,,,566,18,Woman,Right,4,42,0.4,1,180,-,0,0.5443482999999105,['n'],0.5913280999993731,1.558,2347.5840788999994,,,,,566,18,Woman,Right,
,,,,,,,,,,,,,,,,,566,18,Woman,Right,4,32,0.4,1,0,-,0,0.525118300000031,['n'],0.5188550000002579,2.0,2351.2338053999993,,,,,566,18,Woman,Right,
,,,,,,,,,,,,,,,,,566,18,Woman,Right,4,54,0.15,1,180,-,0,0.31603460000042105,['n'],0.33517159999973956,1.682,2354.4840862,,,,,566,18,Woman,Right,
,,,,,,,,,,,,,,,,,566,18,Woman,Right,4,1,1,2,0,180,180,0.9131902999997692,['y'],0.3670997000008356,2.0,2358.3674229000007,,,,,566,18,Woman,Right,
,,,,,,,,,,,,,,,,,566,18,Woman,Right,4,8,0.4,1,0,-,0,0.5812869000001228,['n'],0.3271282000005158,2.0,2358.3674229000007,,,,,566,18,Woman,Right,
,,,,,,,,,,,,,,,,,566,18,Woman,Right,4,29,0.4,2,0,180,180,0.8785738999995374,['y'],0.28672959999857994,1.838,2365.850706700001,,,,,566,18,Woman,Right,
,,,,,,,,,,,,,,,,,566,18,Woman,Right,4,26,0.4,1,180,-,0,0.313936399999875,['n'],0.5987303999991127,1.8719999999999999,2369.5838499,,,,,566,18,Woman,Right,
,,,,,,,,,,,,,,,,,566,18,Woman,Right,4,72,0.15,1,0,-,0,8.1780703000004,['n'],0.3665442000001349,1.8559999999999999,2381.700472300001,,,,,566,18,Woman,Right,
,,,,,,,,,,,,,,,,,566,18,Woman,Right,4,4,1,1,0,-,0,1.104508700000224,['n'],0.3671685000008438,2.0,2385.7006144999996,,,,,566,18,Woman,Right,
,,,,,,,,,,,,,,,,,566,18,Woman,Right,4,48,0.15,1,0,-,0,0.39303670000117563,['n'],0.3109459999996034,1.76,2388.8171397000006,,,,,566,18,Woman,Right,
,,,,,,,,,,,,,,,,,566,18,Woman,Right,4,63,0.15,2,180,0,0,1.4991829999999027,['y'],0.29483839999920747,1.824,2393.200530100001,,,,,566,18,Woman,Right,
,,,,,,,,,,,,,,,,,566,18,Woman,Right,4,19,0.4,2,180,0,0,1.4166624000008596,['n'],0.3027730000012525,1.826,2397.384180000001,,,,,566,18,Woman,Right,
,,,,,,,,,,,,,,,,,566,18,Woman,Right,4,66,0.15,1,180,-,0,0.7962749999987864,['y'],0.43152960000043095,1.612,2401.4838062,,,,,566,18,Woman,Right,
,,,,,,,,,,,,,,,,,566,18,Woman,Right,4,17,0.4,2,0,180,0,1.2110354999986157,['y'],0.5033179000001837,1.842,2406.0015201000006,,,,,566,18,Woman,Right,
,,,,,,,,,,,,,,,,,566,18,Woman,Right,4,23,0.4,2,180,0,0,2.4500394000006054,['n'],0.2706215999987762,1.712,2411.3838464,,,,,566,18,Woman,Right,
,,,,,,,,,,,,,,,,,566,18,Woman,Right,4,74,0.15,1,180,-,0,3.6311083999989933,['y'],0.7270982999998523,1.6480000000000001,2418.8673314000007,,,,,566,18,Woman,Right,
,,,,,,,,,,,,,,,,,566,18,Woman,Right,4,50,0.15,1,180,-,0,0.7995190999990882,['y'],0.502931199998784,1.962,2422.9171398,,,,,566,18,Woman,Right,
,,,,,,,,,,,,,,,,,566,18,Woman,Right,4,57,0.15,2,0,180,180,0.9272961000006035,['n'],0.5429239999994024,1.734,2426.9840024000005,,,,,566,18,Woman,Right,
,,,,,,,,,,,,,,,,,566,18,Woman,Right,4,77,0.15,2,0,180,0,0.35312210000120103,['y'],0.4550336000011157,1.984,2430.5507603999995,,,,,566,18,Woman,Right,
,,,,,,,,,,,,,,,,,566,18,Woman,Right,4,40,0.4,1,0,-,180,0.38907300000028044,['n'],0.3590887999998813,1.72,2433.7841040999992,,,,,566,18,Woman,Right,
,,,,,,,,,,,,,,,,,566,18,Woman,Right,4,62,0.15,1,180,-,180,0.35332199999902514,['y'],0.3908444000007876,1.542,2437.0339860000004,,,,,566,18,Woman,Right,
,,,,,,,,,,,,,,,,,566,18,Woman,Right,4,47,0.15,2,180,0,180,0.2536548000007315,['y'],0.38312409999889496,1.788,2440.3673197999997,,,,,566,18,Woman,Right,
,,,,,,,,,,,,,,,,,566,18,Woman,Right,4,15,0.4,2,180,0,180,0.17770440000094823,['y'],0.8868542000000161,1.992,2444.2506237,,,,,566,18,Woman,Right,
,,,,,,,,,,,,,,,,,566,18,Woman,Right,4,9,0.4,2,0,180,180,0.5421690000002855,['y'],0.3589473000010912,1.778,2447.8341041999993,,,,,566,18,Woman,Right,
,,,,,,,,,,,,,,,,,566,18,Woman,Right,4,49,0.15,2,0,180,180,0.6173446000011609,['y'],0.44719979999899806,1.65,2451.5008192999994,,,,,566,18,Woman,Right,
,,,,,,,,,,,,,,,,,566,18,Woman,Right,4,20,0.4,1,0,-,180,0.4382307000014407,['y'],0.43991339999956836,1.65,2454.8339123999995,,,,,566,18,Woman,Right,
,,,,,,,,,,,,,,,,,566,18,Woman,Right,4,53,0.15,2,0,180,0,0.5066203999995196,['y'],0.5830091999996512,1.676,2458.5839412999994,,,,,566,18,Woman,Right,
,,,,,,,,,,,,,,,,,566,18,Woman,Right,4,16,0.4,1,0,-,180,0.5875606000008702,['y'],0.5911441000007471,1.67,2463.2506675000004,,,,,566,18,Woman,Right,
,,,,,,,,,,,,,,,,,566,18,Woman,Right,4,38,0.4,1,180,-,180,1.566941200000656,['n'],0.45492190000004484,1.8980000000000001,2468.2175129000007,,,,,566,18,Woman,Right,
,,,,,,,,,,,,,,,,,566,18,Woman,Right,4,79,0.15,2,180,0,180,0.2461098999992828,['y'],0.38266660000044794,1.666,2471.700640700001,,,,,566,18,Woman,Right,
,,,,,,,,,,,,,,,,,566,18,Woman,Right,4,10,0.4,1,180,-,180,0.35960419999901205,['y'],0.5028949000006833,1.78,2475.3005677,,,,,566,18,Woman,Right,
,,,,,,,,,,,,,,,,,566,18,Woman,Right,4,33,0.4,2,0,180,180,1.9450457999992068,['y'],0.8790466000009474,1.78,2480.5672108,,,,,566,18,Woman,Right,
,,,,,,,,,,,,,,,,,566,18,Woman,Right,4,13,0.4,2,0,180,0,0.08488860000034038,['y'],0.534926500000438,1.65,2484.6340354000004,,,,,566,18,Woman,Right,
,,,,,,,,,,,,,,,,,566,18,Woman,Right,4,6,1,1,180,-,180,0.7223534000004292,['n'],0.7429924000007304,2.0,2488.6841203999993,,,,,566,18,Woman,Right,
,,,,,,,,,,,,,,,,,566,18,Woman,Right,4,44,0.15,1,0,-,0,0.13694290000057663,['y'],0.4468839000001026,1.778,2491.734176600001,,,,,566,18,Woman,Right,
,,,,,,,,,,,,,,,,,566,18,Woman,Right,4,28,0.4,1,0,-,0,0.820233599999483,['y'],0.8629762000000483,1.436,2496.2006175000006,,,,,566,18,Woman,Right,
,,,,,,,,,,,,,,,,,566,18,Woman,Right,4,39,0.4,2,180,0,180,0.9760304000010365,['n'],0.43081469999924593,1.9020000000000001,2500.9672627,,,,,566,18,Woman,Right,
,,,,,,,,,,,,,,,,,566,18,Woman,Right,4,68,0.15,1,0,-,0,0.8362164000009216,['y'],0.3109492000003229,1.9020000000000001,2504.5682512999992,,,,,566,18,Woman,Right,
,,,,,,,,,,,,,,,,,566,18,Woman,Right,4,24,0.4,1,0,-,0,0.43560030000116967,['y'],0.6783146000016131,1.768,2508.3005813,,,,,566,18,Woman,Right,
,,,,,,,,,,,,,,,,,566,18,Woman,Right,4,46,0.15,1,180,-,0,0.27965260000019043,['y'],0.5517829000000347,1.6520000000000001,2511.5675931999995,,,,,566,18,Woman,Right,
,,,,,,,,,,,,,,,,,566,18,Woman,Right,4,58,0.15,1,180,-,0,0.5202879999997094,['y'],0.9989655999997922,1.6520000000000001,2515.8006714000003,,,,,566,18,Woman,Right,
,,,,,,,,,,,,,,,,,566,18,Woman,Right,4,52,0.15,1,0,-,180,0.5622860000003129,['n'],0.7668630999996822,1.6520000000000001,2519.684072,,,,,566,18,Woman,Right,
,,,,,,,,,,,,,,,,,566,18,Woman,Right,4,30,0.4,1,180,-,0,0.33559860000059416,['y'],0.5748479999983829,2.0,2523.3340694,,,,,566,18,Woman,Right,
,,,,,,,,,,,,,,,,,566,18,Woman,Right,4,18,0.4,1,180,-,0,0.43222229999992123,['y'],0.3987935999994079,1.692,2526.5506738999993,,,,,566,18,Woman,Right,
,,,,,,,,,,,,,,,,,566,18,Woman,Right,4,70,0.15,1,180,-,0,1.1494782000008854,['n'],0.5590773000003537,1.692,2530.7842514000004,,,,,566,18,Woman,Right,
,,,,,,,,,,,,,,,,,566,18,Woman,Right,4,69,0.15,2,0,180,180,0.08482080000067072,['y'],0.6233351000009861,1.83,2533.9172794000006,,,,,566,18,Woman,Right,
,,,,,,,,,,,,,,,,,566,18,Woman,Right,4,37,0.4,2,0,180,0,0.38212059999932535,['y'],0.5185174999987794,1.83,2537.1676331,,,,,566,18,Woman,Right,
,,,,,,,,,,,,,,,,,566,18,Woman,Right,4,22,0.4,1,180,-,180,0.6197386999992887,['n'],0.3510747000000265,1.83,2540.534265100001,,,,,566,18,Woman,Right,
,,,,,,,,,,,,,,,,,566,18,Woman,Right,4,12,0.4,1,0,-,0,0.6595821999999316,['n'],0.3992245000008552,1.732,2544.1508730000005,,,,,566,18,Woman,Right,
,,,,,,,,,,,,,,,,,566,18,Woman,Right,4,64,0.15,1,0,-,0,0.4774393000006967,['y'],0.40727630000037607,1.814,2547.4340751,,,,,566,18,Woman,Right,
,,,,,,,,,,,,,,,,,566,18,Woman,Right,5,26,0.4,1,180,-,180,0.9800224999999045,['n'],0.41468949999944016,1.8519999999999999,2555.2007063,65.0,55.0,77.5,,566,18,Woman,Right,
,,,,,,,,,,,,,,,,,566,18,Woman,Right,5,57,0.15,2,0,180,180,0.40294209999956365,['y'],0.4150822999999946,1.6139999999999999,2558.5507897999996,,,,,566,18,Woman,Right,
,,,,,,,,,,,,,,,,,566,18,Woman,Right,5,31,0.4,2,180,0,0,0.5322114000009606,['y'],0.390777500000695,1.936,2561.8509200000008,,,,,566,18,Woman,Right,
,,,,,,,,,,,,,,,,,566,18,Woman,Right,5,69,0.15,2,0,180,0,0.31024799999977404,['n'],0.5028843000000052,1.922,2565.1339522,,,,,566,18,Woman,Right,
,,,,,,,,,,,,,,,,,566,18,Woman,Right,5,45,0.15,2,0,180,0,0.32284289999915927,['y'],0.4388538000002882,1.8900000000000001,2569.7174132,,,,,566,18,Woman,Right,
,,,,,,,,,,,,,,,,,566,18,Woman,Right,5,59,0.15,2,180,0,180,0.01693149999846355,['y'],0.38918419999936305,1.888,2572.667412999999,,,,,566,18,Woman,Right,
,,,,,,,,,,,,,,,,,566,18,Woman,Right,5,14,0.4,1,180,-,0,0.48327190000054543,['n'],0.36640859999897657,1.888,2576.0507228000006,,,,,566,18,Woman,Right,
,,,,,,,,,,,,,,,,,566,18,Woman,Right,5,28,0.4,1,0,-,180,0.5566526000002341,['y'],0.8154111000003468,1.732,2579.9509565000008,,,,,566,18,Woman,Right,
,,,,,,,,,,,,,,,,,566,18,Woman,Right,5,11,0.4,2,180,0,0,0.5668239000005997,['n'],0.4469893999994383,1.876,2583.9183636,,,,,566,18,Woman,Right,
,,,,,,,,,,,,,,,,,566,18,Woman,Right,5,29,0.4,2,0,180,0,0.35632909999912954,['y'],0.454642499998954,1.6099999999999999,2587.468083400001,,,,,566,18,Woman,Right,
,,,,,,,,,,,,,,,,,566,18,Woman,Right,5,20,0.4,1,0,-,180,0.5514297999998234,['n'],1.2068450999995548,1.984,2592.4006517,,,,,566,18,Woman,Right,
,,,,,,,,,,,,,,,,,566,18,Woman,Right,5,21,0.4,2,0,180,180,0.7847008999997342,['y'],0.8079589999997552,1.674,2596.967629500001,,,,,566,18,Woman,Right,
,,,,,,,,,,,,,,,,,566,18,Woman,Right,5,35,0.4,2,180,0,180,0.6728984000001219,['n'],1.3272599000010814,1.8639999999999999,2601.334290500001,,,,,566,18,Woman,Right,
,,,,,,,,,,,,,,,,,566,18,Woman,Right,5,77,0.15,2,0,180,180,0.4059044999994512,['y'],0.3988595999999234,1.8639999999999999,2604.4675081999994,,,,,566,18,Woman,Right,
,,,,,,,,,,,,,,,,,566,18,Woman,Right,5,38,0.4,1,180,-,180,0.6712182000010216,['y'],0.5191938000007212,1.69,2608.0674335000003,,,,,566,18,Woman,Right,
,,,,,,,,,,,,,,,,,566,18,Woman,Right,5,54,0.15,1,180,-,180,0.5887662000004639,['y'],0.4231620999998995,1.6320000000000001,2611.5676569999996,,,,,566,18,Woman,Right,
,,,,,,,,,,,,,,,,,566,18,Woman,Right,5,68,0.15,1,0,-,180,0.6903170000005048,['n'],1.9909049999987474,1.93,2617.134060300001,,,,,566,18,Woman,Right,
,,,,,,,,,,,,,,,,,566,18,Woman,Right,5,27,0.4,2,180,0,0,0.5274057000005996,['y'],0.47938649999923655,1.792,2620.6173813000005,,,,,566,18,Woman,Right,
,,,,,,,,,,,,,,,,,566,18,Woman,Right,5,62,0.15,1,180,-,180,0.7641609999991488,['y'],0.7269322000011016,1.672,2624.4007972,,,,,566,18,Woman,Right,
,,,,,,,,,,,,,,,,,566,18,Woman,Right,5,65,0.15,2,0,180,180,1.7827445000002626,['y'],0.9189321000012569,1.3479999999999999,2629.7010119999995,,,,,566,18,Woman,Right,
,,,,,,,,,,,,,,,,,566,18,Woman,Right,5,6,1,1,180,-,180,0.5914260999998078,['y'],0.8071252999998251,1.772,2634.084002900001,,,,,566,18,Woman,Right,
,,,,,,,,,,,,,,,,,566,18,Woman,Right,5,24,0.4,1,0,-,0,0.9334521000000677,['n'],1.5897846999996545,2.0,2640.8006736000007,,,,,566,18,Woman,Right,
,,,,,,,,,,,,,,,,,566,18,Woman,Right,5,60,0.15,1,0,-,0,0.29834589999882155,['y'],0.6791632999993453,1.94,2644.217602500001,,,,,566,18,Woman,Right,
,,,,,,,,,,,,,,,,,566,18,Woman,Right,5,16,0.4,1,0,-,180,0.6419681000006676,['y'],0.9750536999999895,1.776,2648.2010422999992,,,,,566,18,Woman,Right,
,,,,,,,,,,,,,,,,,566,18,Woman,Right,5,36,0.4,1,0,-,180,1.0580520999992586,['n'],0.4469520000002376,1.762,2652.117522300001,,,,,566,18,Woman,Right,
,,,,,,,,,,,,,,,,,566,18,Woman,Right,5,22,0.4,1,180,-,180,1.1426659999997355,['n'],0.4070598999987851,1.688,2656.2344128000004,,,,,566,18,Woman,Right,
,,,,,,,,,,,,,,,,,566,18,Woman,Right,5,37,0.4,2,0,180,180,0.5419088999988162,['y'],0.3745259999996051,1.688,2659.3674752999996,,,,,566,18,Woman,Right,
,,,,,,,,,,,,,,,,,566,18,Woman,Right,5,8,0.4,1,0,-,0,0.3540726999999606,['n'],0.6392799999994168,1.686,2663.3509078000006,,,,,566,18,Woman,Right,
,,,,,,,,,,,,,,,,,566,18,Woman,Right,5,63,0.15,2,180,0,0,0.5307974000006652,['y'],0.6549139999988256,1.552,2666.9841125000003,,,,,566,18,Woman,Right,
,,,,,,,,,,,,,,,,,566,18,Woman,Right,5,71,0.15,2,180,0,180,1.4758415000014793,['n'],0.5345102999999654,1.98,2671.450885800001,,,,,566,18,Woman,Right,
,,,,,,,,,,,,,,,,,566,18,Woman,Right,5,47,0.15,2,180,0,180,0.6559063999993668,['y'],0.8309848999997484,1.816,2675.284329600001,,,,,566,18,Woman,Right,
,,,,,,,,,,,,,,,,,566,18,Woman,Right,5,42,0.4,1,180,-,0,5.974044799999319,['n'],0.8309107000004587,1.72,2684.4841536000004,,,,,566,18,Woman,Right,
,,,,,,,,,,,,,,,,,566,18,Woman,Right,5,40,0.4,1,0,-,180,0.9859883999997692,['y'],1.0463584999997693,1.836,2689.7841700999998,,,,,566,18,Woman,Right,
,,,,,,,,,,,,,,,,,566,18,Woman,Right,5,9,0.4,2,0,180,180,0.6033422999989853,['y'],0.46289489999981015,1.836,2693.2509816,,,,,566,18,Woman,Right,
,,,,,,,,,,,,,,,,,566,18,Woman,Right,5,4,1,1,0,-,0,1.0327279000011913,['n'],0.46280579999984184,2.0,2697.1675431000003,,,,,566,18,Woman,Right,
,,,,,,,,,,,,,,,,,566,18,Woman,Right,5,66,0.15,1,180,-,180,0.35742109999955574,['y'],0.45482260000062524,2.0,2700.3343265999993,,,,,566,18,Woman,Right,
,,,,,,,,,,,,,,,,,566,18,Woman,Right,5,49,0.15,2,0,180,180,0.558011199998873,['y'],0.7349997000001167,1.818,2703.9842252,,,,,566,18,Woman,Right,
,,,,,,,,,,,,,,,,,566,18,Woman,Right,5,64,0.15,1,0,-,180,0.8684468999999808,['n'],0.43897049999941373,1.63,2707.6510884,,,,,566,18,Woman,Right,
,,,,,,,,,,,,,,,,,566,18,Woman,Right,5,43,0.4,2,180,0,180,0.722053199999209,['y'],0.33512700000028417,1.6,2711.084214300001,,,,,566,18,Woman,Right,
,,,,,,,,,,,,,,,,,566,18,Woman,Right,5,67,0.15,2,180,0,0,0.7532444999997097,['y'],0.454686800001582,1.6,2714.6008039000008,,,,,566,18,Woman,Right,
,,,,,,,,,,,,,,,,,566,18,Woman,Right,5,12,0.4,1,0,-,0,0.45129110000016226,['n'],0.36687809999966703,1.4140000000000001,2718.1176367000007,,,,,566,18,Woman,Right,
,,,,,,,,,,,,,,,,,566,18,Woman,Right,5,19,0.4,2,180,0,0,0.6319977000002837,['y'],0.4628797000004852,2.0,2721.8008262000003,,,,,566,18,Woman,Right,
,,,,,,,,,,,,,,,,,566,18,Woman,Right,5,46,0.15,1,180,-,0,0.5795283000006748,['y'],0.8308794000004127,1.816,2725.9342233000007,,,,,566,18,Woman,Right,
,,,,,,,,,,,,,,,,,566,18,Woman,Right,5,74,0.15,1,180,-,180,0.016754000000219094,['y'],0.3905629000000772,1.75,2729.3343354999997,,,,,566,18,Woman,Right,
,,,,,,,,,,,,,,,,,566,18,Woman,Right,5,76,0.15,1,0,-,0,0.6400826999997662,['y'],0.3749349000008806,2.0,2733.600938400001,,,,,566,18,Woman,Right,
,,,,,,,,,,,,,,,,,566,18,Woman,Right,5,7,1,2,180,0,0,0.3356220999994548,['y'],0.4144937999990361,2.0,2737.4179174,,,,,566,18,Woman,Right,
,,,,,,,,,,,,,,,,,566,18,Woman,Right,5,55,0.15,2,180,0,180,0.5680100000008679,['y'],0.3188276999990194,1.806,2741.750979300001,,,,,566,18,Woman,Right,
,,,,,,,,,,,,,,,,,566,18,Woman,Right,5,50,0.15,1,180,-,0,0.34256709999863233,['n'],0.6228630000005069,1.638,2746.0509177000004,,,,,566,18,Woman,Right,
,,,,,,,,,,,,,,,,,566,18,Woman,Right,5,39,0.4,2,180,0,0,0.016676600000209874,['n'],0.6892087999985961,1.806,2749.1009448999994,,,,,566,18,Woman,Right,
,,,,,,,,,,,,,,,,,566,18,Woman,Right,5,79,0.15,2,180,0,0,0.28063660000043456,['n'],0.5431250000001455,1.806,2752.234367000001,,,,,566,18,Woman,Right,
,,,,,,,,,,,,,,,,,566,18,Woman,Right,5,73,0.15,2,0,180,180,0.3285852999997587,['y'],0.39094699999986915,1.806,2755.5178228000004,,,,,566,18,Woman,Right,
,,,,,,,,,,,,,,,,,566,18,Woman,Right,5,53,0.15,2,0,180,180,1.0617191000001185,['y'],0.5430019000013999,1.71,2760.967834000001,,,,,566,18,Woman,Right,
,,,,,,,,,,,,,,,,,566,18,Woman,Right,5,41,0.4,2,0,180,180,0.29520939999929396,['y'],0.5829819999999017,1.802,2764.667614600001,,,,,566,18,Woman,Right,
,,,,,,,,,,,,,,,,,566,18,Woman,Right,5,70,0.15,1,180,-,180,0.5559594000005745,['y'],0.35914860000048066,1.802,2768.1010380999996,,,,,566,18,Woman,Right,
,,,,,,,,,,,,,,,,,566,18,Woman,Right,5,17,0.4,2,0,180,0,0.4072284000012587,['n'],1.3513149000009435,1.676,2772.3842907,,,,,566,18,Woman,Right,
,,,,,,,,,,,,,,,,,566,18,Woman,Right,5,25,0.4,2,0,180,0,0.596458400001211,['n'],0.7509415000004083,1.5859999999999999,2776.7184670000006,,,,,566,18,Woman,Right,
,,,,,,,,,,,,,,,,,566,18,Woman,Right,5,13,0.4,2,0,180,0,0.06721689999903901,['y'],0.8391541999990295,2.0,2780.3009564000004,,,,,566,18,Woman,Right,
,,,,,,,,,,,,,,,,,566,18,Woman,Right,5,18,0.4,1,180,-,180,0.9891085999988718,['n'],0.46299309999994875,1.916,2783.9842563,,,,,566,18,Woman,Right,
,,,,,,,,,,,,,,,,,566,18,Woman,Right,5,75,0.15,2,180,0,0,0.6185105999993539,['y'],0.7590263999991294,2.0,2788.1510452,,,,,566,18,Woman,Right,
,,,,,,,,,,,,,,,,,566,18,Woman,Right,5,51,0.15,2,180,0,180,1.2330655000005208,['n'],0.7349803999986761,1.83,2792.3676354,,,,,566,18,Woman,Right,
,,,,,,,,,,,,,,,,,566,18,Woman,Right,5,0,1,1,0,-,0,0.29191699999864795,['n'],0.8708850999992137,2.0,2796.1343911000004,,,,,566,18,Woman,Right,
,,,,,,,,,,,,,,,,,566,18,Woman,Right,5,72,0.15,1,0,-,180,0.5358064000010927,['y'],0.37500010000076145,1.98,2799.5676587,,,,,566,18,Woman,Right,
,,,,,,,,,,,,,,,,,566,18,Woman,Right,5,33,0.4,2,0,180,180,0.6346375000011903,['y'],0.43107400000008056,1.746,2803.067632800001,,,,,566,18,Woman,Right,
,,,,,,,,,,,,,,,,,566,18,Woman,Right,5,61,0.15,2,0,180,180,0.7933398999994097,['n'],0.5028932000004716,1.6560000000000001,2806.6511983,,,,,566,18,Woman,Right,
,,,,,,,,,,,,,,,,,566,18,Woman,Right,5,2,1,1,180,-,180,0.45651619999989634,['n'],0.37497979999898234,1.8,2809.9842800000006,,,,,566,18,Woman,Right,
,,,,,,,,,,,,,,,,,566,18,Woman,Right,5,32,0.4,1,0,-,180,0.6687203999990743,['y'],0.4386610000001383,1.608,2813.434298100001,,,,,566,18,Woman,Right,
,,,,,,,,,,,,,,,,,566,18,Woman,Right,5,58,0.15,1,180,-,180,0.6167495999998209,['y'],0.8561088999995263,1.974,2817.2343186,,,,,566,18,Woman,Right,
,,,,,,,,,,,,,,,,,566,18,Woman,Right,5,78,0.15,1,180,-,180,0.5537449999992532,['y'],0.4313189999993483,1.8860000000000001,2820.7011408,,,,,566,18,Woman,Right,
,,,,,,,,,,,,,,,,,566,18,Woman,Right,5,52,0.15,1,0,-,180,0.6245402000004106,['y'],0.42310559999896213,1.954,2824.1019598000003,,,,,566,18,Woman,Right,
,,,,,,,,,,,,,,,,,566,18,Woman,Right,5,30,0.4,1,180,-,180,0.4478177000000869,['y'],0.342888999999559,1.738,2827.234359100001,,,,,566,18,Woman,Right,
,,,,,,,,,,,,,,,,,566,18,Woman,Right,5,10,0.4,1,180,-,180,0.42641290000028675,['y'],0.3435349999999744,1.782,2830.3343452999998,,,,,566,18,Woman,Right,
,,,,,,,,,,,,,,,,,566,18,Woman,Right,5,5,1,2,0,180,180,0.46250049999980547,['y'],0.33525470000131463,1.94,2833.4346079999996,,,,,566,18,Woman,Right,
,,,,,,,,,,,,,,,,,566,18,Woman,Right,5,23,0.4,2,180,0,180,0.362343000000692,['y'],0.42302159999962896,1.742,2836.5177372,,,,,566,18,Woman,Right,
,,,,,,,,,,,,,,,,,566,18,Woman,Right,5,56,0.15,1,0,-,180,0.4790424000002531,['y'],0.29528749999917636,1.666,2839.6012855999998,,,,,566,18,Woman,Right,
,,,,,,,,,,,,,,,,,566,18,Woman,Right,5,34,0.4,1,180,-,180,0.4113058999992063,['n'],0.38299259999985225,1.834,2843.6679029000006,,,,,566,18,Woman,Right,
,,,,,,,,,,,,,,,,,566,18,Woman,Right,5,1,1,2,0,180,180,0.8177013000004081,['n'],0.383062400000199,1.834,2847.3343664000004,,,,,566,18,Woman,Right,
,,,,,,,,,,,,,,,,,566,18,Woman,Right,5,44,0.15,1,0,-,180,0.324503800000457,['n'],0.3671732000002521,1.928,2850.8176416999995,,,,,566,18,Woman,Right,
,,,,,,,,,,,,,,,,,566,18,Woman,Right,5,3,1,2,180,0,180,0.6983844000005774,['y'],0.438876899999741,1.756,2854.3844147,,,,,566,18,Woman,Right,
,,,,,,,,,,,,,,,,,566,18,Woman,Right,5,48,0.15,1,0,-,180,0.06047429999853193,['n'],0.4630650999988575,1.744,2857.3177441999997,,,,,566,18,Woman,Right,
,,,,,,,,,,,,,,,,,566,18,Woman,Right,5,15,0.4,2,180,0,180,3.4139424999993935,['n'],0.2787678999993659,1.672,2864.2179039000002,,,,,566,18,Woman,Right,
,,,,,,,,,,,,,,,,,,,,,,,,,,,,,,,,,58.75,47.5,70.0,2283.887682999999,,,,,
