p_block,p_section,p_coherence,p_direction1,p_direction2,p_direction_response,p_direction_RT,p_change_response,p_change_RT,p_confidence,p_full_correct,p_without5_correct,p_full_total,p_without5_total,p_full_avg,p_witout5_avg,p_total_time,sub,age,sex,handedness,loop,trial randomization,coherence,condition,direction1,direction2,direction_response,direction_RT,change_response,change_RT,change_confidence,change_confidence_RT,block_direction_avg,block_stable_avg,block_change_avg,total_time,sub,age,sex,handedness,
1,1,1.0,180,-,180,2.2902961999998297,-,-,-,,,,,,,,549,19,Woman,Right,,,,,,,,,,,,,,,,,549,19,Woman,Right,
1,1,1.0,0,-,0,0.5525452000001678,-,-,-,,,,,,,,549,19,Woman,Right,,,,,,,,,,,,,,,,,549,19,Woman,Right,
1,1,1.0,0,-,180,0.3002689000004466,-,-,-,,,,,,,,549,19,Woman,Right,,,,,,,,,,,,,,,,,549,19,Woman,Right,
1,1,1.0,0,-,0,0.3709516999997504,-,-,-,,,,,,,,549,19,Woman,Right,,,,,,,,,,,,,,,,,549,19,Woman,Right,
1,1,1.0,0,-,180,1.357731000000058,-,-,-,,,,,,,,549,19,Woman,Right,,,,,,,,,,,,,,,,,549,19,Woman,Right,
1,1,1.0,180,-,180,0.3657831000000442,-,-,-,,,,,,,,549,19,Woman,Right,,,,,,,,,,,,,,,,,549,19,Woman,Right,
1,1,1.0,0,-,0,0.33241909999924246,-,-,-,,,,,,,,549,19,Woman,Right,,,,,,,,,,,,,,,,,549,19,Woman,Right,
1,1,1.0,180,-,180,0.2750975999997536,-,-,-,,,,,,,,549,19,Woman,Right,,,,,,,,,,,,,,,,,549,19,Woman,Right,
1,1,1.0,180,-,180,0.25038260000019363,-,-,-,,,,,,,,549,19,Woman,Right,,,,,,,,,,,,,,,,,549,19,Woman,Right,
1,1,1.0,180,-,180,0.05027440000048955,-,-,-,8,8,10,10,0.8,0.8,,549,19,Woman,Right,,,,,,,,,,,,,,,,,549,19,Woman,Right,
2,1,0.4,180,-,180,0.8322227999997267,-,-,-,,,,,,,,549,19,Woman,Right,,,,,,,,,,,,,,,,,549,19,Woman,Right,
2,1,0.4,0,-,0,0.29638880000038625,-,-,-,,,,,,,,549,19,Woman,Right,,,,,,,,,,,,,,,,,549,19,Woman,Right,
2,1,0.15,0,-,0,1.2390771999998833,-,-,-,,,,,,,,549,19,Woman,Right,,,,,,,,,,,,,,,,,549,19,Woman,Right,
2,1,0.15,0,-,180,0.5921164000001227,-,-,-,,,,,,,,549,19,Woman,Right,,,,,,,,,,,,,,,,,549,19,Woman,Right,
2,1,0.4,180,-,180,1.4029860999999073,-,-,-,,,,,,,,549,19,Woman,Right,,,,,,,,,,,,,,,,,549,19,Woman,Right,
2,1,0.15,0,-,0,0.28521309999996447,-,-,-,,,,,,,,549,19,Woman,Right,,,,,,,,,,,,,,,,,549,19,Woman,Right,
2,1,0.4,180,-,180,0.51584560000083,-,-,-,,,,,,,,549,19,Woman,Right,,,,,,,,,,,,,,,,,549,19,Woman,Right,
2,1,0.4,180,-,180,0.20088899999973364,-,-,-,,,,,,,,549,19,Woman,Right,,,,,,,,,,,,,,,,,549,19,Woman,Right,
2,1,0.15,180,-,0,0.2323774999995294,-,-,-,,,,,,,,549,19,Woman,Right,,,,,,,,,,,,,,,,,549,19,Woman,Right,
2,1,0.4,0,-,0,0.266552000000047,-,-,-,8,6,10,6,0.8,1.0,,549,19,Woman,Right,,,,,,,,,,,,,,,,,549,19,Woman,Right,
3,2,1.0,180,0,0,2.6993993999994927,['y'],6.7759132000001046,2,,,,,,,,549,19,Woman,Right,,,,,,,,,,,,,,,,,549,19,Woman,Right,
3,2,1.0,0,180,180,2.054471399999784,['y'],1.3211522999999943,1.97,,,,,,,,549,19,Woman,Right,,,,,,,,,,,,,,,,,549,19,Woman,Right,
3,2,1.0,0,180,180,1.1574774999999136,['y'],1.1945599000000584,1.984,,,,,,,,549,19,Woman,Right,,,,,,,,,,,,,,,,,549,19,Woman,Right,
3,2,1.0,180,0,0,2.0968686999995043,['y'],1.049835599999824,2.0,,,,,,,,549,19,Woman,Right,,,,,,,,,,,,,,,,,549,19,Woman,Right,
3,2,1.0,180,0,0,1.366373200000453,['y'],0.5227103999995961,2.0,,,,,,,,549,19,Woman,Right,,,,,,,,,,,,,,,,,549,19,Woman,Right,
3,2,1.0,180,0,0,0.8859727999997631,['y'],0.2787393999997221,2.0,,,,,,,,549,19,Woman,Right,,,,,,,,,,,,,,,,,549,19,Woman,Right,
3,2,1.0,180,0,0,0.4995581000002858,['y'],0.03586059999997815,2.0,,,,,,,,549,19,Woman,Right,,,,,,,,,,,,,,,,,549,19,Woman,Right,
3,2,1.0,0,180,180,0.414589199999682,['y'],0.3146977999995215,1.8940000000000001,,,,,,,,549,19,Woman,Right,,,,,,,,,,,,,,,,,549,19,Woman,Right,
3,2,1.0,180,0,0,0.36439770000015415,['y'],0.05748719999974128,1.94,,,,,,,,549,19,Woman,Right,,,,,,,,,,,,,,,,,549,19,Woman,Right,
3,2,1.0,180,0,0,0.30374660000052245,['y'],0.7527921999999307,1.8599999999999999,10,10,10,10,1.0,1.0,,549,19,Woman,Right,,,,,,,,,,,,,,,,,549,19,Woman,Right,
4,2,0.4,180,0,0,0.5449738999996043,['y'],0.36809009999979025,1.944,,,,,,,,549,19,Woman,Right,,,,,,,,,,,,,,,,,549,19,Woman,Right,
4,2,0.4,180,0,0,0.5001554999998916,['y'],0.23650509999970382,1.924,,,,,,,,549,19,Woman,Right,,,,,,,,,,,,,,,,,549,19,Woman,Right,
4,2,0.4,180,0,0,0.8095840999994834,['y'],0.26090149999981804,1.8980000000000001,,,,,,,,549,19,Woman,Right,,,,,,,,,,,,,,,,,549,19,Woman,Right,
4,2,0.15,0,180,180,1.1359120999995866,['y'],0.2386690000003,1.9060000000000001,,,,,,,,549,19,Woman,Right,,,,,,,,,,,,,,,,,549,19,Woman,Right,
4,2,0.15,180,0,0,0.38700390000030893,['y'],0.4712210000006962,1.87,,,,,,,,549,19,Woman,Right,,,,,,,,,,,,,,,,,549,19,Woman,Right,
4,2,0.15,0,180,180,0.499249299999974,['y'],0.28470870000001014,1.858,,,,,,,,549,19,Woman,Right,,,,,,,,,,,,,,,,,549,19,Woman,Right,
4,2,0.15,0,180,180,0.3176064999997834,['y'],0.1896551999998337,1.8820000000000001,,,,,,,,549,19,Woman,Right,,,,,,,,,,,,,,,,,549,19,Woman,Right,
4,2,0.15,0,180,0,0.35717489999933605,['y'],1.3391147000002093,1.8820000000000001,,,,,,,,549,19,Woman,Right,,,,,,,,,,,,,,,,,549,19,Woman,Right,
4,2,0.15,180,0,180,0.9985292999999729,['y'],1.187016300000323,1.8900000000000001,,,,,,,,549,19,Woman,Right,,,,,,,,,,,,,,,,,549,19,Woman,Right,
4,2,0.15,0,180,180,0.6048811999999089,['y'],0.3686435999998139,1.8599999999999999,8,3,10,3,0.8,1.0,,549,19,Woman,Right,,,,,,,,,,,,,,,,,549,19,Woman,Right,
5,3,0.15,180,-,0,0.8935089999995398,['n'],2.3661052999996173,1.334,,,,,,,,549,19,Woman,Right,,,,,,,,,,,,,,,,,549,19,Woman,Right,
5,3,0.15,0,180,180,0.33930360000067594,['n'],2.4103274999997666,1.276,,,,,,,,549,19,Woman,Right,,,,,,,,,,,,,,,,,549,19,Woman,Right,
5,3,0.4,0,180,180,0.363513299999795,['y'],0.8340840999999273,1.696,,,,,,,,549,19,Woman,Right,,,,,,,,,,,,,,,,,549,19,Woman,Right,
5,3,0.4,0,-,180,0.5284037000001263,['n'],1.0549780999999712,1.734,,,,,,,,549,19,Woman,Right,,,,,,,,,,,,,,,,,549,19,Woman,Right,
5,3,0.4,0,-,180,0.45303039999998873,['y'],0.6961197000000539,1.3319999999999999,,,,,,,,549,19,Woman,Right,,,,,,,,,,,,,,,,,549,19,Woman,Right,
5,3,0.15,0,180,0,0.8523958000005223,['y'],0.49515079999946465,1.324,,,,,,,,549,19,Woman,Right,,,,,,,,,,,,,,,,,549,19,Woman,Right,
5,3,0.15,0,180,180,0.3034563999999591,['y'],0.3593503000001874,1.724,,,,,,,,549,19,Woman,Right,,,,,,,,,,,,,,,,,549,19,Woman,Right,
5,3,1.0,0,-,180,0.4303319000000556,['y'],0.24255650000031892,1.232,,,,,,,,549,19,Woman,Right,,,,,,,,,,,,,,,,,549,19,Woman,Right,
5,3,1.0,180,-,180,1.1650147999998808,['n'],0.2989322000003085,1.67,,,,,,,,549,19,Woman,Right,,,,,,,,,,,,,,,,,549,19,Woman,Right,
5,3,0.4,180,-,0,1.5160046000000875,['n'],0.6937130000005709,1.3519999999999999,,,,,,,,549,19,Woman,Right,,,,,,,,,,,,,,,,,549,19,Woman,Right,
5,3,0.4,180,-,0,0.6608409000000393,['y'],0.2633642000000691,1.08,,,,,,,,549,19,Woman,Right,,,,,,,,,,,,,,,,,549,19,Woman,Right,
5,3,1.0,180,-,180,0.6018821999996362,['n'],0.6064152000008107,1.7,,,,,,,,549,19,Woman,Right,,,,,,,,,,,,,,,,,549,19,Woman,Right,
5,3,0.15,0,-,0,0.6453418000000966,['n'],0.7453476999999111,1.742,,,,,,,,549,19,Woman,Right,,,,,,,,,,,,,,,,,549,19,Woman,Right,
5,3,1.0,0,180,180,1.3805481999997937,['y'],0.20997469999929308,1.772,,,,,,,,549,19,Woman,Right,,,,,,,,,,,,,,,,,549,19,Woman,Right,
5,3,0.15,180,-,180,0.5864865000003192,['n'],0.2323461000005409,1.752,,,,,,,,549,19,Woman,Right,,,,,,,,,,,,,,,,,549,19,Woman,Right,
5,3,1.0,0,-,0,0.33863300000029994,['n'],0.23360189999948489,1.846,,,,,,,,549,19,Woman,Right,,,,,,,,,,,,,,,,,549,19,Woman,Right,
5,3,1.0,180,-,180,0.37074029999985214,['n'],0.23206160000063392,1.78,,,,,,,,549,19,Woman,Right,,,,,,,,,,,,,,,,,549,19,Woman,Right,
5,3,1.0,0,-,0,0.27456639999945764,['n'],0.15650060000007215,1.776,,,,,,,,549,19,Woman,Right,,,,,,,,,,,,,,,,,549,19,Woman,Right,
5,3,1.0,180,0,0,0.9964202000001023,['y'],2.5781976999996914,1.774,,,,,,,,549,19,Woman,Right,,,,,,,,,,,,,,,,,549,19,Woman,Right,
5,3,1.0,0,-,0,0.2988985000001776,['n'],0.17057569999997213,1.754,9,7,10,8,0.9,0.875,,549,19,Woman,Right,,,,,,,,,,,,,,,,,549,19,Woman,Right,
,,,,,,,,,,,,,,,,3.899999683198985e-06,549,19,Woman,Right,,,,,,,,,,,,,,,,,549,19,Woman,Right,
,,,,,,,,,,,,,,,,,549,19,Woman,Right,0,57,0.15,2,0,180,180,2.1789051999994626,['n'],6.393400899999506,1.708,338.2669955000001,,,,,549,19,Woman,Right,
,,,,,,,,,,,,,,,,,549,19,Woman,Right,0,71,0.15,2,180,0,180,0.6126823000004151,['n'],1.0734044999999242,1.714,342.3171345999999,,,,,549,19,Woman,Right,
,,,,,,,,,,,,,,,,,549,19,Woman,Right,0,19,0.4,2,180,0,0,2.7011782999998104,['y'],2.8576137000000017,1.714,350.3167575000007,,,,,549,19,Woman,Right,
,,,,,,,,,,,,,,,,,549,19,Woman,Right,0,2,1,1,180,-,180,1.1655971000000136,['n'],1.0431514000001698,1.354,355.3002047,,,,,549,19,Woman,Right,
,,,,,,,,,,,,,,,,,549,19,Woman,Right,0,59,0.15,2,180,0,0,0.24218819999987318,['n'],1.9774225999999544,1.702,360.0668381000005,,,,,549,19,Woman,Right,
,,,,,,,,,,,,,,,,,549,19,Woman,Right,0,10,0.4,1,180,-,0,0.47530789999927947,['y'],0.9616061000006084,1.266,364.5329376999998,,,,,549,19,Woman,Right,
,,,,,,,,,,,,,,,,,549,19,Woman,Right,0,34,0.4,1,180,-,180,0.5020855000002484,['y'],1.264787900000556,1.3359999999999999,368.88290850000067,,,,,549,19,Woman,Right,
,,,,,,,,,,,,,,,,,549,19,Woman,Right,0,68,0.15,1,0,-,0,0.33944940000037604,['y'],0.7932596000000558,1.682,372.7006239000002,,,,,549,19,Woman,Right,
,,,,,,,,,,,,,,,,,549,19,Woman,Right,0,72,0.15,1,0,-,0,0.263747300000432,['n'],1.8016421000002083,1.692,377.28360130000056,,,,,549,19,Woman,Right,
,,,,,,,,,,,,,,,,,549,19,Woman,Right,0,13,0.4,2,0,180,180,0.291971000000558,['y'],2.0657484000003024,1.6400000000000001,381.9840635999999,,,,,549,19,Woman,Right,
,,,,,,,,,,,,,,,,,549,19,Woman,Right,0,49,0.15,2,0,180,0,0.3249405000005936,['y'],0.8093485999997938,1.554,386.28336350000063,,,,,549,19,Woman,Right,
,,,,,,,,,,,,,,,,,549,19,Woman,Right,0,47,0.15,2,180,0,0,0.3610056999996232,['n'],1.3772245999998631,1.3519999999999999,391.05020570000033,,,,,549,19,Woman,Right,
,,,,,,,,,,,,,,,,,549,19,Woman,Right,0,64,0.15,1,0,-,180,0.6505470000001878,['n'],2.1691577999999936,1.6139999999999999,396.3506875000003,,,,,549,19,Woman,Right,
,,,,,,,,,,,,,,,,,549,19,Woman,Right,0,67,0.15,2,180,0,0,0.45533010000053764,['y'],0.7937775000000329,1.6440000000000001,400.1667699999998,,,,,549,19,Woman,Right,
,,,,,,,,,,,,,,,,,549,19,Woman,Right,0,22,0.4,1,180,-,180,0.8724427000006472,['y'],1.1294382000005498,1.33,405.1833922000005,,,,,549,19,Woman,Right,
,,,,,,,,,,,,,,,,,549,19,Woman,Right,0,35,0.4,2,180,0,0,0.3325545999996393,['y'],3.679812299999867,1.726,411.48422010000013,,,,,549,19,Woman,Right,
,,,,,,,,,,,,,,,,,549,19,Woman,Right,0,55,0.15,2,180,0,0,0.5834948000001532,['y'],1.8585850999998001,1.766,416.6998592,,,,,549,19,Woman,Right,
,,,,,,,,,,,,,,,,,549,19,Woman,Right,0,65,0.15,2,0,180,0,0.3115311000001384,['n'],1.6258733000004213,1.75,421.14983740000025,,,,,549,19,Woman,Right,
,,,,,,,,,,,,,,,,,549,19,Woman,Right,0,56,0.15,1,0,-,0,0.41560089999984484,['n'],1.4257439000002705,1.784,425.26709889999984,,,,,549,19,Woman,Right,
,,,,,,,,,,,,,,,,,549,19,Woman,Right,0,78,0.15,1,180,-,0,0.5734886000000188,['n'],1.2092419999999038,1.338,430.58363069999996,,,,,549,19,Woman,Right,
,,,,,,,,,,,,,,,,,549,19,Woman,Right,0,44,0.15,1,0,-,0,0.5532505999999557,['n'],2.0729974000005313,1.6680000000000001,435.6330514000001,,,,,549,19,Woman,Right,
,,,,,,,,,,,,,,,,,549,19,Woman,Right,0,58,0.15,1,180,-,180,0.6662831999992704,['n'],2.56975809999949,1.694,441.41577320000033,,,,,549,19,Woman,Right,
,,,,,,,,,,,,,,,,,549,19,Woman,Right,0,53,0.15,2,0,180,180,0.8853076000004876,['y'],1.7454612999999881,1.704,446.54984090000016,,,,,549,19,Woman,Right,
,,,,,,,,,,,,,,,,,549,19,Woman,Right,0,8,0.4,1,0,-,0,0.2404350999995586,['n'],1.4337449000004199,1.708,450.38285300000007,,,,,549,19,Woman,Right,
,,,,,,,,,,,,,,,,,549,19,Woman,Right,0,16,0.4,1,0,-,0,0.4929760000004535,['n'],1.7780643999994936,1.718,454.9825942000007,,,,,549,19,Woman,Right,
,,,,,,,,,,,,,,,,,549,19,Woman,Right,0,30,0.4,1,180,-,180,0.42969369999991613,['n'],2.0258890000004612,1.71,459.7168474,,,,,549,19,Woman,Right,
,,,,,,,,,,,,,,,,,549,19,Woman,Right,0,29,0.4,2,0,180,180,0.5392277000000831,['y'],1.4571103999996922,1.712,463.8334530000002,,,,,549,19,Woman,Right,
,,,,,,,,,,,,,,,,,549,19,Woman,Right,0,27,0.4,2,180,0,180,1.6827154000002338,['y'],1.3038487000003443,1.802,469.7836038000005,,,,,549,19,Woman,Right,
,,,,,,,,,,,,,,,,,549,19,Woman,Right,0,5,1,2,0,180,180,2.0329076999996687,['n'],0.9452707999998893,1.204,475.7001301,,,,,549,19,Woman,Right,
,,,,,,,,,,,,,,,,,549,19,Woman,Right,0,3,1,2,180,0,0,0.4720956000001024,['y'],2.9615563999996084,1.846,482.19887560000006,,,,,549,19,Woman,Right,
,,,,,,,,,,,,,,,,,549,19,Woman,Right,0,39,0.4,2,180,0,0,0.5882956000004924,['y'],1.145480399999542,1.768,486.3323422000003,,,,,549,19,Woman,Right,
,,,,,,,,,,,,,,,,,549,19,Woman,Right,0,45,0.15,2,0,180,0,1.4406623000004402,['n'],1.2099903999996968,1.774,491.26629779999985,,,,,549,19,Woman,Right,
,,,,,,,,,,,,,,,,,549,19,Woman,Right,0,33,0.4,2,0,180,180,0.30849489999945945,['n'],2.225973300000078,1.774,495.9999426000004,,,,,549,19,Woman,Right,
,,,,,,,,,,,,,,,,,549,19,Woman,Right,0,66,0.15,1,180,-,0,0.8072091000003638,['y'],0.9618057999996381,1.774,500.04915750000055,,,,,549,19,Woman,Right,
,,,,,,,,,,,,,,,,,549,19,Woman,Right,0,25,0.4,2,0,180,180,0.36782379999931436,['n'],0.8979084000002331,1.3,503.9000560000004,,,,,549,19,Woman,Right,
,,,,,,,,,,,,,,,,,549,19,Woman,Right,0,61,0.15,2,0,180,0,0.3432577000003221,['y'],0.9693429999997534,1.762,507.8661086000002,,,,,549,19,Woman,Right,
,,,,,,,,,,,,,,,,,549,19,Woman,Right,0,48,0.15,1,0,-,180,0.5932333000000654,['n'],1.2899492999995346,1.328,512.4000382000004,,,,,549,19,Woman,Right,
,,,,,,,,,,,,,,,,,549,19,Woman,Right,0,62,0.15,1,180,-,0,0.3923657999994248,['n'],0.8976433999996516,1.738,516.1496857000002,,,,,549,19,Woman,Right,
,,,,,,,,,,,,,,,,,549,19,Woman,Right,0,21,0.4,2,0,180,180,0.35120610000012675,['n'],4.202021699999932,1.78,523.3164059000001,,,,,549,19,Woman,Right,
,,,,,,,,,,,,,,,,,549,19,Woman,Right,0,23,0.4,2,180,0,180,1.5875185999993846,['y'],1.3857044999995196,1.6320000000000001,529.8495333999999,,,,,549,19,Woman,Right,
,,,,,,,,,,,,,,,,,549,19,Woman,Right,0,9,0.4,2,0,180,180,0.30045959999915794,['y'],2.1374675999995816,1.774,534.7993376000004,,,,,549,19,Woman,Right,
,,,,,,,,,,,,,,,,,549,19,Woman,Right,0,69,0.15,2,0,180,180,0.27002170000014303,['n'],1.386088700000073,1.78,538.7000597000006,,,,,549,19,Woman,Right,
,,,,,,,,,,,,,,,,,549,19,Woman,Right,0,12,0.4,1,0,-,180,10.35773429999972,['y'],0.9292086999994353,1.288,552.7492908000004,,,,,549,19,Woman,Right,
,,,,,,,,,,,,,,,,,549,19,Woman,Right,0,52,0.15,1,0,-,0,0.24829090000002907,['y'],0.7376553999993121,1.342,556.7999521000002,,,,,549,19,Woman,Right,
,,,,,,,,,,,,,,,,,549,19,Woman,Right,0,54,0.15,1,180,-,0,0.6152861999999004,['n'],1.1777879000001121,1.726,561.1998503000004,,,,,549,19,Woman,Right,
,,,,,,,,,,,,,,,,,549,19,Woman,Right,0,6,1,1,180,-,180,0.3107658999997511,['n'],1.3936560000001919,1.78,565.4321387,,,,,549,19,Woman,Right,
,,,,,,,,,,,,,,,,,549,19,Woman,Right,0,76,0.15,1,0,-,0,0.3601103000000876,['y'],0.7702150999994046,1.786,568.6829207999999,,,,,549,19,Woman,Right,
,,,,,,,,,,,,,,,,,549,19,Woman,Right,0,7,1,2,180,0,0,0.33046050000029936,['y'],1.033778600000005,1.846,572.5988986000002,,,,,549,19,Woman,Right,
,,,,,,,,,,,,,,,,,549,19,Woman,Right,0,20,0.4,1,0,-,0,0.357470299999477,['y'],0.3135962999995172,1.334,575.4827429000006,,,,,549,19,Woman,Right,
,,,,,,,,,,,,,,,,,549,19,Woman,Right,0,36,0.4,1,0,-,0,0.5551947000003565,['y'],0.6738953000003676,1.766,578.9821128000003,,,,,549,19,Woman,Right,
,,,,,,,,,,,,,,,,,549,19,Woman,Right,0,26,0.4,1,180,-,0,0.39316280000002735,['y'],0.5859152000002723,1.776,582.3331905000005,,,,,549,19,Woman,Right,
,,,,,,,,,,,,,,,,,549,19,Woman,Right,0,18,0.4,1,180,-,0,0.4027122999996209,['y'],2.0897389000001567,1.792,587.0163368000003,,,,,549,19,Woman,Right,
,,,,,,,,,,,,,,,,,549,19,Woman,Right,0,42,0.4,1,180,-,0,0.4326076999996076,['y'],2.2665937000001577,1.798,591.9987835000002,,,,,549,19,Woman,Right,
,,,,,,,,,,,,,,,,,549,19,Woman,Right,0,73,0.15,2,0,180,180,0.27295630000025994,['n'],1.1221924000001309,1.202,596.0658288000004,,,,,549,19,Woman,Right,
,,,,,,,,,,,,,,,,,549,19,Woman,Right,0,50,0.15,1,180,-,0,1.5332480999995823,['y'],0.2984287999997832,1.756,600.0158189000003,,,,,549,19,Woman,Right,
,,,,,,,,,,,,,,,,,549,19,Woman,Right,0,79,0.15,2,180,0,0,0.4522614000006797,['n'],1.2180654000003415,1.3319999999999999,604.1982093000006,,,,,549,19,Woman,Right,
,,,,,,,,,,,,,,,,,549,19,Woman,Right,0,0,1,1,0,-,0,0.31010409999998956,['y'],3.7216214999998556,1.764,611.1662508,,,,,549,19,Woman,Right,
,,,,,,,,,,,,,,,,,549,19,Woman,Right,0,60,0.15,1,0,-,180,0.5184051000005638,['y'],0.7780818000001091,1.258,615.0335568,,,,,549,19,Woman,Right,
,,,,,,,,,,,,,,,,,549,19,Woman,Right,0,75,0.15,2,180,0,0,0.2547652000002927,['y'],0.6499549000000115,1.162,620.5820515000005,,,,,549,19,Woman,Right,
,,,,,,,,,,,,,,,,,549,19,Woman,Right,0,41,0.4,2,0,180,180,0.44264769999972486,['y'],1.5458694999997533,1.816,624.8991024000006,,,,,549,19,Woman,Right,
,,,,,,,,,,,,,,,,,549,19,Woman,Right,0,51,0.15,2,180,0,0,1.3921529999997801,['n'],1.3051917000002504,1.816,630.0318254000003,,,,,549,19,Woman,Right,
,,,,,,,,,,,,,,,,,549,19,Woman,Right,0,70,0.15,1,180,-,180,0.7078658999998879,['n'],3.658294200000455,1.816,636.5830966000003,,,,,549,19,Woman,Right,
,,,,,,,,,,,,,,,,,549,19,Woman,Right,0,28,0.4,1,0,-,0,0.3514875999999276,['n'],1.3865519000000859,1.816,640.3986952000005,,,,,549,19,Woman,Right,
,,,,,,,,,,,,,,,,,549,19,Woman,Right,0,77,0.15,2,0,180,180,1.7404913999998826,['n'],1.122261399999843,1.816,645.4505372000003,,,,,549,19,Woman,Right,
,,,,,,,,,,,,,,,,,549,19,Woman,Right,0,14,0.4,1,180,-,180,0.25332259999959206,['n'],1.2422410999997737,1.6640000000000001,649.8155212000001,,,,,549,19,Woman,Right,
,,,,,,,,,,,,,,,,,549,19,Woman,Right,0,1,1,2,0,180,180,0.3278166999998575,['y'],1.0743554999999105,1.8980000000000001,653.9322740000007,,,,,549,19,Woman,Right,
,,,,,,,,,,,,,,,,,549,19,Woman,Right,0,32,0.4,1,0,-,180,0.8278581000004124,['y'],1.1537821000001713,1.792,658.4321284000007,,,,,549,19,Woman,Right,
,,,,,,,,,,,,,,,,,549,19,Woman,Right,0,11,0.4,2,180,0,0,0.9267904999996972,['n'],1.1781015999995361,1.318,663.1991330999999,,,,,549,19,Woman,Right,
,,,,,,,,,,,,,,,,,549,19,Woman,Right,0,43,0.4,2,180,0,0,0.4948372999997446,['y'],1.0184076000005007,1.846,667.1495206999998,,,,,549,19,Woman,Right,
,,,,,,,,,,,,,,,,,549,19,Woman,Right,0,37,0.4,2,0,180,180,0.42445240000051854,['y'],1.3458483999993405,1.6400000000000001,671.1313782000007,,,,,549,19,Woman,Right,
,,,,,,,,,,,,,,,,,549,19,Woman,Right,0,38,0.4,1,180,-,0,0.5459810000002108,['y'],0.7696406000004572,1.766,674.8989471000004,,,,,549,19,Woman,Right,
,,,,,,,,,,,,,,,,,549,19,Woman,Right,0,74,0.15,1,180,-,0,1.4845824000003631,['y'],0.34625969999979134,1.718,679.3991294000007,,,,,549,19,Woman,Right,
,,,,,,,,,,,,,,,,,549,19,Woman,Right,0,4,1,1,0,-,0,0.3513222000001406,['n'],0.8427091000003202,1.8900000000000001,683.1656002,,,,,549,19,Woman,Right,
,,,,,,,,,,,,,,,,,549,19,Woman,Right,0,17,0.4,2,0,180,0,0.6319130000001678,['y'],1.418009300000449,1.694,687.6654626999998,,,,,549,19,Woman,Right,
,,,,,,,,,,,,,,,,,549,19,Woman,Right,0,31,0.4,2,180,0,0,1.0713069000003088,['y'],1.3943618999992395,1.694,692.3652387000002,,,,,549,19,Woman,Right,
,,,,,,,,,,,,,,,,,549,19,Woman,Right,0,15,0.4,2,180,0,0,0.26277220000065427,['y'],1.626408399999491,1.71,696.3986453000007,,,,,549,19,Woman,Right,
,,,,,,,,,,,,,,,,,549,19,Woman,Right,0,40,0.4,1,0,-,0,2.9747426000003543,['y'],0.47362650000013673,1.726,701.9981500000004,,,,,549,19,Woman,Right,
,,,,,,,,,,,,,,,,,549,19,Woman,Right,0,46,0.15,1,180,-,180,0.23730880000039178,['n'],0.6023646000003282,1.726,705.0493084,,,,,549,19,Woman,Right,
,,,,,,,,,,,,,,,,,549,19,Woman,Right,0,63,0.15,2,180,0,0,0.6820451000003231,['n'],1.2600538999995479,1.726,709.1321489000002,,,,,549,19,Woman,Right,
,,,,,,,,,,,,,,,,,549,19,Woman,Right,0,24,0.4,1,0,-,0,0.9128355000002557,['y'],1.3866097999998601,1.782,713.6653186000003,,,,,549,19,Woman,Right,
,,,,,,,,,,,,,,,,,549,19,Woman,Right,1,52,0.15,1,0,-,0,0.42652910000015254,['y'],0.7462028999998438,1.806,745.0815851000007,70.0,47.5,57.5,,549,19,Woman,Right,
,,,,,,,,,,,,,,,,,549,19,Woman,Right,1,74,0.15,1,180,-,180,0.3925159000000349,['y'],0.6825664000007237,1.684,748.7981825000006,,,,,549,19,Woman,Right,
,,,,,,,,,,,,,,,,,549,19,Woman,Right,1,4,1,1,0,-,0,0.89375310000014,['n'],1.4186258999998245,1.684,753.2479469999998,,,,,549,19,Woman,Right,
,,,,,,,,,,,,,,,,,549,19,Woman,Right,1,8,0.4,1,0,-,0,0.5710297999994509,['n'],1.6587325999998939,1.684,757.6657636999998,,,,,549,19,Woman,Right,
,,,,,,,,,,,,,,,,,549,19,Woman,Right,1,34,0.4,1,180,-,180,0.49740900000051624,['y'],0.4983346999997593,1.684,761.7483545000005,,,,,549,19,Woman,Right,
,,,,,,,,,,,,,,,,,549,19,Woman,Right,1,75,0.15,2,180,0,0,1.380153699999937,['n'],1.1066125999996075,1.764,767.4489408,,,,,549,19,Woman,Right,
,,,,,,,,,,,,,,,,,549,19,Woman,Right,1,28,0.4,1,0,-,0,1.7877607999998872,['y'],0.33851359999971464,1.77,772.2987738000002,,,,,549,19,Woman,Right,
,,,,,,,,,,,,,,,,,549,19,Woman,Right,1,66,0.15,1,180,-,180,0.20284079999964888,['n'],2.1145187000001897,1.77,776.7813498000005,,,,,549,19,Woman,Right,
,,,,,,,,,,,,,,,,,549,19,Woman,Right,1,26,0.4,1,180,-,0,0.4394720000000234,['n'],0.6420753000002151,1.06,780.3320881,,,,,549,19,Woman,Right,
,,,,,,,,,,,,,,,,,549,19,Woman,Right,1,58,0.15,1,180,-,180,1.4297817000006035,['n'],0.26592120000077557,1.732,784.5158369000001,,,,,549,19,Woman,Right,
,,,,,,,,,,,,,,,,,549,19,Woman,Right,1,33,0.4,2,0,180,180,0.25692269999944983,['n'],1.1942989999997735,1.722,788.4144436000006,,,,,549,19,Woman,Right,
,,,,,,,,,,,,,,,,,549,19,Woman,Right,1,76,0.15,1,0,-,180,0.3991457000001901,['y'],1.0105899999998655,1.134,791.9820110999999,,,,,549,19,Woman,Right,
,,,,,,,,,,,,,,,,,549,19,Woman,Right,1,60,0.15,1,0,-,0,0.9727356000003056,['n'],0.281688099999883,1.146,795.4488795000007,,,,,549,19,Woman,Right,
,,,,,,,,,,,,,,,,,549,19,Woman,Right,1,64,0.15,1,0,-,0,0.27248190000045724,['y'],0.6819483999997829,1.238,799.0488227000005,,,,,549,19,Woman,Right,
,,,,,,,,,,,,,,,,,549,19,Woman,Right,1,57,0.15,2,0,180,0,0.2713880999999674,['n'],0.68192530000033,1.174,802.4486856000003,,,,,549,19,Woman,Right,
,,,,,,,,,,,,,,,,,549,19,Woman,Right,1,1,1,2,0,180,180,0.9760828999997102,['y'],1.5859735999993063,1.87,807.6148702999999,,,,,549,19,Woman,Right,
,,,,,,,,,,,,,,,,,549,19,Woman,Right,1,48,0.15,1,0,-,180,0.7119217999998,['n'],1.0260433000003104,1.616,812.5483812000002,,,,,549,19,Woman,Right,
,,,,,,,,,,,,,,,,,549,19,Woman,Right,1,47,0.15,2,180,0,0,0.7313068000003113,['y'],2.578030700000454,1.454,818.5813646000006,,,,,549,19,Woman,Right,
,,,,,,,,,,,,,,,,,549,19,Woman,Right,1,22,0.4,1,180,-,0,1.0252534999999625,['n'],0.6419590999994398,1.218,822.5147837000004,,,,,549,19,Woman,Right,
,,,,,,,,,,,,,,,,,549,19,Woman,Right,1,51,0.15,2,180,0,0,0.9785264000001916,['n'],0.33027669999955833,1.6480000000000001,826.0651181000003,,,,,549,19,Woman,Right,
,,,,,,,,,,,,,,,,,549,19,Woman,Right,1,12,0.4,1,0,-,0,0.5572686000004978,['n'],0.5063401999996131,1.258,829.5982017000006,,,,,549,19,Woman,Right,
,,,,,,,,,,,,,,,,,549,19,Woman,Right,1,7,1,2,180,0,0,0.431979400000273,['y'],1.1781313000001319,1.832,833.6485397000006,,,,,549,19,Woman,Right,
,,,,,,,,,,,,,,,,,549,19,Woman,Right,1,32,0.4,1,0,-,0,0.3657429000004413,['y'],0.49827449999975215,1.314,836.9983151000006,,,,,549,19,Woman,Right,
,,,,,,,,,,,,,,,,,549,19,Woman,Right,1,27,0.4,2,180,0,0,0.30409620000045834,['y'],1.465962700000091,1.8679999999999999,841.0818360000003,,,,,549,19,Woman,Right,
,,,,,,,,,,,,,,,,,549,19,Woman,Right,1,36,0.4,1,0,-,0,0.6367858000003253,['n'],0.6339533000000301,1.254,844.6646107000006,,,,,549,19,Woman,Right,
,,,,,,,,,,,,,,,,,549,19,Woman,Right,1,44,0.15,1,0,-,0,0.7549012999998013,['n'],0.2181213999992906,1.16,848.0485675,,,,,549,19,Woman,Right,
,,,,,,,,,,,,,,,,,549,19,Woman,Right,1,0,1,1,0,-,0,3.2710150000002614,['n'],0.16967179999937798,1.802,853.8477290999999,,,,,549,19,Woman,Right,
,,,,,,,,,,,,,,,,,549,19,Woman,Right,1,62,0.15,1,180,-,180,0.7288918000003832,['y'],0.250065999999606,1.12,857.2813276000006,,,,,549,19,Woman,Right,
,,,,,,,,,,,,,,,,,549,19,Woman,Right,1,20,0.4,1,0,-,0,0.62122939999972,['y'],0.23438470000019151,1.328,860.3485903999999,,,,,549,19,Woman,Right,
,,,,,,,,,,,,,,,,,549,19,Woman,Right,1,78,0.15,1,180,-,0,0.9535470000000714,['n'],0.21000569999978325,1.292,863.8308415000001,,,,,549,19,Woman,Right,
,,,,,,,,,,,,,,,,,549,19,Woman,Right,1,50,0.15,1,180,-,0,1.116912599999523,['n'],0.31393759999991744,1.276,867.6984496000005,,,,,549,19,Woman,Right,
,,,,,,,,,,,,,,,,,549,19,Woman,Right,1,72,0.15,1,0,-,0,1.8430141999997431,['y'],0.8338569000006828,1.214,872.7312327,,,,,549,19,Woman,Right,
,,,,,,,,,,,,,,,,,549,19,Woman,Right,1,14,0.4,1,180,-,0,0.5306521000002249,['n'],0.7145112999996854,1.724,876.6318068999999,,,,,549,19,Woman,Right,
,,,,,,,,,,,,,,,,,549,19,Woman,Right,1,68,0.15,1,0,-,0,1.535370999999941,['n'],0.5066156000002593,1.274,880.8807087000005,,,,,549,19,Woman,Right,
,,,,,,,,,,,,,,,,,549,19,Woman,Right,1,29,0.4,2,0,180,0,5.099774100000104,['n'],1.5053966000004948,1.282,890.3315627000002,,,,,549,19,Woman,Right,
,,,,,,,,,,,,,,,,,549,19,Woman,Right,1,79,0.15,2,180,0,0,0.4811177999999927,['y'],1.9543627000002743,1.234,896.5972947,,,,,549,19,Woman,Right,
,,,,,,,,,,,,,,,,,549,19,Woman,Right,1,59,0.15,2,180,0,0,2.1114660000002914,['y'],0.29039929999999003,1.616,901.2470265000002,,,,,549,19,Woman,Right,
,,,,,,,,,,,,,,,,,549,19,Woman,Right,1,63,0.15,2,180,0,0,0.6946257999998124,['n'],0.7949743999997736,1.234,904.9649688,,,,,549,19,Woman,Right,
,,,,,,,,,,,,,,,,,549,19,Woman,Right,1,40,0.4,1,0,-,0,0.9305655999996816,['y'],0.3380689000005077,1.28,908.4315248000003,,,,,549,19,Woman,Right,
,,,,,,,,,,,,,,,,,549,19,Woman,Right,1,39,0.4,2,180,0,0,1.4558544000001348,['y'],0.24198259999957372,1.308,912.4149871999998,,,,,549,19,Woman,Right,
,,,,,,,,,,,,,,,,,549,19,Woman,Right,1,21,0.4,2,0,180,180,2.239190000000235,['y'],0.27476190000015777,1.6560000000000001,917.3482136000002,,,,,549,19,Woman,Right,
,,,,,,,,,,,,,,,,,549,19,Woman,Right,1,37,0.4,2,0,180,180,2.0156684000003224,['y'],1.002232400000139,1.732,922.7142961999998,,,,,549,19,Woman,Right,
,,,,,,,,,,,,,,,,,549,19,Woman,Right,1,53,0.15,2,0,180,180,2.692696799999794,['y'],0.2260048000007373,1.734,927.8480295999998,,,,,549,19,Woman,Right,
,,,,,,,,,,,,,,,,,549,19,Woman,Right,1,61,0.15,2,0,180,180,1.9624099000002388,['n'],1.2347320999997464,1.1560000000000001,933.9480274000007,,,,,549,19,Woman,Right,
,,,,,,,,,,,,,,,,,549,19,Woman,Right,1,71,0.15,2,180,0,0,0.8121064999995724,['y'],0.370121900000413,1.0,938.0970537000003,,,,,549,19,Woman,Right,
,,,,,,,,,,,,,,,,,549,19,Woman,Right,1,69,0.15,2,0,180,180,1.415379899999607,['y'],0.6581396000001405,1.0,943.0469317000006,,,,,549,19,Woman,Right,
,,,,,,,,,,,,,,,,,549,19,Woman,Right,1,16,0.4,1,0,-,0,2.0275270999991335,['y'],0.5546103000006042,1.684,948.4642746,,,,,549,19,Woman,Right,
,,,,,,,,,,,,,,,,,549,19,Woman,Right,1,45,0.15,2,0,180,0,2.72666130000016,['n'],0.3627405999995972,1.302,954.014795,,,,,549,19,Woman,Right,
,,,,,,,,,,,,,,,,,549,19,Woman,Right,1,18,0.4,1,180,-,180,3.162286299999323,['n'],3.0018575000003693,1.23,963.0641525000001,,,,,549,19,Woman,Right,
,,,,,,,,,,,,,,,,,549,19,Woman,Right,1,46,0.15,1,180,-,0,2.6715317000007417,['n'],0.29869289999987814,1.234,968.3302221000004,,,,,549,19,Woman,Right,
,,,,,,,,,,,,,,,,,549,19,Woman,Right,1,30,0.4,1,180,-,0,0.7727826000000277,['y'],1.2028961999994863,1.6139999999999999,973.0974809999998,,,,,549,19,Woman,Right,
,,,,,,,,,,,,,,,,,549,19,Woman,Right,1,56,0.15,1,0,-,0,0.6287768000001961,['y'],0.2986255000005258,1.342,976.3478540000006,,,,,549,19,Woman,Right,
,,,,,,,,,,,,,,,,,549,19,Woman,Right,1,3,1,2,180,0,0,0.6524882000003345,['y'],2.3863733000007414,1.794,981.9975100000001,,,,,549,19,Woman,Right,
,,,,,,,,,,,,,,,,,549,19,Woman,Right,1,41,0.4,2,0,180,180,0.7185756999997466,['y'],0.7707469000006313,1.9020000000000001,986.1302663000006,,,,,549,19,Woman,Right,
,,,,,,,,,,,,,,,,,549,19,Woman,Right,1,38,0.4,1,180,-,0,0.771557600000051,['y'],1.2268530999999712,1.646,990.2979530000002,,,,,549,19,Woman,Right,
,,,,,,,,,,,,,,,,,549,19,Woman,Right,1,73,0.15,2,0,180,180,2.662438999999722,['y'],0.8103340999996362,1.658,996.3311499000001,,,,,549,19,Woman,Right,
,,,,,,,,,,,,,,,,,549,19,Woman,Right,1,13,0.4,2,0,180,180,0.4019138000003295,['y'],1.6911055000000488,1.392,1001.1812422000003,,,,,549,19,Woman,Right,
,,,,,,,,,,,,,,,,,549,19,Woman,Right,1,55,0.15,2,180,0,0,1.2969243999996252,['y'],0.9143014000001131,1.3,1006.2810485,,,,,549,19,Woman,Right,
,,,,,,,,,,,,,,,,,549,19,Woman,Right,1,11,0.4,2,180,0,0,0.6395660999996835,['y'],1.4665709000000788,1.696,1010.4803130999999,,,,,549,19,Woman,Right,
,,,,,,,,,,,,,,,,,549,19,Woman,Right,1,10,0.4,1,180,-,0,1.084074999999757,['n'],1.0429683000002115,1.278,1015.6637660000006,,,,,549,19,Woman,Right,
,,,,,,,,,,,,,,,,,549,19,Woman,Right,1,23,0.4,2,180,0,0,0.3613189000006969,['y'],1.0263629000000947,1.6600000000000001,1019.3311694000004,,,,,549,19,Woman,Right,
,,,,,,,,,,,,,,,,,549,19,Woman,Right,1,19,0.4,2,180,0,0,0.4563132000002952,['y'],1.6431114000006346,1.302,1023.8973512000002,,,,,549,19,Woman,Right,
,,,,,,,,,,,,,,,,,549,19,Woman,Right,1,17,0.4,2,0,180,180,0.4218387000000803,['y'],1.130750100000114,1.286,1027.8307802,,,,,549,19,Woman,Right,
,,,,,,,,,,,,,,,,,549,19,Woman,Right,1,35,0.4,2,180,0,0,0.7994128999998793,['y'],0.6021435000002384,1.228,1031.5137173000003,,,,,549,19,Woman,Right,
,,,,,,,,,,,,,,,,,549,19,Woman,Right,1,31,0.4,2,180,0,0,0.5900264000001698,['n'],1.2340782999999647,1.4,1035.6640264000007,,,,,549,19,Woman,Right,
,,,,,,,,,,,,,,,,,549,19,Woman,Right,1,77,0.15,2,0,180,180,0.3437834999995175,['n'],1.2823323000002347,1.324,1039.9308648000006,,,,,549,19,Woman,Right,
,,,,,,,,,,,,,,,,,549,19,Woman,Right,1,9,0.4,2,0,180,180,0.7773580000002767,['n'],1.0104105999998865,1.3359999999999999,1044.0810177000003,,,,,549,19,Woman,Right,
,,,,,,,,,,,,,,,,,549,19,Woman,Right,1,24,0.4,1,0,-,0,0.28353510000033566,['y'],1.1143068000001222,1.292,1054.8310596000001,,,,,549,19,Woman,Right,
,,,,,,,,,,,,,,,,,549,19,Woman,Right,1,43,0.4,2,180,0,0,0.6452460000000428,['y'],2.0024554000001444,1.65,1060.2807896000004,,,,,549,19,Woman,Right,
,,,,,,,,,,,,,,,,,549,19,Woman,Right,1,6,1,1,180,-,180,0.7659086000003299,['n'],0.8030102000002444,1.6680000000000001,1064.5807820999999,,,,,549,19,Woman,Right,
,,,,,,,,,,,,,,,,,549,19,Woman,Right,1,5,1,2,0,180,180,1.5991429000005155,['y'],1.8050296999999773,1.776,1070.4804545000006,,,,,549,19,Woman,Right,
,,,,,,,,,,,,,,,,,549,19,Woman,Right,1,67,0.15,2,180,0,0,0.9425868999996965,['y'],0.20219550000001618,1.0,1074.2466167000002,,,,,549,19,Woman,Right,
,,,,,,,,,,,,,,,,,549,19,Woman,Right,1,25,0.4,2,0,180,180,0.49540999999953783,['n'],1.2347854999998162,1.4060000000000001,1078.5144760000003,,,,,549,19,Woman,Right,
,,,,,,,,,,,,,,,,,549,19,Woman,Right,1,2,1,1,180,-,180,0.8419714000001477,['n'],0.5790958999996292,1.592,1082.3808896,,,,,549,19,Woman,Right,
,,,,,,,,,,,,,,,,,549,19,Woman,Right,1,15,0.4,2,180,0,0,0.7460028999994393,['n'],0.579171899999892,1.302,1085.9134997,,,,,549,19,Woman,Right,
,,,,,,,,,,,,,,,,,549,19,Woman,Right,1,65,0.15,2,0,180,0,0.4845487000002322,['n'],4.810205000000678,1.324,1094.1635336,,,,,549,19,Woman,Right,
,,,,,,,,,,,,,,,,,549,19,Woman,Right,1,49,0.15,2,0,180,0,1.0089950999999928,['y'],0.4026139999996303,1.366,1098.0130503,,,,,549,19,Woman,Right,
,,,,,,,,,,,,,,,,,549,19,Woman,Right,1,54,0.15,1,180,-,0,1.1220177000004696,['n'],0.8112009000005855,1.204,1102.3972475,,,,,549,19,Woman,Right,
,,,,,,,,,,,,,,,,,549,19,Woman,Right,1,70,0.15,1,180,-,180,9.028172199999972,['n'],0.5944320999997217,1.324,1114.4296278000002,,,,,549,19,Woman,Right,
,,,,,,,,,,,,,,,,,549,19,Woman,Right,1,42,0.4,1,180,-,180,1.4355977000004714,['n'],0.547161700000288,1.22,1118.9306593000001,,,,,549,19,Woman,Right,
,,,,,,,,,,,,,,,,,549,19,Woman,Right,2,23,0.4,2,180,0,0,0.6073936999991929,['y'],0.7703042000002824,1.266,1142.6461226000001,78.75,60.0,65.0,,549,19,Woman,Right,
,,,,,,,,,,,,,,,,,549,19,Woman,Right,2,34,0.4,1,180,-,0,0.7603339000006599,['y'],0.4824549000004481,1.192,1146.5971550000004,,,,,549,19,Woman,Right,
,,,,,,,,,,,,,,,,,549,19,Woman,Right,2,13,0.4,2,0,180,180,0.6617311999998492,['n'],1.506791599999815,1.696,1151.3139027000007,,,,,549,19,Woman,Right,
,,,,,,,,,,,,,,,,,549,19,Woman,Right,2,7,1,2,180,0,0,2.525679399999717,['y'],0.8831791999991765,1.756,1157.1970706000002,,,,,549,19,Woman,Right,
,,,,,,,,,,,,,,,,,549,19,Woman,Right,2,63,0.15,2,180,0,180,3.5598376000007192,['n'],0.25892950000070414,1.3559999999999999,1163.5290764000001,,,,,549,19,Woman,Right,
,,,,,,,,,,,,,,,,,549,19,Woman,Right,2,44,0.15,1,0,-,0,1.3906020000003991,['n'],0.4983507000006284,1.688,1167.7131426000005,,,,,549,19,Woman,Right,
,,,,,,,,,,,,,,,,,549,19,Woman,Right,2,39,0.4,2,180,0,0,3.022553400000106,['y'],0.251009100000374,1.72,1173.2798424000002,,,,,549,19,Woman,Right,
,,,,,,,,,,,,,,,,,549,19,Woman,Right,2,19,0.4,2,180,0,180,2.543302600000061,['n'],0.2511253000002398,1.3319999999999999,1178.3804288000001,,,,,549,19,Woman,Right,
,,,,,,,,,,,,,,,,,549,19,Woman,Right,2,51,0.15,2,180,0,0,2.4353235999997196,['n'],0.28240180000011605,1.3479999999999999,1183.4631871000001,,,,,549,19,Woman,Right,
,,,,,,,,,,,,,,,,,549,19,Woman,Right,2,24,0.4,1,0,-,0,1.6797344999995403,['n'],0.2266178999998374,1.264,1187.8303988000007,,,,,549,19,Woman,Right,
,,,,,,,,,,,,,,,,,549,19,Woman,Right,2,40,0.4,1,0,-,0,0.8103338999999323,['n'],0.28251559999989695,1.214,1191.3799477000002,,,,,549,19,Woman,Right,
,,,,,,,,,,,,,,,,,549,19,Woman,Right,2,21,0.4,2,0,180,180,2.2805428000001484,['y'],0.2984788000003391,1.712,1196.2798612000006,,,,,549,19,Woman,Right,
,,,,,,,,,,,,,,,,,549,19,Woman,Right,2,45,0.15,2,0,180,0,1.0324262999993152,['n'],0.28932829999939713,1.294,1199.8962990999999,,,,,549,19,Woman,Right,
,,,,,,,,,,,,,,,,,549,19,Woman,Right,2,52,0.15,1,0,-,0,1.2203135999998267,['n'],0.2906070000008185,1.646,1204.0970118000005,,,,,549,19,Woman,Right,
,,,,,,,,,,,,,,,,,549,19,Woman,Right,2,55,0.15,2,180,0,0,1.4992764999997235,['n'],0.2509509000001344,1.236,1208.4465909,,,,,549,19,Woman,Right,
,,,,,,,,,,,,,,,,,549,19,Woman,Right,2,25,0.4,2,0,180,180,2.95583440000064,['y'],0.26686140000037994,1.26,1213.9968822,,,,,549,19,Woman,Right,
,,,,,,,,,,,,,,,,,549,19,Woman,Right,2,77,0.15,2,0,180,180,0.38073789999998553,['n'],0.6266379999997298,1.2,1217.4620777999999,,,,,549,19,Woman,Right,
,,,,,,,,,,,,,,,,,549,19,Woman,Right,2,58,0.15,1,180,-,180,1.1784701000005953,['y'],3.730701399999816,1.3679999999999999,1224.5462301000007,,,,,549,19,Woman,Right,
,,,,,,,,,,,,,,,,,549,19,Woman,Right,2,32,0.4,1,0,-,0,2.140409399999953,['n'],0.2505310999995345,1.238,1229.2298025,,,,,549,19,Woman,Right,
,,,,,,,,,,,,,,,,,549,19,Woman,Right,2,69,0.15,2,0,180,0,0.515613200000189,['y'],0.39434280000023136,1.248,1232.2794930999999,,,,,549,19,Woman,Right,
,,,,,,,,,,,,,,,,,549,19,Woman,Right,2,59,0.15,2,180,0,0,0.886580800000047,['n'],1.290761599999314,1.302,1236.8635574,,,,,549,19,Woman,Right,
,,,,,,,,,,,,,,,,,549,19,Woman,Right,2,14,0.4,1,180,-,180,0.9979527000004964,['n'],1.3151405000007799,1.302,1241.6307176999999,,,,,549,19,Woman,Right,
,,,,,,,,,,,,,,,,,549,19,Woman,Right,2,50,0.15,1,180,-,180,1.9760560000004261,['n'],0.803208999999697,1.302,1246.6134584000001,,,,,549,19,Woman,Right,
,,,,,,,,,,,,,,,,,549,19,Woman,Right,2,54,0.15,1,180,-,180,1.2490905000004204,['n'],0.738398700000289,1.302,1250.6796577000005,,,,,549,19,Woman,Right,
,,,,,,,,,,,,,,,,,549,19,Woman,Right,2,53,0.15,2,0,180,180,2.586788699999488,['y'],0.3713176999999632,1.576,1255.9800417000006,,,,,549,19,Woman,Right,
,,,,,,,,,,,,,,,,,549,19,Woman,Right,2,3,1,2,180,0,0,1.9767651000001933,['y'],0.21875420000014856,1.836,1260.4789519000005,,,,,549,19,Woman,Right,
,,,,,,,,,,,,,,,,,549,19,Woman,Right,2,15,0.4,2,180,0,0,1.2568295999999464,['y'],0.2030891000003976,1.6680000000000001,1264.2460909000001,,,,,549,19,Woman,Right,
,,,,,,,,,,,,,,,,,549,19,Woman,Right,2,49,0.15,2,0,180,180,1.2157011999997849,['y'],0.6744243000002825,1.244,1268.5968596000002,,,,,549,19,Woman,Right,
,,,,,,,,,,,,,,,,,549,19,Woman,Right,2,43,0.4,2,180,0,0,1.350220199999967,['y'],0.49072890000024927,1.678,1272.7459552,,,,,549,19,Woman,Right,
,,,,,,,,,,,,,,,,,549,19,Woman,Right,2,71,0.15,2,180,0,0,1.1409123000003092,['n'],0.21933290000015404,1.308,1276.3794050000006,,,,,549,19,Woman,Right,
,,,,,,,,,,,,,,,,,549,19,Woman,Right,2,68,0.15,1,0,-,0,0.564362500000243,['n'],1.2906673000006776,1.224,1280.5293412,,,,,549,19,Woman,Right,
,,,,,,,,,,,,,,,,,549,19,Woman,Right,2,75,0.15,2,180,0,0,0.7515483000006498,['n'],2.0667111999991903,1.314,1285.8458900000005,,,,,549,19,Woman,Right,
,,,,,,,,,,,,,,,,,549,19,Woman,Right,2,60,0.15,1,0,-,0,0.6897594000001845,['y'],0.4826338000002579,1.254,1289.4629161000003,,,,,549,19,Woman,Right,
,,,,,,,,,,,,,,,,,549,19,Woman,Right,2,1,1,2,0,180,180,1.0650412999993932,['y'],1.4987644000002547,1.714,1294.9290357,,,,,549,19,Woman,Right,
,,,,,,,,,,,,,,,,,549,19,Woman,Right,2,4,1,1,0,-,0,0.4231512999995175,['n'],0.6272048000000723,1.714,1298.0792064000007,,,,,549,19,Woman,Right,
,,,,,,,,,,,,,,,,,549,19,Woman,Right,2,37,0.4,2,0,180,180,3.4458117000003767,['y'],0.8433249999998225,1.168,1304.6958590000004,,,,,549,19,Woman,Right,
,,,,,,,,,,,,,,,,,549,19,Woman,Right,2,56,0.15,1,0,-,180,1.5509406999999555,['y'],1.9789252000000488,1.01,1311.3460197000004,,,,,549,19,Woman,Right,
,,,,,,,,,,,,,,,,,549,19,Woman,Right,2,26,0.4,1,180,-,180,0.3862387999997736,['y'],0.874851900000067,1.184,1320.8296093,,,,,549,19,Woman,Right,
,,,,,,,,,,,,,,,,,549,19,Woman,Right,2,11,0.4,2,180,0,0,0.650373600000421,['y'],1.0430250999997952,1.74,1324.8450769,,,,,549,19,Woman,Right,
,,,,,,,,,,,,,,,,,549,19,Woman,Right,2,48,0.15,1,0,-,180,0.39451479999934236,['n'],0.3386125999995784,1.288,1327.6962457,,,,,549,19,Woman,Right,
,,,,,,,,,,,,,,,,,549,19,Woman,Right,2,0,1,1,0,-,0,0.6140862000002016,['n'],0.3065722999999707,1.792,1331.1293311999998,,,,,549,19,Woman,Right,
,,,,,,,,,,,,,,,,,549,19,Woman,Right,2,35,0.4,2,180,0,0,0.765260500000295,['y'],1.4034080999999787,1.818,1335.5125820000003,,,,,549,19,Woman,Right,
,,,,,,,,,,,,,,,,,549,19,Woman,Right,2,30,0.4,1,180,-,0,1.2406027999995786,['y'],0.2513998000003994,1.3399999999999999,1339.1961526000005,,,,,549,19,Woman,Right,
,,,,,,,,,,,,,,,,,549,19,Woman,Right,2,17,0.4,2,0,180,180,0.9152610999999524,['y'],0.3071045000006052,1.756,1342.8295710000002,,,,,549,19,Woman,Right,
,,,,,,,,,,,,,,,,,549,19,Woman,Right,2,47,0.15,2,180,0,0,0.32092410000041127,['n'],0.6351440000007642,1.304,1346.7617787,,,,,549,19,Woman,Right,
,,,,,,,,,,,,,,,,,549,19,Woman,Right,2,72,0.15,1,0,-,0,1.4301972000002934,['n'],0.2433049999999639,1.278,1350.5291618,,,,,549,19,Woman,Right,
,,,,,,,,,,,,,,,,,549,19,Woman,Right,2,33,0.4,2,0,180,180,0.9256994000006671,['y'],0.24297260000003007,1.642,1353.9794105,,,,,549,19,Woman,Right,
,,,,,,,,,,,,,,,,,549,19,Woman,Right,2,74,0.15,1,180,-,0,0.3316401999991285,['n'],0.6592467000000397,1.672,1357.3130786000002,,,,,549,19,Woman,Right,
,,,,,,,,,,,,,,,,,549,19,Woman,Right,2,41,0.4,2,0,180,180,1.222637300000315,['y'],0.3556472999998732,1.254,1361.1794101000005,,,,,549,19,Woman,Right,
,,,,,,,,,,,,,,,,,549,19,Woman,Right,2,18,0.4,1,180,-,180,2.293512400000509,['n'],4.107291000000259,1.252,1369.8126429000004,,,,,549,19,Woman,Right,
,,,,,,,,,,,,,,,,,549,19,Woman,Right,2,29,0.4,2,0,180,180,0.8088292000002184,['y'],0.8907812999996167,1.63,1373.861978,,,,,549,19,Woman,Right,
,,,,,,,,,,,,,,,,,549,19,Woman,Right,2,78,0.15,1,180,-,180,1.0575454999998328,['n'],1.187505500000043,1.5779999999999998,1379.5459900000005,,,,,549,19,Woman,Right,
,,,,,,,,,,,,,,,,,549,19,Woman,Right,2,10,0.4,1,180,-,180,0.2794992999997703,['y'],0.539389200000187,1.584,1382.4294299000003,,,,,549,19,Woman,Right,
,,,,,,,,,,,,,,,,,549,19,Woman,Right,2,76,0.15,1,0,-,0,0.41026309999961086,['y'],0.33150970000042435,1.25,1385.5791186000006,,,,,549,19,Woman,Right,
,,,,,,,,,,,,,,,,,549,19,Woman,Right,2,16,0.4,1,0,-,0,0.26999419999992824,['n'],2.3311580999998114,1.702,1390.379323,,,,,549,19,Woman,Right,
,,,,,,,,,,,,,,,,,549,19,Woman,Right,2,57,0.15,2,0,180,180,0.6535181999997803,['n'],1.3793776999991678,1.6,1394.6127063000004,,,,,549,19,Woman,Right,
,,,,,,,,,,,,,,,,,549,19,Woman,Right,2,12,0.4,1,0,-,0,0.3167338999992353,['y'],2.0356651000001875,1.608,1399.0950499,,,,,549,19,Woman,Right,
,,,,,,,,,,,,,,,,,549,19,Woman,Right,2,64,0.15,1,0,-,0,1.1904961000000185,['n'],0.47544050000033167,1.246,1403.0959203000002,,,,,549,19,Woman,Right,
,,,,,,,,,,,,,,,,,549,19,Woman,Right,2,66,0.15,1,180,-,0,0.9352403000002596,['n'],0.8349779999998646,1.6640000000000001,1407.1288457,,,,,549,19,Woman,Right,
,,,,,,,,,,,,,,,,,549,19,Woman,Right,2,2,1,1,180,-,180,0.4690762000000177,['n'],1.2274147999996785,1.9,1411.7632592999998,,,,,549,19,Woman,Right,
,,,,,,,,,,,,,,,,,549,19,Woman,Right,2,70,0.15,1,180,-,180,1.2370240999998714,['n'],0.5956966000003376,1.326,1416.0124719000005,,,,,549,19,Woman,Right,
,,,,,,,,,,,,,,,,,549,19,Woman,Right,2,8,0.4,1,0,-,0,0.35625180000079126,['n'],0.5950223999998343,1.79,1419.2786844000002,,,,,549,19,Woman,Right,
,,,,,,,,,,,,,,,,,549,19,Woman,Right,2,46,0.15,1,180,-,180,0.40905909999946743,['y'],1.1555632999998124,1.566,1423.5453134999998,,,,,549,19,Woman,Right,
,,,,,,,,,,,,,,,,,549,19,Woman,Right,2,31,0.4,2,180,0,0,2.7156623999999283,['y'],0.30303229999935866,1.684,1428.9458602000004,,,,,549,19,Woman,Right,
,,,,,,,,,,,,,,,,,549,19,Woman,Right,2,67,0.15,2,180,0,180,0.33706200000051467,['n'],0.8755673999994542,1.686,1432.1624681000003,,,,,549,19,Woman,Right,
,,,,,,,,,,,,,,,,,549,19,Woman,Right,2,73,0.15,2,0,180,0,0.7404773999996905,['n'],0.7154829999999492,1.28,1436.5619820000002,,,,,549,19,Woman,Right,
,,,,,,,,,,,,,,,,,549,19,Woman,Right,2,20,0.4,1,0,-,0,0.9161579000001439,['n'],0.4051599999993414,1.186,1439.9623165000003,,,,,549,19,Woman,Right,
,,,,,,,,,,,,,,,,,549,19,Woman,Right,2,27,0.4,2,180,0,0,1.3400019000000611,['y'],0.34719479999967007,1.72,1443.7616914,,,,,549,19,Woman,Right,
,,,,,,,,,,,,,,,,,549,19,Woman,Right,2,28,0.4,1,0,-,0,3.2118461999998544,['n'],0.7395821000000069,1.23,1450.0948763000006,,,,,549,19,Woman,Right,
,,,,,,,,,,,,,,,,,549,19,Woman,Right,2,62,0.15,1,180,-,0,0.22637809999923775,['y'],1.1389984999996159,1.234,1453.5453975,,,,,549,19,Woman,Right,
,,,,,,,,,,,,,,,,,549,19,Woman,Right,2,36,0.4,1,0,-,0,1.296557099999518,['n'],0.538974799999778,1.608,1457.7958561000005,,,,,549,19,Woman,Right,
,,,,,,,,,,,,,,,,,549,19,Woman,Right,2,61,0.15,2,0,180,180,2.3880081999996037,['y'],0.39553280000018276,1.5939999999999999,1462.8622194,,,,,549,19,Woman,Right,
,,,,,,,,,,,,,,,,,549,19,Woman,Right,2,22,0.4,1,180,-,0,0.47481640000023617,['n'],1.339549199999965,1.338,1467.0290501999998,,,,,549,19,Woman,Right,
,,,,,,,,,,,,,,,,,549,19,Woman,Right,2,6,1,1,180,-,180,0.34700819999943633,['n'],0.6274668000005477,1.934,1471.1782621000002,,,,,549,19,Woman,Right,
,,,,,,,,,,,,,,,,,549,19,Woman,Right,2,38,0.4,1,180,-,180,0.9823368999996092,['n'],0.28339380000034,1.706,1474.4622597000007,,,,,549,19,Woman,Right,
,,,,,,,,,,,,,,,,,549,19,Woman,Right,2,5,1,2,0,180,180,2.0687268000001495,['y'],0.17877930000031483,1.722,1479.5284890000003,,,,,549,19,Woman,Right,
,,,,,,,,,,,,,,,,,549,19,Woman,Right,2,79,0.15,2,180,0,180,2.1129111000000194,['n'],0.2835550999998304,1.702,1484.6303337,,,,,549,19,Woman,Right,
,,,,,,,,,,,,,,,,,549,19,Woman,Right,2,42,0.4,1,180,-,180,0.340340799999467,['n'],0.8275780000003579,1.702,1487.9955060000002,,,,,549,19,Woman,Right,
,,,,,,,,,,,,,,,,,549,19,Woman,Right,2,65,0.15,2,0,180,180,0.260064400000374,['n'],0.9797770000004675,1.702,1491.2620299999999,,,,,549,19,Woman,Right,
,,,,,,,,,,,,,,,,,549,19,Woman,Right,2,9,0.4,2,0,180,180,2.721023599999171,['y'],0.8196688999996695,1.264,1497.3790405,,,,,549,19,Woman,Right,
,,,,,,,,,,,,,,,,,549,19,Woman,Right,3,34,0.4,1,180,-,180,0.8832135000002381,['y'],2.0026686000001064,1.1099999999999999,1525.1288017000006,81.25,72.5,60.0,,549,19,Woman,Right,
,,,,,,,,,,,,,,,,,549,19,Woman,Right,3,68,0.15,1,0,-,0,0.6661183000005622,['n'],4.531117900000027,1.2,1542.61139,,,,,549,19,Woman,Right,
,,,,,,,,,,,,,,,,,549,19,Woman,Right,3,66,0.15,1,180,-,0,0.4872994999996081,['y'],0.7072707999996055,1.264,1546.1448188000004,,,,,549,19,Woman,Right,
,,,,,,,,,,,,,,,,,549,19,Woman,Right,3,2,1,1,180,-,180,0.43989480000072945,['n'],0.3308832999991864,1.318,1549.9282674000005,,,,,549,19,Woman,Right,
,,,,,,,,,,,,,,,,,549,19,Woman,Right,3,12,0.4,1,0,-,0,1.0391832999994222,['n'],0.41090000000076543,1.75,1553.5446928000001,,,,,549,19,Woman,Right,
,,,,,,,,,,,,,,,,,549,19,Woman,Right,3,24,0.4,1,0,-,0,0.3836985999996614,['y'],0.34775679999984277,1.258,1556.6452792999999,,,,,549,19,Woman,Right,
,,,,,,,,,,,,,,,,,549,19,Woman,Right,3,71,0.15,2,180,0,0,1.7497066000005361,['y'],0.3375471999997899,1.5859999999999999,1560.8943012,,,,,549,19,Woman,Right,
,,,,,,,,,,,,,,,,,549,19,Woman,Right,3,20,0.4,1,0,-,0,1.5541685999996844,['y'],0.2514296999997896,1.3359999999999999,1565.4281255000005,,,,,549,19,Woman,Right,
,,,,,,,,,,,,,,,,,549,19,Woman,Right,3,67,0.15,2,180,0,180,0.7925458999998227,['y'],0.2830745000001116,1.008,1568.6944694000003,,,,,549,19,Woman,Right,
,,,,,,,,,,,,,,,,,549,19,Woman,Right,3,0,1,1,0,-,0,0.47120450000056735,['n'],0.49953570000070613,1.756,1571.9455850000004,,,,,549,19,Woman,Right,
,,,,,,,,,,,,,,,,,549,19,Woman,Right,3,16,0.4,1,0,-,180,1.7659616999999344,['y'],0.9389640999997937,1.692,1576.8616166000002,,,,,549,19,Woman,Right,
,,,,,,,,,,,,,,,,,549,19,Woman,Right,3,78,0.15,1,180,-,180,0.3974514999999883,['n'],1.4517323999998553,1.1440000000000001,1580.9781543,,,,,549,19,Woman,Right,
,,,,,,,,,,,,,,,,,549,19,Woman,Right,3,7,1,2,180,0,0,1.5116261999992275,['y'],0.18750180000097316,1.666,1584.978551700001,,,,,549,19,Woman,Right,
,,,,,,,,,,,,,,,,,549,19,Woman,Right,3,49,0.15,2,0,180,180,2.4294083999993745,['y'],0.554929699999775,1.706,1590.5781302999994,,,,,549,19,Woman,Right,
,,,,,,,,,,,,,,,,,549,19,Woman,Right,3,1,1,2,0,180,180,1.6218629999984842,['y'],1.0677140999996482,1.706,1595.4278521000006,,,,,549,19,Woman,Right,
,,,,,,,,,,,,,,,,,549,19,Woman,Right,3,74,0.15,1,180,-,0,1.857937500000844,['y'],0.283663099999103,1.706,1600.3274212000006,,,,,549,19,Woman,Right,
,,,,,,,,,,,,,,,,,549,19,Woman,Right,3,4,1,1,0,-,0,0.5252471999992849,['n'],0.8199358000001666,1.706,1604.111171200001,,,,,549,19,Woman,Right,
,,,,,,,,,,,,,,,,,549,19,Woman,Right,3,38,0.4,1,180,-,180,0.9493921000012051,['n'],0.7477154999996856,1.706,1604.111171200001,,,,,549,19,Woman,Right,
,,,,,,,,,,,,,,,,,549,19,Woman,Right,3,30,0.4,1,180,-,180,0.2650350999992952,['y'],0.7393496999993658,1.264,1611.5946431000002,,,,,549,19,Woman,Right,
,,,,,,,,,,,,,,,,,549,19,Woman,Right,3,27,0.4,2,180,0,0,1.1993352999998024,['y'],0.37123219999921275,1.754,1615.1951252000008,,,,,549,19,Woman,Right,
,,,,,,,,,,,,,,,,,549,19,Woman,Right,3,63,0.15,2,180,0,0,2.2472670000006474,['y'],0.2833074000009219,1.708,1620.2114097000003,,,,,549,19,Woman,Right,
,,,,,,,,,,,,,,,,,549,19,Woman,Right,3,5,1,2,0,180,180,1.4546837999987474,['y'],0.2594150000004447,1.608,1624.0283635000005,,,,,549,19,Woman,Right,
,,,,,,,,,,,,,,,,,549,19,Woman,Right,3,26,0.4,1,180,-,180,0.5681757000002108,['y'],0.7557300999997096,1.608,1627.5944002000006,,,,,549,19,Woman,Right,
,,,,,,,,,,,,,,,,,549,19,Woman,Right,3,3,1,2,180,0,0,1.0827893000005133,['y'],0.2918981000002532,1.812,1631.1781863999995,,,,,549,19,Woman,Right,
,,,,,,,,,,,,,,,,,549,19,Woman,Right,3,76,0.15,1,0,-,180,2.283616400000028,['y'],0.24301419999937934,1.18,1635.9783302999995,,,,,549,19,Woman,Right,
,,,,,,,,,,,,,,,,,549,19,Woman,Right,3,17,0.4,2,0,180,180,2.826957200000834,['y'],0.27549850000104925,1.3479999999999999,1641.8450113999997,,,,,549,19,Woman,Right,
,,,,,,,,,,,,,,,,,549,19,Woman,Right,3,40,0.4,1,0,-,0,0.8990943000007974,['n'],0.3582265000004554,1.322,1645.1948734000007,,,,,549,19,Woman,Right,
,,,,,,,,,,,,,,,,,549,19,Woman,Right,3,28,0.4,1,0,-,0,0.44713140000021667,['y'],0.6039725999999064,1.322,1648.4285014999996,,,,,549,19,Woman,Right,
,,,,,,,,,,,,,,,,,549,19,Woman,Right,3,75,0.15,2,180,0,0,0.3389537000002747,['n'],0.7318964999994932,1.316,1651.6446619999997,,,,,549,19,Woman,Right,
,,,,,,,,,,,,,,,,,549,19,Woman,Right,3,62,0.15,1,180,-,0,0.3014657999992778,['y'],0.7080011000016384,1.26,1654.7449385999998,,,,,549,19,Woman,Right,
,,,,,,,,,,,,,,,,,549,19,Woman,Right,3,57,0.15,2,0,180,0,0.33543900000040594,['n'],0.6039584999998624,1.584,1658.2776098999993,,,,,549,19,Woman,Right,
,,,,,,,,,,,,,,,,,549,19,Woman,Right,3,32,0.4,1,0,-,0,0.186405399999785,['n'],0.5720734999995329,1.296,1661.2612813000005,,,,,549,19,Woman,Right,
,,,,,,,,,,,,,,,,,549,19,Woman,Right,3,56,0.15,1,0,-,180,0.28215409999938856,['y'],0.7718877999996039,1.6280000000000001,1664.6277603999997,,,,,549,19,Woman,Right,
,,,,,,,,,,,,,,,,,549,19,Woman,Right,3,36,0.4,1,0,-,0,1.115342099999907,['y'],0.27630880000106117,1.358,1668.1608970000007,,,,,549,19,Woman,Right,
,,,,,,,,,,,,,,,,,549,19,Woman,Right,3,13,0.4,2,0,180,180,2.4201076999997895,['y'],0.2912133999998332,1.638,1673.3271563000008,,,,,549,19,Woman,Right,
,,,,,,,,,,,,,,,,,549,19,Woman,Right,3,39,0.4,2,180,0,180,0.2265131999993173,['y'],0.7637577999994392,1.638,1676.6612572000004,,,,,549,19,Woman,Right,
,,,,,,,,,,,,,,,,,549,19,Woman,Right,3,70,0.15,1,180,-,0,0.2202237999990757,['y'],0.41213169999900856,1.288,1679.611188400001,,,,,549,19,Woman,Right,
,,,,,,,,,,,,,,,,,549,19,Woman,Right,3,48,0.15,1,0,-,0,0.09351430000060645,['n'],0.9714533000005758,1.22,1683.1114635000004,,,,,549,19,Woman,Right,
,,,,,,,,,,,,,,,,,549,19,Woman,Right,3,21,0.4,2,0,180,180,1.7855988999999681,['y'],0.6912589000003209,1.74,1687.7949442,,,,,549,19,Woman,Right,
,,,,,,,,,,,,,,,,,549,19,Woman,Right,3,77,0.15,2,0,180,180,1.3769884000012098,['y'],0.3481320999999298,1.744,1691.5114755000004,,,,,549,19,Woman,Right,
,,,,,,,,,,,,,,,,,549,19,Woman,Right,3,15,0.4,2,180,0,0,1.0096843999999692,['y'],0.8119237999999314,1.744,1695.3936944999996,,,,,549,19,Woman,Right,
,,,,,,,,,,,,,,,,,549,19,Woman,Right,3,46,0.15,1,180,-,180,0.23573440000109258,['n'],1.1880707000000257,1.744,1698.9103108000008,,,,,549,19,Woman,Right,
,,,,,,,,,,,,,,,,,549,19,Woman,Right,3,79,0.15,2,180,0,0,0.46844420000161335,['y'],0.37198739999985264,1.744,1701.9113872000007,,,,,549,19,Woman,Right,
,,,,,,,,,,,,,,,,,549,19,Woman,Right,3,55,0.15,2,180,0,0,1.6685766999999032,['n'],0.46797739999965415,1.744,1706.5112908,,,,,549,19,Woman,Right,
,,,,,,,,,,,,,,,,,549,19,Woman,Right,3,31,0.4,2,180,0,180,3.0637327000004007,['y'],0.4192258999992191,1.256,1712.6613941999994,,,,,549,19,Woman,Right,
,,,,,,,,,,,,,,,,,549,19,Woman,Right,3,41,0.4,2,0,180,180,1.8841709999996965,['y'],0.6276742999998532,1.564,1717.6112442000003,,,,,549,19,Woman,Right,
,,,,,,,,,,,,,,,,,549,19,Woman,Right,3,51,0.15,2,180,0,0,0.5500464000015199,['n'],3.675867299998572,1.566,1724.0278377999994,,,,,549,19,Woman,Right,
,,,,,,,,,,,,,,,,,549,19,Woman,Right,3,33,0.4,2,0,180,180,1.84938080000029,['y'],0.3598366000005626,1.5779999999999998,1728.3941335000009,,,,,549,19,Woman,Right,
,,,,,,,,,,,,,,,,,549,19,Woman,Right,3,54,0.15,1,180,-,0,0.5129890000007435,['y'],0.6443596000008256,1.5779999999999998,1731.6938760000003,,,,,549,19,Woman,Right,
,,,,,,,,,,,,,,,,,549,19,Woman,Right,3,42,0.4,1,180,-,180,0.6760138999998162,['y'],1.1401391999988846,1.5819999999999999,1735.7939632999996,,,,,549,19,Woman,Right,
,,,,,,,,,,,,,,,,,549,19,Woman,Right,3,43,0.4,2,180,0,0,1.9081463999991684,['y'],0.3078015000010055,1.5819999999999999,1735.7939632999996,,,,,549,19,Woman,Right,
,,,,,,,,,,,,,,,,,549,19,Woman,Right,3,9,0.4,2,0,180,0,0.32882430000063323,['y'],0.4922527999988233,1.326,1743.3772693,,,,,549,19,Woman,Right,
,,,,,,,,,,,,,,,,,549,19,Woman,Right,3,64,0.15,1,0,-,0,0.19381780000003346,['y'],1.1394669000001159,1.682,1746.6775874000004,,,,,549,19,Woman,Right,
,,,,,,,,,,,,,,,,,549,19,Woman,Right,3,25,0.4,2,0,180,180,0.6893510999998398,['y'],0.5563315999988845,1.626,1750.0441502000003,,,,,549,19,Woman,Right,
,,,,,,,,,,,,,,,,,549,19,Woman,Right,3,47,0.15,2,180,0,0,0.5119486000003235,['y'],0.8201858000011271,1.194,1753.843909600001,,,,,549,19,Woman,Right,
,,,,,,,,,,,,,,,,,549,19,Woman,Right,3,29,0.4,2,0,180,180,0.42728639999950246,['y'],0.8435397000012017,1.1400000000000001,1757.2937911,,,,,549,19,Woman,Right,
,,,,,,,,,,,,,,,,,549,19,Woman,Right,3,73,0.15,2,0,180,0,0.8354747000012139,['n'],0.45948610000050394,1.248,1760.777293600001,,,,,549,19,Woman,Right,
,,,,,,,,,,,,,,,,,549,19,Woman,Right,3,14,0.4,1,180,-,180,0.7532799999989948,['y'],0.3561645999998291,1.228,1763.9934041000006,,,,,549,19,Woman,Right,
,,,,,,,,,,,,,,,,,549,19,Woman,Right,3,50,0.15,1,180,-,180,0.43803049999951327,['n'],1.2274574999992183,1.228,1763.9934041000006,,,,,549,19,Woman,Right,
,,,,,,,,,,,,,,,,,549,19,Woman,Right,3,58,0.15,1,180,-,0,0.9408989000003203,['y'],0.5720751999997447,1.172,1771.9280353000004,,,,,549,19,Woman,Right,
,,,,,,,,,,,,,,,,,549,19,Woman,Right,3,37,0.4,2,0,180,180,0.9323288000014145,['n'],1.7474815000005037,1.1059999999999999,1776.6611199000008,,,,,549,19,Woman,Right,
,,,,,,,,,,,,,,,,,549,19,Woman,Right,3,6,1,1,180,-,180,0.9247340000001714,['n'],1.0835475000003498,1.752,1780.8772935999996,,,,,549,19,Woman,Right,
,,,,,,,,,,,,,,,,,549,19,Woman,Right,3,72,0.15,1,0,-,180,0.37180500000067696,['n'],0.8198357000001124,1.19,1784.3932587999998,,,,,549,19,Woman,Right,
,,,,,,,,,,,,,,,,,549,19,Woman,Right,3,60,0.15,1,0,-,0,0.7355903000006947,['y'],1.3640567999991617,1.6280000000000001,1788.6610074999999,,,,,549,19,Woman,Right,
,,,,,,,,,,,,,,,,,549,19,Woman,Right,3,22,0.4,1,180,-,180,0.7958834000000934,['n'],1.6916946999990614,1.77,1793.2942322999997,,,,,549,19,Woman,Right,
,,,,,,,,,,,,,,,,,549,19,Woman,Right,3,65,0.15,2,0,180,180,0.5234026000016456,['n'],1.0761319000012008,1.658,1796.9936485999997,,,,,549,19,Woman,Right,
,,,,,,,,,,,,,,,,,549,19,Woman,Right,3,8,0.4,1,0,-,0,0.8942869000002247,['y'],0.42800050000005285,1.634,1800.5106141000006,,,,,549,19,Woman,Right,
,,,,,,,,,,,,,,,,,549,19,Woman,Right,3,35,0.4,2,180,0,180,0.33234819999961474,['n'],0.5874595000004774,1.186,1803.7103414000003,,,,,549,19,Woman,Right,
,,,,,,,,,,,,,,,,,549,19,Woman,Right,3,59,0.15,2,180,0,0,0.3922535000001517,['y'],0.42741559999922174,1.262,1806.8935800999998,,,,,549,19,Woman,Right,
,,,,,,,,,,,,,,,,,549,19,Woman,Right,3,18,0.4,1,180,-,180,0.39293109999925946,['n'],0.7394755000004807,1.1219999999999999,1810.2274132000011,,,,,549,19,Woman,Right,
,,,,,,,,,,,,,,,,,549,19,Woman,Right,3,11,0.4,2,180,0,0,0.6070461999988765,['n'],0.6833858999998483,1.282,1813.726473400001,,,,,549,19,Woman,Right,
,,,,,,,,,,,,,,,,,549,19,Woman,Right,3,69,0.15,2,0,180,0,10.929022500000428,['n'],0.28397860000040964,1.1,1827.4613696999995,,,,,549,19,Woman,Right,
,,,,,,,,,,,,,,,,,549,19,Woman,Right,3,52,0.15,1,0,-,0,0.6690548000005947,['n'],0.3954856000000291,1.318,1830.643086000001,,,,,549,19,Woman,Right,
,,,,,,,,,,,,,,,,,549,19,Woman,Right,3,53,0.15,2,0,180,0,0.6028083000001061,['n'],0.5396715000006225,1.28,1834.0608586999997,,,,,549,19,Woman,Right,
,,,,,,,,,,,,,,,,,549,19,Woman,Right,3,10,0.4,1,180,-,180,1.891097699999591,['n'],0.24321629999940342,1.568,1838.3436183000003,,,,,549,19,Woman,Right,
,,,,,,,,,,,,,,,,,549,19,Woman,Right,3,61,0.15,2,0,180,0,1.5601315999992948,['y'],0.29964380000092206,1.286,1842.543225100001,,,,,549,19,Woman,Right,
,,,,,,,,,,,,,,,,,549,19,Woman,Right,3,45,0.15,2,0,180,0,0.46604649999972025,['y'],0.4361853999998857,1.608,1845.4764153999995,,,,,549,19,Woman,Right,
,,,,,,,,,,,,,,,,,549,19,Woman,Right,3,19,0.4,2,180,0,0,1.516265399999611,['y'],0.4584513000008883,1.792,1849.4931871,,,,,549,19,Woman,Right,
,,,,,,,,,,,,,,,,,549,19,Woman,Right,3,23,0.4,2,180,0,180,0.5457655999998678,['y'],0.500073600000178,1.68,1852.7111039000001,,,,,549,19,Woman,Right,
,,,,,,,,,,,,,,,,,549,19,Woman,Right,3,44,0.15,1,0,-,180,0.42673759999888716,['n'],0.8277070999993157,1.232,1856.2774187999994,,,,,549,19,Woman,Right,
,,,,,,,,,,,,,,,,,549,19,Woman,Right,4,68,0.15,1,0,-,0,10.150160799999867,['n'],0.33190230000036536,1.176,1873.8266400000002,71.25,47.5,72.5,,549,19,Woman,Right,
,,,,,,,,,,,,,,,,,549,19,Woman,Right,4,36,0.4,1,0,-,0,0.8465357999994012,['n'],0.1795750000001135,1.2,1877.0102730000008,,,,,549,19,Woman,Right,
,,,,,,,,,,,,,,,,,549,19,Woman,Right,4,74,0.15,1,180,-,0,0.453357500000493,['n'],0.3077945000004547,1.256,1880.1272842999997,,,,,549,19,Woman,Right,
,,,,,,,,,,,,,,,,,549,19,Woman,Right,4,63,0.15,2,180,0,0,0.8346554999989166,['n'],0.2602967000002536,1.256,1883.8267999000009,,,,,549,19,Woman,Right,
,,,,,,,,,,,,,,,,,549,19,Woman,Right,4,30,0.4,1,180,-,0,0.2492395999997825,['n'],0.7563614999999118,1.256,1887.1933206000003,,,,,549,19,Woman,Right,
,,,,,,,,,,,,,,,,,549,19,Woman,Right,4,20,0.4,1,0,-,0,0.5420947000002343,['n'],1.7965637999986939,1.33,1892.2098058000001,,,,,549,19,Woman,Right,
,,,,,,,,,,,,,,,,,549,19,Woman,Right,4,38,0.4,1,180,-,0,3.317517499999667,['y'],0.28344619999916176,1.674,1898.0094727999995,,,,,549,19,Woman,Right,
,,,,,,,,,,,,,,,,,549,19,Woman,Right,4,34,0.4,1,180,-,180,0.4276629000014509,['y'],0.3403622000005271,1.4060000000000001,1900.9938231000006,,,,,549,19,Woman,Right,
,,,,,,,,,,,,,,,,,549,19,Woman,Right,4,66,0.15,1,180,-,0,0.432086500000878,['n'],0.40401419999943755,1.198,1904.0936613000003,,,,,549,19,Woman,Right,
,,,,,,,,,,,,,,,,,549,19,Woman,Right,4,19,0.4,2,180,0,0,0.833098200000677,['y'],0.2836996000005456,1.706,1907.3598911,,,,,549,19,Woman,Right,
,,,,,,,,,,,,,,,,,549,19,Woman,Right,4,50,0.15,1,180,-,0,0.41677469999922323,['y'],0.39639119999992545,1.076,1910.4275650000009,,,,,549,19,Woman,Right,
,,,,,,,,,,,,,,,,,549,19,Woman,Right,4,3,1,2,180,0,0,1.4698920999999245,['y'],0.6437924999991083,1.792,1914.8599423999995,,,,,549,19,Woman,Right,
,,,,,,,,,,,,,,,,,549,19,Woman,Right,4,32,0.4,1,0,-,0,1.9166655999997602,['y'],0.27579229999901145,1.72,1919.2770971,,,,,549,19,Woman,Right,
,,,,,,,,,,,,,,,,,549,19,Woman,Right,4,62,0.15,1,180,-,0,0.6491213000008429,['n'],0.27202179999949294,1.1019999999999999,1922.4602337000006,,,,,549,19,Woman,Right,
,,,,,,,,,,,,,,,,,549,19,Woman,Right,4,72,0.15,1,0,-,0,0.4872203000013542,['y'],0.3319786000010936,1.25,1925.9764415,,,,,549,19,Woman,Right,
,,,,,,,,,,,,,,,,,549,19,Woman,Right,4,49,0.15,2,0,180,0,3.4185298000011244,['n'],0.23568230000091717,1.25,1925.9764415,,,,,549,19,Woman,Right,
,,,,,,,,,,,,,,,,,549,19,Woman,Right,4,9,0.4,2,0,180,0,1.2623763999999937,['y'],0.2916535999993357,1.57,1935.5429789,,,,,549,19,Woman,Right,
,,,,,,,,,,,,,,,,,549,19,Woman,Right,4,10,0.4,1,180,-,0,2.41563110000061,['y'],0.3163447000006272,1.296,1940.8931115000005,,,,,549,19,Woman,Right,
,,,,,,,,,,,,,,,,,549,19,Woman,Right,4,37,0.4,2,0,180,180,2.2656130000013945,['y'],1.0109819999997853,1.318,1947.1425773,,,,,549,19,Woman,Right,
,,,,,,,,,,,,,,,,,549,19,Woman,Right,4,15,0.4,2,180,0,0,1.244799400001284,['y'],0.30771610000010696,1.262,1950.9935453000007,,,,,549,19,Woman,Right,
,,,,,,,,,,,,,,,,,549,19,Woman,Right,4,12,0.4,1,0,-,0,0.449933100000635,['y'],0.691637099998843,1.26,1954.2092691000007,,,,,549,19,Woman,Right,
,,,,,,,,,,,,,,,,,549,19,Woman,Right,4,0,1,1,0,-,0,0.5488794000011694,['n'],0.29205019999972137,1.642,1957.342516400001,,,,,549,19,Woman,Right,
,,,,,,,,,,,,,,,,,549,19,Woman,Right,4,4,1,1,0,-,0,0.195019400000092,['n'],1.132307400001082,1.642,1960.693534000001,,,,,549,19,Woman,Right,
,,,,,,,,,,,,,,,,,549,19,Woman,Right,4,53,0.15,2,0,180,0,0.8658178999994561,['y'],0.30816979999872274,1.304,1964.3431222999998,,,,,549,19,Woman,Right,
,,,,,,,,,,,,,,,,,549,19,Woman,Right,4,75,0.15,2,180,0,0,0.217713800000638,['n'],0.9322224999996251,1.304,1967.509759900001,,,,,549,19,Woman,Right,
,,,,,,,,,,,,,,,,,549,19,Woman,Right,4,25,0.4,2,0,180,0,0.6713896000001114,['y'],0.7400808000002144,1.5819999999999999,1971.1761763000004,,,,,549,19,Woman,Right,
,,,,,,,,,,,,,,,,,549,19,Woman,Right,4,43,0.4,2,180,0,180,0.2731000000003405,['n'],1.1725569999998697,1.25,1975.0099173000008,,,,,549,19,Woman,Right,
,,,,,,,,,,,,,,,,,549,19,Woman,Right,4,64,0.15,1,0,-,0,0.27310659999966447,['n'],1.6365351999993436,1.25,1980.2933096000006,,,,,549,19,Woman,Right,
,,,,,,,,,,,,,,,,,549,19,Woman,Right,4,61,0.15,2,0,180,0,0.4657140999988769,['n'],0.34171710000009625,1.5899999999999999,1983.2424247999998,,,,,549,19,Woman,Right,
,,,,,,,,,,,,,,,,,549,19,Woman,Right,4,55,0.15,2,180,0,0,0.5090990999997302,['n'],0.32475220000014815,1.244,1986.2594106000006,,,,,549,19,Woman,Right,
,,,,,,,,,,,,,,,,,549,19,Woman,Right,4,35,0.4,2,180,0,0,0.6211509000004298,['n'],0.26833690000057686,1.276,1989.7425238999995,,,,,549,19,Woman,Right,
,,,,,,,,,,,,,,,,,549,19,Woman,Right,4,47,0.15,2,180,0,180,0.7292854000006628,['n'],0.6683489000006375,1.276,1993.2100777000005,,,,,549,19,Woman,Right,
,,,,,,,,,,,,,,,,,549,19,Woman,Right,4,18,0.4,1,180,-,180,0.7427776999993512,['n'],0.2603215999988606,1.6360000000000001,1996.8762816000008,,,,,549,19,Woman,Right,
,,,,,,,,,,,,,,,,,549,19,Woman,Right,4,65,0.15,2,0,180,180,0.9017390000008163,['n'],2.6280942000012146,1.6560000000000001,2002.309928400001,,,,,549,19,Woman,Right,
,,,,,,,,,,,,,,,,,549,19,Woman,Right,4,27,0.4,2,180,0,180,0.6654023999999481,['y'],0.6603402000000642,1.322,2005.7759913,,,,,549,19,Woman,Right,
,,,,,,,,,,,,,,,,,549,19,Woman,Right,4,14,0.4,1,180,-,180,0.9636227999999392,['n'],0.1799537999995664,1.58,2009.6263449999997,,,,,549,19,Woman,Right,
,,,,,,,,,,,,,,,,,549,19,Woman,Right,4,40,0.4,1,0,-,0,1.1032359000000724,['n'],0.8599044000002323,1.802,2013.6761813000003,,,,,549,19,Woman,Right,
,,,,,,,,,,,,,,,,,549,19,Woman,Right,4,21,0.4,2,0,180,180,1.7319503999988228,['y'],0.22839639999983774,1.706,2018.0423464000005,,,,,549,19,Woman,Right,
,,,,,,,,,,,,,,,,,549,19,Woman,Right,4,60,0.15,1,0,-,180,0.8045725000010862,['n'],0.2044936999991478,1.166,2021.2763834999996,,,,,549,19,Woman,Right,
,,,,,,,,,,,,,,,,,549,19,Woman,Right,4,29,0.4,2,0,180,180,1.6942484999999579,['y'],0.24362120000114373,1.716,2025.2935468000005,,,,,549,19,Woman,Right,
,,,,,,,,,,,,,,,,,549,19,Woman,Right,4,44,0.15,1,0,-,180,1.182439099999101,['n'],0.27340619999995397,1.2,2028.8761184999994,,,,,549,19,Woman,Right,
,,,,,,,,,,,,,,,,,549,19,Woman,Right,4,45,0.15,2,0,180,180,0.9710812000012083,['y'],0.3961440000002767,1.6179999999999999,2032.9755646000003,,,,,549,19,Woman,Right,
,,,,,,,,,,,,,,,,,549,19,Woman,Right,4,8,0.4,1,0,-,0,2.00985799999944,['n'],0.24450219999926048,1.6,2038.608938100001,,,,,549,19,Woman,Right,
,,,,,,,,,,,,,,,,,549,19,Woman,Right,4,77,0.15,2,0,180,180,1.0049367000010534,['n'],0.7244439000005514,1.6,2042.5432886000008,,,,,549,19,Woman,Right,
,,,,,,,,,,,,,,,,,549,19,Woman,Right,4,1,1,2,0,180,180,2.0816810999986046,['y'],0.2686639000003197,1.31,2048.309415300001,,,,,549,19,Woman,Right,
,,,,,,,,,,,,,,,,,549,19,Woman,Right,4,26,0.4,1,180,-,180,0.7526455000006536,['n'],0.26817510000000766,1.264,2051.5262420999998,,,,,549,19,Woman,Right,
,,,,,,,,,,,,,,,,,549,19,Woman,Right,4,7,1,2,180,0,0,2.308152000001428,['y'],0.30860129999928176,1.62,2056.309213900001,,,,,549,19,Woman,Right,
,,,,,,,,,,,,,,,,,549,19,Woman,Right,4,71,0.15,2,180,0,180,1.639296800000011,['n'],0.1716667000000598,1.634,2060.4095288,,,,,549,19,Woman,Right,
,,,,,,,,,,,,,,,,,549,19,Woman,Right,4,11,0.4,2,180,0,0,1.3288710999986506,['y'],0.26875490000020363,1.634,2064.042035900001,,,,,549,19,Woman,Right,
,,,,,,,,,,,,,,,,,549,19,Woman,Right,4,22,0.4,1,180,-,180,0.7094907999999123,['n'],0.4045220000007248,1.262,2067.1919921,,,,,549,19,Woman,Right,
,,,,,,,,,,,,,,,,,549,19,Woman,Right,4,69,0.15,2,0,180,0,0.6563800000003539,['n'],1.1558439999989787,1.26,2070.9933477999994,,,,,549,19,Woman,Right,
,,,,,,,,,,,,,,,,,549,19,Woman,Right,4,79,0.15,2,180,0,180,0.6769494999989547,['n'],0.2364713999995729,1.042,2074.5927992999996,,,,,549,19,Woman,Right,
,,,,,,,,,,,,,,,,,549,19,Woman,Right,4,73,0.15,2,0,180,0,0.9183328999988589,['n'],1.1167023999987578,1.042,2083.6761632999996,,,,,549,19,Woman,Right,
,,,,,,,,,,,,,,,,,549,19,Woman,Right,4,58,0.15,1,180,-,0,0.5711046999986138,['n'],0.4285643000002892,1.3559999999999999,2087.1930554,,,,,549,19,Woman,Right,
,,,,,,,,,,,,,,,,,549,19,Woman,Right,4,28,0.4,1,0,-,0,4.999635000000126,['n'],0.26388760000008915,1.674,2094.7925645999994,,,,,549,19,Woman,Right,
,,,,,,,,,,,,,,,,,549,19,Woman,Right,4,2,1,1,180,-,180,0.6990773999987141,['n'],0.2525992999999289,1.346,2098.4761781999996,,,,,549,19,Woman,Right,
,,,,,,,,,,,,,,,,,549,19,Woman,Right,4,59,0.15,2,180,0,0,0.5957464000002801,['n'],0.48482440000043425,1.346,2101.7416120999997,,,,,549,19,Woman,Right,
,,,,,,,,,,,,,,,,,549,19,Woman,Right,4,13,0.4,2,0,180,180,2.2491281000002346,['n'],0.3559827999997651,1.756,2106.6259653999996,,,,,549,19,Woman,Right,
,,,,,,,,,,,,,,,,,549,19,Woman,Right,4,52,0.15,1,0,-,0,1.0466460999996343,['y'],0.23629990000154066,1.6059999999999999,2110.2595876000005,,,,,549,19,Woman,Right,
,,,,,,,,,,,,,,,,,549,19,Woman,Right,4,5,1,2,0,180,180,1.4030521999993653,['y'],0.5167569999994157,1.814,2114.6925124,,,,,549,19,Woman,Right,
,,,,,,,,,,,,,,,,,549,19,Woman,Right,4,33,0.4,2,0,180,180,1.1378171000014845,['y'],0.7167258999998012,1.814,2118.6088867000008,,,,,549,19,Woman,Right,
,,,,,,,,,,,,,,,,,549,19,Woman,Right,4,39,0.4,2,180,0,180,0.5911407000003237,['y'],0.892715699999826,1.814,2122.1095725999994,,,,,549,19,Woman,Right,
,,,,,,,,,,,,,,,,,549,19,Woman,Right,4,57,0.15,2,0,180,180,0.3976590000002034,['n'],0.9244635000013659,1.744,2125.4754052,,,,,549,19,Woman,Right,
,,,,,,,,,,,,,,,,,549,19,Woman,Right,4,46,0.15,1,180,-,180,0.5096692000006442,['y'],1.1162851000008231,1.1099999999999999,2129.107999500001,,,,,549,19,Woman,Right,
,,,,,,,,,,,,,,,,,549,19,Woman,Right,4,17,0.4,2,0,180,180,0.7879197000002023,['y'],1.7566900000001624,1.576,2133.8929763999995,,,,,549,19,Woman,Right,
,,,,,,,,,,,,,,,,,549,19,Woman,Right,4,31,0.4,2,180,0,0,1.2631098999991082,['y'],0.8282036000000517,1.824,2138.1593796999996,,,,,549,19,Woman,Right,
,,,,,,,,,,,,,,,,,549,19,Woman,Right,4,6,1,1,180,-,180,0.8184658999998646,['n'],0.3161048000001756,1.714,2141.6918152000007,,,,,549,19,Woman,Right,
,,,,,,,,,,,,,,,,,549,19,Woman,Right,4,78,0.15,1,180,-,180,0.8653106000001571,['n'],0.3728391000004194,1.608,2145.3093428,,,,,549,19,Woman,Right,
,,,,,,,,,,,,,,,,,549,19,Woman,Right,4,41,0.4,2,0,180,180,0.7326197000002139,['n'],0.321410399999877,1.5819999999999999,2148.4751174000003,,,,,549,19,Woman,Right,
,,,,,,,,,,,,,,,,,549,19,Woman,Right,4,70,0.15,1,180,-,180,0.9001339000005828,['n'],2.6044763999998395,1.572,2154.0593614,,,,,549,19,Woman,Right,
,,,,,,,,,,,,,,,,,549,19,Woman,Right,4,48,0.15,1,0,-,0,0.6053197000001092,['n'],0.7807809000005363,1.6680000000000001,2157.591684,,,,,549,19,Woman,Right,
,,,,,,,,,,,,,,,,,549,19,Woman,Right,4,23,0.4,2,180,0,0,1.264042700000573,['y'],0.3009202999983245,1.672,2161.8760912999996,,,,,549,19,Woman,Right,
,,,,,,,,,,,,,,,,,549,19,Woman,Right,4,16,0.4,1,0,-,0,0.9324016999999003,['n'],0.7604432000007364,1.672,2169.4753869999995,,,,,549,19,Woman,Right,
,,,,,,,,,,,,,,,,,549,19,Woman,Right,4,51,0.15,2,180,0,0,1.3387729999994917,['n'],0.1966737999991892,1.672,2173.075288500001,,,,,549,19,Woman,Right,
,,,,,,,,,,,,,,,,,549,19,Woman,Right,4,56,0.15,1,0,-,0,0.8214368999997532,['n'],0.2366461999990861,1.672,2176.142289800001,,,,,549,19,Woman,Right,
,,,,,,,,,,,,,,,,,549,19,Woman,Right,4,76,0.15,1,0,-,0,0.40674159999980475,['n'],0.548785199998747,1.388,2179.4083758000006,,,,,549,19,Woman,Right,
,,,,,,,,,,,,,,,,,549,19,Woman,Right,4,42,0.4,1,180,-,180,0.8647203000000445,['n'],0.2527667000013025,1.178,2182.5925242000003,,,,,549,19,Woman,Right,
,,,,,,,,,,,,,,,,,549,19,Woman,Right,4,54,0.15,1,180,-,0,0.6982606000001397,['n'],0.26047250000010536,1.306,2185.5747953,,,,,549,19,Woman,Right,
,,,,,,,,,,,,,,,,,549,19,Woman,Right,4,67,0.15,2,180,0,0,0.5855270000010933,['n'],0.532053700000688,1.6680000000000001,2188.8255519999993,,,,,549,19,Woman,Right,
,,,,,,,,,,,,,,,,,549,19,Woman,Right,4,24,0.4,1,0,-,0,0.7251759999999194,['y'],0.30873780000001716,1.374,2192.0756119999996,,,,,549,19,Woman,Right,
,,,,,,,,,,,,,,,,,549,19,Woman,Right,5,6,1,1,180,-,180,0.5449798000008741,['n'],0.38803769999867654,1.778,2207.758944100001,70.0,75.0,50.0,,549,19,Woman,Right,
,,,,,,,,,,,,,,,,,549,19,Woman,Right,5,59,0.15,2,180,0,0,0.945533099999011,['n'],0.4848125999997137,1.778,2211.8916653000006,,,,,549,19,Woman,Right,
,,,,,,,,,,,,,,,,,549,19,Woman,Right,5,58,0.15,1,180,-,0,0.8906444999993255,['n'],0.3807870999989973,1.6179999999999999,2215.375429500001,,,,,549,19,Woman,Right,
,,,,,,,,,,,,,,,,,549,19,Woman,Right,5,4,1,1,0,-,0,2.087238600001001,['n'],0.2451467999999295,1.706,2220.0411338000004,,,,,549,19,Woman,Right,
,,,,,,,,,,,,,,,,,549,19,Woman,Right,5,61,0.15,2,0,180,0,0.8455163999988144,['n'],0.8205771000011737,1.706,2220.0411338000004,,,,,549,19,Woman,Right,
,,,,,,,,,,,,,,,,,549,19,Woman,Right,5,23,0.4,2,180,0,0,1.5284826999995857,['y'],0.32481849999931,1.558,2228.209108100001,,,,,549,19,Woman,Right,
,,,,,,,,,,,,,,,,,549,19,Woman,Right,5,15,0.4,2,180,0,0,1.0070245999995677,['y'],0.6286701000008179,1.558,2231.8750217999996,,,,,549,19,Woman,Right,
,,,,,,,,,,,,,,,,,549,19,Woman,Right,5,48,0.15,1,0,-,0,1.1575921999992715,['n'],0.548878200001127,1.166,2235.7914157000005,,,,,549,19,Woman,Right,
,,,,,,,,,,,,,,,,,549,19,Woman,Right,5,75,0.15,2,180,0,0,2.8085343000002467,['y'],0.46074510000107693,1.388,2241.8421465,,,,,549,19,Woman,Right,
,,,,,,,,,,,,,,,,,549,19,Woman,Right,5,29,0.4,2,0,180,180,0.9493020000008983,['y'],0.3989285999996355,1.3519999999999999,2245.3745862999995,,,,,549,19,Woman,Right,
,,,,,,,,,,,,,,,,,549,19,Woman,Right,5,22,0.4,1,180,-,180,1.0258500999989337,['n'],0.3968466000005719,1.608,2249.458662600001,,,,,549,19,Woman,Right,
,,,,,,,,,,,,,,,,,549,19,Woman,Right,5,12,0.4,1,0,-,0,1.0313404000007722,['n'],0.4369862000003195,1.6219999999999999,2253.1089414999997,,,,,549,19,Woman,Right,
,,,,,,,,,,,,,,,,,549,19,Woman,Right,5,42,0.4,1,180,-,180,0.6045176000006904,['n'],0.7002824999999575,1.3639999999999999,2256.6923409,,,,,549,19,Woman,Right,
,,,,,,,,,,,,,,,,,549,19,Woman,Right,5,65,0.15,2,0,180,0,0.7582096000005549,['n'],0.9883926000002248,1.6520000000000001,2260.508787400001,,,,,549,19,Woman,Right,
,,,,,,,,,,,,,,,,,549,19,Woman,Right,5,41,0.4,2,0,180,180,1.6758752000005188,['y'],0.3408894000003784,1.69,2264.6416514000002,,,,,549,19,Woman,Right,
,,,,,,,,,,,,,,,,,549,19,Woman,Right,5,37,0.4,2,0,180,180,1.9663533999992069,['y'],0.3968879999993078,1.69,2269.1249020000005,,,,,549,19,Woman,Right,
,,,,,,,,,,,,,,,,,549,19,Woman,Right,5,74,0.15,1,180,-,180,0.8745683999986795,['n'],0.3888667000010173,1.69,2272.4744297999996,,,,,549,19,Woman,Right,
,,,,,,,,,,,,,,,,,549,19,Woman,Right,5,2,1,1,180,-,180,0.46253259999866714,['n'],0.2923508000003494,1.85,2275.791038800001,,,,,549,19,Woman,Right,
,,,,,,,,,,,,,,,,,549,19,Woman,Right,5,20,0.4,1,0,-,180,3.1371182999992016,['y'],0.30057599999963713,1.294,2281.4918117000007,,,,,549,19,Woman,Right,
,,,,,,,,,,,,,,,,,549,19,Woman,Right,5,63,0.15,2,180,0,0,0.6495992000000115,['n'],0.41611700000066776,1.676,2284.691649200001,,,,,549,19,Woman,Right,
,,,,,,,,,,,,,,,,,549,19,Woman,Right,5,49,0.15,2,0,180,180,1.0987944999997126,['y'],0.2450318999999581,1.6219999999999999,2288.2249254999997,,,,,549,19,Woman,Right,
,,,,,,,,,,,,,,,,,549,19,Woman,Right,5,17,0.4,2,0,180,180,0.9120253000000957,['y'],0.30897639999966486,1.674,2291.574677400001,,,,,549,19,Woman,Right,
,,,,,,,,,,,,,,,,,549,19,Woman,Right,5,28,0.4,1,0,-,0,0.6626489999998739,['n'],0.2450896999998804,1.76,2294.6420396000003,,,,,549,19,Woman,Right,
,,,,,,,,,,,,,,,,,549,19,Woman,Right,5,11,0.4,2,180,0,0,1.4362523999989207,['y'],0.3810333000001265,1.712,2298.5250938,,,,,549,19,Woman,Right,
,,,,,,,,,,,,,,,,,549,19,Woman,Right,5,56,0.15,1,0,-,0,0.648811700000806,['n'],0.6689514000008785,1.712,2302.3249982000007,,,,,549,19,Woman,Right,
,,,,,,,,,,,,,,,,,549,19,Woman,Right,5,45,0.15,2,0,180,0,2.009917100000166,['n'],0.29282729999977164,1.712,2306.6419797999997,,,,,549,19,Woman,Right,
,,,,,,,,,,,,,,,,,549,19,Woman,Right,5,30,0.4,1,180,-,180,1.1347200000000157,['n'],0.23714560000007623,1.712,2309.942200800001,,,,,549,19,Woman,Right,
,,,,,,,,,,,,,,,,,549,19,Woman,Right,5,47,0.15,2,180,0,0,1.0494700999988709,['y'],0.29295550000097137,1.712,2313.274674000001,,,,,549,19,Woman,Right,
,,,,,,,,,,,,,,,,,549,19,Woman,Right,5,24,0.4,1,0,-,0,0.796046399998886,['n'],0.2530495000009978,1.712,2316.5414673999994,,,,,549,19,Woman,Right,
,,,,,,,,,,,,,,,,,549,19,Woman,Right,5,62,0.15,1,180,-,180,2.690569399999731,['y'],0.2047560999999405,1.1560000000000001,2321.8587301,,,,,549,19,Woman,Right,
,,,,,,,,,,,,,,,,,549,19,Woman,Right,5,3,1,2,180,0,0,1.7594671999995626,['y'],0.636335400000462,1.84,2326.5087285,,,,,549,19,Woman,Right,
,,,,,,,,,,,,,,,,,549,19,Woman,Right,5,70,0.15,1,180,-,180,0.7651997000011761,['y'],0.35593059999882826,1.254,2329.7419020999996,,,,,549,19,Woman,Right,
,,,,,,,,,,,,,,,,,549,19,Woman,Right,5,13,0.4,2,0,180,180,1.491495100000975,['y'],0.27626039999995555,1.814,2333.5908148000008,,,,,549,19,Woman,Right,
,,,,,,,,,,,,,,,,,549,19,Woman,Right,5,43,0.4,2,180,0,0,1.1332407999998395,['y'],0.4523935999986861,1.342,2337.4751375999995,,,,,549,19,Woman,Right,
,,,,,,,,,,,,,,,,,549,19,Woman,Right,5,31,0.4,2,180,0,0,0.5421447999997326,['y'],0.4686375000001135,1.3559999999999999,2340.5256101999994,,,,,549,19,Woman,Right,
,,,,,,,,,,,,,,,,,549,19,Woman,Right,5,18,0.4,1,180,-,180,0.7470651999992697,['n'],0.32474480000018957,1.328,2344.3741378999994,,,,,549,19,Woman,Right,
,,,,,,,,,,,,,,,,,549,19,Woman,Right,5,10,0.4,1,180,-,180,0.39398529999925813,['n'],0.3331871999998839,1.328,2347.274546900001,,,,,549,19,Woman,Right,
,,,,,,,,,,,,,,,,,549,19,Woman,Right,5,21,0.4,2,0,180,180,0.7484227999993891,['y'],2.4450136000014027,1.326,2352.457930200001,,,,,549,19,Woman,Right,
,,,,,,,,,,,,,,,,,549,19,Woman,Right,5,79,0.15,2,180,0,180,0.2857588000006217,['n'],0.7650978000001487,1.326,2355.5419460000003,,,,,549,19,Woman,Right,
,,,,,,,,,,,,,,,,,549,19,Woman,Right,5,0,1,1,0,-,0,0.28099010000005364,['n'],1.1810700999994879,1.692,2359.4754423999993,,,,,549,19,Woman,Right,
,,,,,,,,,,,,,,,,,549,19,Woman,Right,5,44,0.15,1,0,-,0,1.1716384999999718,['n'],0.23697399999946356,1.6360000000000001,2363.0584876000003,,,,,549,19,Woman,Right,
,,,,,,,,,,,,,,,,,549,19,Woman,Right,5,46,0.15,1,180,-,180,1.0150895999995555,['n'],0.43680610000046727,1.3,2366.7740439,,,,,549,19,Woman,Right,
,,,,,,,,,,,,,,,,,549,19,Woman,Right,5,53,0.15,2,0,180,0,0.6745167000008223,['n'],1.0370056000010663,1.676,2370.6916174999997,,,,,549,19,Woman,Right,
,,,,,,,,,,,,,,,,,549,19,Woman,Right,5,1,1,2,0,180,180,3.7530757000004087,['y'],1.4610484000004362,1.676,2378.2241710999997,,,,,549,19,Woman,Right,
,,,,,,,,,,,,,,,,,549,19,Woman,Right,5,54,0.15,1,180,-,0,0.5251066000000719,['n'],1.4690184999999474,1.676,2382.6415435999997,,,,,549,19,Woman,Right,
,,,,,,,,,,,,,,,,,549,19,Woman,Right,5,25,0.4,2,0,180,180,1.2539271999994526,['y'],1.1649782000004052,1.588,2388.5250991000003,,,,,549,19,Woman,Right,
,,,,,,,,,,,,,,,,,549,19,Woman,Right,5,69,0.15,2,0,180,180,1.6067192999998952,['n'],1.4131687999997666,1.588,2393.8912582000003,,,,,549,19,Woman,Right,
,,,,,,,,,,,,,,,,,549,19,Woman,Right,5,68,0.15,1,0,-,180,1.0993166999996902,['y'],0.6211284000000887,1.588,2397.757272,,,,,549,19,Woman,Right,
,,,,,,,,,,,,,,,,,549,19,Woman,Right,5,34,0.4,1,180,-,180,1.4313121999985015,['n'],0.253173400000378,1.234,2401.924259800001,,,,,549,19,Woman,Right,
,,,,,,,,,,,,,,,,,549,19,Woman,Right,5,36,0.4,1,0,-,0,0.7664103000006435,['n'],0.25860419999844453,1.77,2405.3245268,,,,,549,19,Woman,Right,
,,,,,,,,,,,,,,,,,549,19,Woman,Right,5,26,0.4,1,180,-,180,3.004589500000293,['n'],0.26042059999963385,1.304,2410.9412428999995,,,,,549,19,Woman,Right,
,,,,,,,,,,,,,,,,,549,19,Woman,Right,5,7,1,2,180,0,0,1.3891955000017333,['y'],0.33265770000070916,1.776,2414.7911178000004,,,,,549,19,Woman,Right,
,,,,,,,,,,,,,,,,,549,19,Woman,Right,5,71,0.15,2,180,0,180,0.6655274000004283,['n'],0.3728719999999157,1.5739999999999998,2418.7910660999996,,,,,549,19,Woman,Right,
,,,,,,,,,,,,,,,,,549,19,Woman,Right,5,50,0.15,1,180,-,0,0.47327450000011595,['n'],0.3331085999998322,1.5739999999999998,2421.5583209000006,,,,,549,19,Woman,Right,
,,,,,,,,,,,,,,,,,549,19,Woman,Right,5,33,0.4,2,0,180,180,2.265184300000328,['y'],0.3800200000005134,1.624,2426.9737453000007,,,,,549,19,Woman,Right,
,,,,,,,,,,,,,,,,,549,19,Woman,Right,5,39,0.4,2,180,0,0,1.1790123999999196,['y'],0.30870779999895603,1.67,2430.507642200001,,,,,549,19,Woman,Right,
,,,,,,,,,,,,,,,,,549,19,Woman,Right,5,14,0.4,1,180,-,0,1.650662399999419,['y'],0.6612074999993638,1.5859999999999999,2435.1748256,,,,,549,19,Woman,Right,
,,,,,,,,,,,,,,,,,549,19,Woman,Right,5,5,1,2,0,180,180,1.9579321000001073,['y'],0.2926979999992909,1.6099999999999999,2440.0915161000003,,,,,549,19,Woman,Right,
,,,,,,,,,,,,,,,,,549,19,Woman,Right,5,16,0.4,1,0,-,0,0.5753368000005139,['n'],0.34879739999996673,1.698,2443.1079204999996,,,,,549,19,Woman,Right,
,,,,,,,,,,,,,,,,,549,19,Woman,Right,5,51,0.15,2,180,0,0,1.8506231999999727,['n'],0.2531689000006736,1.67,2447.7414975,,,,,549,19,Woman,Right,
,,,,,,,,,,,,,,,,,549,19,Woman,Right,5,57,0.15,2,0,180,180,0.7226212999994459,['y'],1.6533411999989767,1.3359999999999999,2452.3412918000004,,,,,549,19,Woman,Right,
,,,,,,,,,,,,,,,,,549,19,Woman,Right,5,8,0.4,1,0,-,0,0.2581430999998702,['n'],0.6371656999999686,1.4,2455.8413733999996,,,,,549,19,Woman,Right,
,,,,,,,,,,,,,,,,,549,19,Woman,Right,5,72,0.15,1,0,-,0,0.24283610000020417,['n'],1.3725803999986965,1.166,2459.541035000001,,,,,549,19,Woman,Right,
,,,,,,,,,,,,,,,,,549,19,Woman,Right,5,52,0.15,1,0,-,0,1.242647399998532,['n'],0.644689599999765,1.342,2463.6581156,,,,,549,19,Woman,Right,
,,,,,,,,,,,,,,,,,549,19,Woman,Right,5,38,0.4,1,180,-,180,2.0831079999989015,['n'],0.22765389999949548,1.6,2467.9744223000007,,,,,549,19,Woman,Right,
,,,,,,,,,,,,,,,,,549,19,Woman,Right,5,66,0.15,1,180,-,0,1.2888636000006954,['n'],0.2210173000003124,1.5899999999999999,2471.5410731,,,,,549,19,Woman,Right,
,,,,,,,,,,,,,,,,,549,19,Woman,Right,5,19,0.4,2,180,0,180,0.8892950999997993,['n'],0.7652624000002106,1.292,2475.2906785999994,,,,,549,19,Woman,Right,
,,,,,,,,,,,,,,,,,549,19,Woman,Right,5,77,0.15,2,0,180,0,0.7417967000001227,['n'],0.25232210000103805,1.624,2478.3413775,,,,,549,19,Woman,Right,
,,,,,,,,,,,,,,,,,549,19,Woman,Right,5,32,0.4,1,0,-,0,1.2502739000010479,['n'],0.2204980999995314,1.6400000000000001,2481.9574409000006,,,,,549,19,Woman,Right,
,,,,,,,,,,,,,,,,,549,19,Woman,Right,5,67,0.15,2,180,0,0,0.7379760999992868,['n'],0.27678870000090683,1.5819999999999999,2485.090914200001,,,,,549,19,Woman,Right,
,,,,,,,,,,,,,,,,,549,19,Woman,Right,5,40,0.4,1,0,-,0,0.7089617999990878,['n'],0.2932717000003322,1.576,2488.5248413,,,,,549,19,Woman,Right,
,,,,,,,,,,,,,,,,,549,19,Woman,Right,5,76,0.15,1,0,-,0,0.43706639999982144,['n'],0.6690369999996619,1.57,2491.6574926000003,,,,,549,19,Woman,Right,
,,,,,,,,,,,,,,,,,549,19,Woman,Right,5,73,0.15,2,0,180,0,0.7490422000009858,['n'],0.30925769999885233,1.566,2494.7401492,,,,,549,19,Woman,Right,
,,,,,,,,,,,,,,,,,549,19,Woman,Right,5,78,0.15,1,180,-,180,0.8815782000001491,['n'],5.261376800001017,1.3439999999999999,2503.2072533,,,,,549,19,Woman,Right,
,,,,,,,,,,,,,,,,,549,19,Woman,Right,5,60,0.15,1,0,-,0,1.0982760000006238,['n'],2.27728770000067,1.6480000000000001,2509.140494800001,,,,,549,19,Woman,Right,
,,,,,,,,,,,,,,,,,549,19,Woman,Right,5,27,0.4,2,180,0,0,1.1157715000008466,['n'],1.5253630999995949,1.6480000000000001,2513.890947000001,,,,,549,19,Woman,Right,
,,,,,,,,,,,,,,,,,549,19,Woman,Right,5,9,0.4,2,0,180,180,1.1803952999998728,['y'],0.9574028000006365,1.584,2518.3906627000006,,,,,549,19,Woman,Right,
,,,,,,,,,,,,,,,,,549,19,Woman,Right,5,55,0.15,2,180,0,180,0.7384077999995498,['n'],0.8454605000006268,1.3719999999999999,2523.2904312,,,,,549,19,Woman,Right,
,,,,,,,,,,,,,,,,,549,19,Woman,Right,5,35,0.4,2,180,0,0,1.7491938000002847,['y'],0.22513360000084504,1.3519999999999999,2528.7737165999997,,,,,549,19,Woman,Right,
,,,,,,,,,,,,,,,,,549,19,Woman,Right,5,64,0.15,1,0,-,180,0.7072100000004866,['y'],0.27671190000000934,1.33,2532.0903064000004,,,,,549,19,Woman,Right,
,,,,,,,,,,,,,,,,,,,,,,,,,,,,,,,,,77.5,85.0,60.0,2222.5488334,,,,,
