p_block,p_section,p_coherence,p_direction1,p_direction2,p_direction_response,p_direction_RT,p_change_response,p_change_RT,p_confidence,p_full_correct,p_without5_correct,p_full_total,p_without5_total,p_full_avg,p_witout5_avg,p_total_time,sub,age,sex,handedness,loop,trial randomization,coherence,condition,direction1,direction2,direction_response,direction_RT,change_response,change_RT,change_confidence,change_confidence_RT,block_direction_avg,block_stable_avg,block_change_avg,total_time,sub,age,sex,handedness,
1,1,1.0,180,-,180,3.2788801999995485,-,-,-,,,,,,,,502,19,Man,Right,,,,,,,,,,,,,,,,,502,19,Man,Right,
1,1,1.0,180,-,180,0.038261000001512,-,-,-,,,,,,,,502,19,Man,Right,,,,,,,,,,,,,,,,,502,19,Man,Right,
1,1,1.0,180,-,180,1.1915303999994649,-,-,-,,,,,,,,502,19,Man,Right,,,,,,,,,,,,,,,,,502,19,Man,Right,
1,1,1.0,0,-,0,1.2029203999991296,-,-,-,,,,,,,,502,19,Man,Right,,,,,,,,,,,,,,,,,502,19,Man,Right,
1,1,1.0,180,-,180,0.29242669999803184,-,-,-,,,,,,,,502,19,Man,Right,,,,,,,,,,,,,,,,,502,19,Man,Right,
1,1,1.0,180,-,180,0.017045600001438288,-,-,-,,,,,,,,502,19,Man,Right,,,,,,,,,,,,,,,,,502,19,Man,Right,
1,1,1.0,0,-,0,0.8691083999983675,-,-,-,,,,,,,,502,19,Man,Right,,,,,,,,,,,,,,,,,502,19,Man,Right,
1,1,1.0,180,-,180,0.9971874000002572,-,-,-,,,,,,,,502,19,Man,Right,,,,,,,,,,,,,,,,,502,19,Man,Right,
1,1,1.0,0,-,0,0.2717350000020815,-,-,-,,,,,,,,502,19,Man,Right,,,,,,,,,,,,,,,,,502,19,Man,Right,
1,1,1.0,0,-,0,0.32715819999793894,-,-,-,10,10,10,10,1.0,1.0,,502,19,Man,Right,,,,,,,,,,,,,,,,,502,19,Man,Right,
2,1,0.4,0,-,180,0.9170028000007733,-,-,-,,,,,,,,502,19,Man,Right,,,,,,,,,,,,,,,,,502,19,Man,Right,
2,1,0.15,180,-,180,0.5066441000017221,-,-,-,,,,,,,,502,19,Man,Right,,,,,,,,,,,,,,,,,502,19,Man,Right,
2,1,0.4,180,-,180,1.4246023000014247,-,-,-,,,,,,,,502,19,Man,Right,,,,,,,,,,,,,,,,,502,19,Man,Right,
2,1,0.15,180,-,0,1.7157671999993909,-,-,-,,,,,,,,502,19,Man,Right,,,,,,,,,,,,,,,,,502,19,Man,Right,
2,1,0.15,180,-,0,1.0639392000011867,-,-,-,,,,,,,,502,19,Man,Right,,,,,,,,,,,,,,,,,502,19,Man,Right,
2,1,0.15,180,-,180,0.2953772000000754,-,-,-,,,,,,,,502,19,Man,Right,,,,,,,,,,,,,,,,,502,19,Man,Right,
2,1,0.15,0,-,0,0.4300571999992826,-,-,-,,,,,,,,502,19,Man,Right,,,,,,,,,,,,,,,,,502,19,Man,Right,
2,1,0.15,180,-,180,0.4956614000002446,-,-,-,,,,,,,,502,19,Man,Right,,,,,,,,,,,,,,,,,502,19,Man,Right,
2,1,0.15,180,-,180,2.254708300002676,-,-,-,,,,,,,,502,19,Man,Right,,,,,,,,,,,,,,,,,502,19,Man,Right,
2,1,0.15,180,-,180,0.4949367000008351,-,-,-,,,,,,,,502,19,Man,Right,,,,,,,,,,,,,,,,,502,19,Man,Right,
2,1,0.4,180,-,180,0.3102099999996426,-,-,-,,,,,,,,502,19,Man,Right,,,,,,,,,,,,,,,,,502,19,Man,Right,
2,1,0.4,180,-,180,0.3329282999984571,-,-,-,,,,,,,,502,19,Man,Right,,,,,,,,,,,,,,,,,502,19,Man,Right,
2,1,0.4,0,-,0,0.3209650999997393,-,-,-,,,,,,,,502,19,Man,Right,,,,,,,,,,,,,,,,,502,19,Man,Right,
2,1,0.15,180,-,180,0.4142743000011251,-,-,-,,,,,,,,502,19,Man,Right,,,,,,,,,,,,,,,,,502,19,Man,Right,
2,1,0.15,180,-,180,0.3051170999970054,-,-,-,,,,,,,,502,19,Man,Right,,,,,,,,,,,,,,,,,502,19,Man,Right,
2,1,0.15,180,-,180,0.3903606999992917,-,-,-,,,,,,,,502,19,Man,Right,,,,,,,,,,,,,,,,,502,19,Man,Right,
2,1,0.15,180,-,0,0.5854872999989311,-,-,-,,,,,,,,502,19,Man,Right,,,,,,,,,,,,,,,,,502,19,Man,Right,
2,1,0.15,0,-,0,0.364220600000408,-,-,-,,,,,,,,502,19,Man,Right,,,,,,,,,,,,,,,,,502,19,Man,Right,
2,1,0.4,180,-,180,0.33640100000047823,-,-,-,,,,,,,,502,19,Man,Right,,,,,,,,,,,,,,,,,502,19,Man,Right,
2,1,0.15,0,-,0,0.4323158000006515,-,-,-,9,4,10,4,0.9,1.0,,502,19,Man,Right,,,,,,,,,,,,,,,,,502,19,Man,Right,
3,2,1.0,0,180,180,1.8988461999979336,['y'],0.9375456999987364,1.994,,,,,,,,502,19,Man,Right,,,,,,,,,,,,,,,,,502,19,Man,Right,
3,2,1.0,0,180,180,0.8709611000012956,['y'],0.35940490000211867,1.994,,,,,,,,502,19,Man,Right,,,,,,,,,,,,,,,,,502,19,Man,Right,
3,2,1.0,0,180,180,0.572530800000095,['y'],0.7755929999984801,2.0,,,,,,,,502,19,Man,Right,,,,,,,,,,,,,,,,,502,19,Man,Right,
3,2,1.0,0,180,180,0.48369970000203466,['y'],0.35556519999954617,2.0,,,,,,,,502,19,Man,Right,,,,,,,,,,,,,,,,,502,19,Man,Right,
3,2,1.0,0,180,180,0.3753950000027544,['y'],0.27635620000000927,1.996,,,,,,,,502,19,Man,Right,,,,,,,,,,,,,,,,,502,19,Man,Right,
3,2,1.0,180,0,0,0.4952558000004501,['y'],0.30112500000177533,1.996,,,,,,,,502,19,Man,Right,,,,,,,,,,,,,,,,,502,19,Man,Right,
3,2,1.0,0,180,180,0.41569849999723374,['y'],0.2584439999991446,1.996,,,,,,,,502,19,Man,Right,,,,,,,,,,,,,,,,,502,19,Man,Right,
3,2,1.0,0,180,180,0.36247630000070785,['y'],0.14390390000335174,1.996,,,,,,,,502,19,Man,Right,,,,,,,,,,,,,,,,,502,19,Man,Right,
3,2,1.0,0,180,180,0.3591866000024311,['y'],0.11715519999779644,1.996,,,,,,,,502,19,Man,Right,,,,,,,,,,,,,,,,,502,19,Man,Right,
3,2,1.0,180,0,0,0.3259594000010111,['y'],0.28393770000184304,1.996,10,10,10,10,1.0,1.0,,502,19,Man,Right,,,,,,,,,,,,,,,,,502,19,Man,Right,
4,2,0.4,0,180,180,0.7433831999987888,['y'],0.6441556999998284,2.0,,,,,,,,502,19,Man,Right,,,,,,,,,,,,,,,,,502,19,Man,Right,
4,2,0.4,0,180,180,0.42982670000128564,['y'],0.3371765999982017,1.994,,,,,,,,502,19,Man,Right,,,,,,,,,,,,,,,,,502,19,Man,Right,
4,2,0.15,180,0,0,2.98197010000149,['n'],2.2898645999994187,1.758,,,,,,,,502,19,Man,Right,,,,,,,,,,,,,,,,,502,19,Man,Right,
4,2,0.4,0,180,180,0.9490531999981613,['y'],1.354933999999048,1.956,,,,,,,,502,19,Man,Right,,,,,,,,,,,,,,,,,502,19,Man,Right,
4,2,0.4,0,180,180,0.4708131000006688,['y'],0.2626907999983814,2.0,,,,,,,,502,19,Man,Right,,,,,,,,,,,,,,,,,502,19,Man,Right,
4,2,0.15,180,0,0,0.8241269000027387,['y'],0.3304456999976537,1.998,,,,,,,,502,19,Man,Right,,,,,,,,,,,,,,,,,502,19,Man,Right,
4,2,0.4,180,0,0,0.40044599999964703,['y'],0.20042210000246996,1.998,,,,,,,,502,19,Man,Right,,,,,,,,,,,,,,,,,502,19,Man,Right,
4,2,0.4,180,0,0,0.4227155999979004,['y'],0.11322830000062822,1.99,,,,,,,,502,19,Man,Right,,,,,,,,,,,,,,,,,502,19,Man,Right,
4,2,0.4,180,0,0,0.7171946999987995,['y'],0.3629293999983929,2.0,,,,,,,,502,19,Man,Right,,,,,,,,,,,,,,,,,502,19,Man,Right,
4,2,0.4,0,180,180,0.3486537999997381,['y'],0.16213319999951636,2.0,10,8,10,8,1.0,1.0,,502,19,Man,Right,,,,,,,,,,,,,,,,,502,19,Man,Right,
5,3,0.15,180,0,0,2.8453960999977426,['y'],1.6141419000014139,1.8519999999999999,,,,,,,,502,19,Man,Right,,,,,,,,,,,,,,,,,502,19,Man,Right,
5,3,1.0,0,-,180,0.8465364000003319,['n'],1.3206688999998732,1.87,,,,,,,,502,19,Man,Right,,,,,,,,,,,,,,,,,502,19,Man,Right,
5,3,1.0,180,0,0,1.350488400003087,['y'],0.3067470999994839,1.998,,,,,,,,502,19,Man,Right,,,,,,,,,,,,,,,,,502,19,Man,Right,
5,3,0.15,180,0,0,2.08034090000001,['n'],0.3208353000009083,1.728,,,,,,,,502,19,Man,Right,,,,,,,,,,,,,,,,,502,19,Man,Right,
5,3,0.15,0,-,180,0.7979216999992786,['n'],1.2335606000015105,1.0,,,,,,,,502,19,Man,Right,,,,,,,,,,,,,,,,,502,19,Man,Right,
5,3,0.4,0,180,180,0.6531785000006494,['y'],0.38319160000173724,1.0,,,,,,,,502,19,Man,Right,,,,,,,,,,,,,,,,,502,19,Man,Right,
5,3,0.4,180,-,0,1.5752878000021155,['n'],0.37976160000107484,1.236,,,,,,,,502,19,Man,Right,,,,,,,,,,,,,,,,,502,19,Man,Right,
5,3,1.0,0,-,180,1.0134284000014304,['n'],1.311521300001914,1.248,,,,,,,,502,19,Man,Right,,,,,,,,,,,,,,,,,502,19,Man,Right,
5,3,0.4,180,0,0,0.5931808000023011,['y'],0.42088670000157435,1.654,,,,,,,,502,19,Man,Right,,,,,,,,,,,,,,,,,502,19,Man,Right,
5,3,0.15,180,-,180,1.209232000001066,['y'],0.32308460000058403,1.0,,,,,,,,502,19,Man,Right,,,,,,,,,,,,,,,,,502,19,Man,Right,
5,3,0.4,180,-,0,4.024215900000854,['y'],5.681819500001438,1.0,,,,,,,,502,19,Man,Right,,,,,,,,,,,,,,,,,502,19,Man,Right,
5,3,0.4,0,180,180,0.4671072999990429,['y'],0.2673520999996981,1.812,,,,,,,,502,19,Man,Right,,,,,,,,,,,,,,,,,502,19,Man,Right,
5,3,0.15,0,180,180,0.7868101999993087,['n'],0.34979549999843584,2.0,,,,,,,,502,19,Man,Right,,,,,,,,,,,,,,,,,502,19,Man,Right,
5,3,0.15,0,-,180,0.7723272000002908,['n'],0.5925896000007924,1.252,,,,,,,,502,19,Man,Right,,,,,,,,,,,,,,,,,502,19,Man,Right,
5,3,0.4,0,180,0,1.2205351999982668,['y'],0.9993383000000904,1.0,,,,,,,,502,19,Man,Right,,,,,,,,,,,,,,,,,502,19,Man,Right,
5,3,0.4,0,180,180,1.2295061000004353,['y'],0.29577340000105323,1.798,,,,,,,,502,19,Man,Right,,,,,,,,,,,,,,,,,502,19,Man,Right,
5,3,0.4,0,-,0,1.2442368000010902,['n'],0.9189464000010048,1.1480000000000001,,,,,,,,502,19,Man,Right,,,,,,,,,,,,,,,,,502,19,Man,Right,
5,3,0.4,0,180,180,0.7905710999984876,['y'],0.32206520000181627,1.734,,,,,,,,502,19,Man,Right,,,,,,,,,,,,,,,,,502,19,Man,Right,
5,3,1.0,0,180,180,0.35239590000128374,['y'],0.613243899999361,2.0,,,,,,,,502,19,Man,Right,,,,,,,,,,,,,,,,,502,19,Man,Right,
5,3,0.15,180,0,180,2.6909667999971134,['n'],2.5543475999984366,1.0,,,,,,,,502,19,Man,Right,,,,,,,,,,,,,,,,,502,19,Man,Right,
5,3,0.4,0,-,0,0.8550749999994878,['y'],0.3437491000004229,1.84,,,,,,,,502,19,Man,Right,,,,,,,,,,,,,,,,,502,19,Man,Right,
5,3,0.4,180,0,0,0.6049043999992136,['y'],0.3516096000021207,1.996,,,,,,,,502,19,Man,Right,,,,,,,,,,,,,,,,,502,19,Man,Right,
5,3,1.0,0,-,180,0.575200399998721,['y'],0.29817539999930887,1.008,,,,,,,,502,19,Man,Right,,,,,,,,,,,,,,,,,502,19,Man,Right,
5,3,0.15,0,-,0,1.0251142000015534,['n'],0.3546026999974856,1.0,,,,,,,,502,19,Man,Right,,,,,,,,,,,,,,,,,502,19,Man,Right,
5,3,0.4,0,-,180,0.42660910000267904,['y'],0.8042865999996138,1.0,,,,,,,,502,19,Man,Right,,,,,,,,,,,,,,,,,502,19,Man,Right,
5,3,0.15,0,180,180,0.8499575999994704,['n'],0.5481681999990542,1.002,,,,,,,,502,19,Man,Right,,,,,,,,,,,,,,,,,502,19,Man,Right,
5,3,1.0,0,-,180,0.45489720000114175,['n'],7.448619399998279,1.002,,,,,,,,502,19,Man,Right,,,,,,,,,,,,,,,,,502,19,Man,Right,
5,3,0.15,0,-,0,0.6082559000024048,['y'],0.2673568000027444,1.672,,,,,,,,502,19,Man,Right,,,,,,,,,,,,,,,,,502,19,Man,Right,
5,3,1.0,0,180,180,0.38485080000100425,['y'],0.29300679999869317,1.992,,,,,,,,502,19,Man,Right,,,,,,,,,,,,,,,,,502,19,Man,Right,
5,3,0.15,0,180,180,1.6497189000001526,['n'],0.9008605000017269,1.0,,,,,,,,502,19,Man,Right,,,,,,,,,,,,,,,,,502,19,Man,Right,
5,3,1.0,180,0,0,0.3201602000008279,['y'],0.3424252000004344,2.0,,,,,,,,502,19,Man,Right,,,,,,,,,,,,,,,,,502,19,Man,Right,
5,3,1.0,180,0,0,0.447464900000341,['y'],0.25690250000116066,2.0,,,,,,,,502,19,Man,Right,,,,,,,,,,,,,,,,,502,19,Man,Right,
5,3,0.15,0,180,0,4.032798600001115,['n'],1.6545241999992868,2.0,,,,,,,,502,19,Man,Right,,,,,,,,,,,,,,,,,502,19,Man,Right,
5,3,0.15,0,-,180,0.4951775000008638,['n'],0.8468268000033277,1.992,,,,,,,,502,19,Man,Right,,,,,,,,,,,,,,,,,502,19,Man,Right,
5,3,0.15,180,-,180,0.6311797999987903,['n'],1.7690323999995599,1.994,,,,,,,,502,19,Man,Right,,,,,,,,,,,,,,,,,502,19,Man,Right,
5,3,0.4,0,180,180,0.4482735000019602,['y'],0.7456975999994029,2.0,,,,,,,,502,19,Man,Right,,,,,,,,,,,,,,,,,502,19,Man,Right,
5,3,0.4,0,-,180,0.7055818000008003,['n'],0.3136443000003055,2.0,,,,,,,,502,19,Man,Right,,,,,,,,,,,,,,,,,502,19,Man,Right,
5,3,0.4,180,-,0,1.2181022000004305,['y'],0.3332214000001841,1.78,,,,,,,,502,19,Man,Right,,,,,,,,,,,,,,,,,502,19,Man,Right,
5,3,0.15,0,180,180,1.298315799998818,['n'],0.5604225000024599,1.884,,,,,,,,502,19,Man,Right,,,,,,,,,,,,,,,,,502,19,Man,Right,
5,3,0.4,180,-,0,2.415375299999141,['y'],0.40924770000128774,1.296,,,,,,,,502,19,Man,Right,,,,,,,,,,,,,,,,,502,19,Man,Right,
5,3,1.0,0,180,180,0.33206840000275406,['y'],0.29016000000046915,1.998,,,,,,,,502,19,Man,Right,,,,,,,,,,,,,,,,,502,19,Man,Right,
5,3,0.15,0,-,180,1.8980000000010477,['y'],1.2330784000005224,1.006,,,,,,,,502,19,Man,Right,,,,,,,,,,,,,,,,,502,19,Man,Right,
5,3,0.4,0,180,180,0.3404937000013888,['y'],0.33903929999723914,1.982,,,,,,,,502,19,Man,Right,,,,,,,,,,,,,,,,,502,19,Man,Right,
5,3,0.15,180,-,180,2.1841074000003573,['n'],2.4280488999975205,1.774,,,,,,,,502,19,Man,Right,,,,,,,,,,,,,,,,,502,19,Man,Right,
5,3,1.0,180,0,0,0.31576339999810443,['y'],0.38587679999909597,1.96,,,,,,,,502,19,Man,Right,,,,,,,,,,,,,,,,,502,19,Man,Right,
5,3,0.15,180,-,180,0.6879880999986199,['n'],2.4473580999983824,1.782,,,,,,,,502,19,Man,Right,,,,,,,,,,,,,,,,,502,19,Man,Right,
5,3,0.15,180,-,0,0.9754093999981706,['n'],0.42693380000127945,1.794,,,,,,,,502,19,Man,Right,,,,,,,,,,,,,,,,,502,19,Man,Right,
5,3,0.15,180,-,180,0.38336379999964265,['n'],0.30815029999939725,1.744,,,,,,,,502,19,Man,Right,,,,,,,,,,,,,,,,,502,19,Man,Right,
5,3,0.15,180,0,0,0.6087207999989914,['y'],0.3164488000002166,1.988,,,,,,,,502,19,Man,Right,,,,,,,,,,,,,,,,,502,19,Man,Right,
5,3,0.15,0,180,180,0.3227838000020711,['y'],0.27302400000189664,1.992,8,3,10,3,0.8,1.0,,502,19,Man,Right,,,,,,,,,,,,,,,,,502,19,Man,Right,
,,,,,,,,,,,,,,,,4.2000028770416975e-06,502,19,Man,Right,,,,,,,,,,,,,,,,,502,19,Man,Right,
,,,,,,,,,,,,,,,,,502,19,Man,Right,0,47,0.15,2,180,0,0,0.9327716999978293,['y'],6.607508799999778,1.244,601.1015297999984,,,,,502,19,Man,Right,
,,,,,,,,,,,,,,,,,502,19,Man,Right,0,7,1,2,180,0,0,0.7088561999989906,['y'],0.67112989999805,1.998,605.8689450999991,,,,,502,19,Man,Right,
,,,,,,,,,,,,,,,,,502,19,Man,Right,0,30,0.4,1,180,-,180,0.5888717000016186,['n'],0.7595012000019778,1.742,610.4689827000002,,,,,502,19,Man,Right,
,,,,,,,,,,,,,,,,,502,19,Man,Right,0,32,0.4,1,0,-,0,0.85015100000237,['n'],0.7784816999992472,1.816,614.7358338999984,,,,,502,19,Man,Right,
,,,,,,,,,,,,,,,,,502,19,Man,Right,0,45,0.15,2,0,180,180,0.5565228999985266,['n'],1.7439870000016526,1.3479999999999999,620.4694313,,,,,502,19,Man,Right,
,,,,,,,,,,,,,,,,,502,19,Man,Right,0,21,0.4,2,0,180,180,0.6665650000031746,['y'],0.8127667999979167,1.84,625.6374570999978,,,,,502,19,Man,Right,
,,,,,,,,,,,,,,,,,502,19,Man,Right,0,3,1,2,180,0,0,0.6009687000005215,['y'],0.5834674999969138,1.98,629.4866675999983,,,,,502,19,Man,Right,
,,,,,,,,,,,,,,,,,502,19,Man,Right,0,74,0.15,1,180,-,0,1.2343251000020246,['n'],1.0795143000032112,1.3,635.1355046999997,,,,,502,19,Man,Right,
,,,,,,,,,,,,,,,,,502,19,Man,Right,0,60,0.15,1,0,-,180,0.43370909999794094,['n'],1.1033906000011484,1.22,642.7852774999992,,,,,502,19,Man,Right,
,,,,,,,,,,,,,,,,,502,19,Man,Right,0,40,0.4,1,0,-,0,2.1441167000011774,['n'],1.159305699999095,1.262,649.4192637999986,,,,,502,19,Man,Right,
,,,,,,,,,,,,,,,,,502,19,Man,Right,0,64,0.15,1,0,-,180,0.7747328000004927,['n'],2.6873558000006597,1.768,656.5348597999982,,,,,502,19,Man,Right,
,,,,,,,,,,,,,,,,,502,19,Man,Right,0,70,0.15,1,180,-,180,0.9950661999973818,['n'],2.072010899999441,1.762,663.5688697000005,,,,,502,19,Man,Right,
,,,,,,,,,,,,,,,,,502,19,Man,Right,0,53,0.15,2,0,180,180,0.5736973999992188,['y'],0.5993620999979612,1.83,667.9351291999992,,,,,502,19,Man,Right,
,,,,,,,,,,,,,,,,,502,19,Man,Right,0,15,0.4,2,180,0,0,0.25974180000048364,['y'],0.5676439999988361,1.998,671.2860526999975,,,,,502,19,Man,Right,
,,,,,,,,,,,,,,,,,502,19,Man,Right,0,13,0.4,2,0,180,180,0.842898899998545,['y'],0.5834437000012258,1.982,675.1690087999996,,,,,502,19,Man,Right,
,,,,,,,,,,,,,,,,,502,19,Man,Right,0,28,0.4,1,0,-,180,0.6671502999997756,['n'],0.5356807999996818,1.744,679.7022871000008,,,,,502,19,Man,Right,
,,,,,,,,,,,,,,,,,502,19,Man,Right,0,10,0.4,1,180,-,0,0.5410176000004867,['n'],3.807146000002831,1.79,686.7016239000004,,,,,502,19,Man,Right,
,,,,,,,,,,,,,,,,,502,19,Man,Right,0,56,0.15,1,0,-,180,2.3878932999978133,['n'],1.687217499998951,1.792,693.2691408999999,,,,,502,19,Man,Right,
,,,,,,,,,,,,,,,,,502,19,Man,Right,0,19,0.4,2,180,0,0,0.4370871999999508,['y'],0.6319034000007377,1.984,697.1028215999977,,,,,502,19,Man,Right,
,,,,,,,,,,,,,,,,,502,19,Man,Right,0,0,1,1,0,-,180,0.46667559999696095,['y'],0.6807504999997036,1.996,700.8693707999992,,,,,502,19,Man,Right,
,,,,,,,,,,,,,,,,,502,19,Man,Right,0,35,0.4,2,180,0,0,0.38178809999953955,['y'],0.4553297999991628,1.994,704.2355592999993,,,,,502,19,Man,Right,
,,,,,,,,,,,,,,,,,502,19,Man,Right,0,57,0.15,2,0,180,180,0.7513112000015099,['n'],0.5430680000026769,1.27,709.4523241999996,,,,,502,19,Man,Right,
,,,,,,,,,,,,,,,,,502,19,Man,Right,0,59,0.15,2,180,0,180,1.4193833999997878,['n'],2.2321248999978707,1.224,716.0362013999984,,,,,502,19,Man,Right,
,,,,,,,,,,,,,,,,,502,19,Man,Right,0,11,0.4,2,180,0,0,0.3637632999998459,['y'],0.36700460000065505,1.6320000000000001,719.319563099998,,,,,502,19,Man,Right,
,,,,,,,,,,,,,,,,,502,19,Man,Right,0,6,1,1,180,-,0,0.41916850000052364,['y'],0.5596162000001641,1.798,722.7693910999988,,,,,502,19,Man,Right,
,,,,,,,,,,,,,,,,,502,19,Man,Right,0,12,0.4,1,0,-,180,0.3377634999997099,['y'],0.6154099000013957,1.812,726.4030912999988,,,,,502,19,Man,Right,
,,,,,,,,,,,,,,,,,502,19,Man,Right,0,51,0.15,2,180,0,180,0.5124718000006396,['n'],0.5994840000021213,1.6600000000000001,730.2522845999993,,,,,502,19,Man,Right,
,,,,,,,,,,,,,,,,,502,19,Man,Right,0,61,0.15,2,0,180,180,0.4230193000003055,['n'],0.7839551999968535,1.268,734.5689319999983,,,,,502,19,Man,Right,
,,,,,,,,,,,,,,,,,502,19,Man,Right,0,2,1,1,180,-,0,2.9160345000018424,['y'],0.6563308000004326,1.712,741.2691207999997,,,,,502,19,Man,Right,
,,,,,,,,,,,,,,,,,502,19,Man,Right,0,29,0.4,2,0,180,180,0.6968024999987392,['y'],0.527667599999404,1.8,745.0022480999978,,,,,502,19,Man,Right,
,,,,,,,,,,,,,,,,,502,19,Man,Right,0,38,0.4,1,180,-,180,0.747217100000853,['n'],0.8957574999985809,1.8,745.0022480999978,,,,,502,19,Man,Right,
,,,,,,,,,,,,,,,,,502,19,Man,Right,0,27,0.4,2,180,0,0,2.1946496999989904,['y'],0.44728680000116583,1.996,756.1023170000008,,,,,502,19,Man,Right,
,,,,,,,,,,,,,,,,,502,19,Man,Right,0,36,0.4,1,0,-,0,0.8251490000002377,['n'],0.8317145000000892,1.996,756.1023170000008,,,,,502,19,Man,Right,
,,,,,,,,,,,,,,,,,502,19,Man,Right,0,41,0.4,2,0,180,0,1.5429256000024907,['y'],0.93528150000202,1.272,766.1523004999981,,,,,502,19,Man,Right,
,,,,,,,,,,,,,,,,,502,19,Man,Right,0,77,0.15,2,0,180,180,1.1424732000014046,['n'],14.26408960000117,1.274,786.0187585999993,,,,,502,19,Man,Right,
,,,,,,,,,,,,,,,,,502,19,Man,Right,0,58,0.15,1,180,-,180,0.3994010000023991,['y'],1.2074463999997533,1.224,790.385069699998,,,,,502,19,Man,Right,
,,,,,,,,,,,,,,,,,502,19,Man,Right,0,43,0.4,2,180,0,0,0.3374154000011913,['y'],0.40768259999822476,1.824,793.8025951999989,,,,,502,19,Man,Right,
,,,,,,,,,,,,,,,,,502,19,Man,Right,0,63,0.15,2,180,0,0,1.053481399998418,['y'],0.775732699999935,1.51,800.5705827999991,,,,,502,19,Man,Right,
,,,,,,,,,,,,,,,,,502,19,Man,Right,0,23,0.4,2,180,0,0,0.4673354000005929,['y'],0.607034399999975,1.79,804.7186398999984,,,,,502,19,Man,Right,
,,,,,,,,,,,,,,,,,502,19,Man,Right,0,69,0.15,2,0,180,180,0.534024299999146,['n'],1.0317644000024302,1.166,809.8357656000007,,,,,502,19,Man,Right,
,,,,,,,,,,,,,,,,,502,19,Man,Right,0,54,0.15,1,180,-,180,0.4365887999992992,['n'],2.7037066999982926,1.25,823.7862177999996,,,,,502,19,Man,Right,
,,,,,,,,,,,,,,,,,502,19,Man,Right,0,26,0.4,1,180,-,180,0.5638135999979568,['n'],7.871093500001734,1.218,835.7696706999996,,,,,502,19,Man,Right,
,,,,,,,,,,,,,,,,,502,19,Man,Right,0,1,1,2,0,180,180,0.38303430000087246,['y'],0.9116260999981023,1.774,839.8865412999985,,,,,502,19,Man,Right,
,,,,,,,,,,,,,,,,,502,19,Man,Right,0,72,0.15,1,0,-,180,0.9414155999984359,['n'],1.2311717000011413,1.714,846.068662499998,,,,,502,19,Man,Right,
,,,,,,,,,,,,,,,,,502,19,Man,Right,0,34,0.4,1,180,-,0,0.27843750000101863,['y'],0.31959640000059153,1.6280000000000001,849.7523306999974,,,,,502,19,Man,Right,
,,,,,,,,,,,,,,,,,502,19,Man,Right,0,46,0.15,1,180,-,180,0.5114117999983137,['n'],0.4792362000007415,1.282,853.4687147000004,,,,,502,19,Man,Right,
,,,,,,,,,,,,,,,,,502,19,Man,Right,0,78,0.15,1,180,-,180,0.46214060000056634,['y'],1.38354260000051,1.24,859.8358501000002,,,,,502,19,Man,Right,
,,,,,,,,,,,,,,,,,502,19,Man,Right,0,65,0.15,2,0,180,0,0.536276300001191,['n'],0.8071528000000399,1.324,865.2356146999991,,,,,502,19,Man,Right,
,,,,,,,,,,,,,,,,,502,19,Man,Right,0,9,0.4,2,0,180,180,0.38193820000014966,['y'],0.47166709999874,2.0,869.0860616999998,,,,,502,19,Man,Right,
,,,,,,,,,,,,,,,,,502,19,Man,Right,0,39,0.4,2,180,0,0,2.101708399997733,['y'],0.7678678999982367,2.0,874.4027442999977,,,,,502,19,Man,Right,
,,,,,,,,,,,,,,,,,502,19,Man,Right,0,67,0.15,2,180,0,0,2.122751700000663,['y'],0.8875091999980214,1.426,880.6363153999991,,,,,502,19,Man,Right,
,,,,,,,,,,,,,,,,,502,19,Man,Right,0,71,0.15,2,180,0,0,0.5918354999994335,['y'],0.8395378000022902,1.286,890.8024746999981,,,,,502,19,Man,Right,
,,,,,,,,,,,,,,,,,502,19,Man,Right,0,48,0.15,1,0,-,180,0.5243202000019664,['n'],48.20771579999928,1.0,944.4864204000005,,,,,502,19,Man,Right,
,,,,,,,,,,,,,,,,,502,19,Man,Right,0,25,0.4,2,0,180,180,0.3680120999997598,['y'],1.8400519999995595,1.77,949.2863933000008,,,,,502,19,Man,Right,
,,,,,,,,,,,,,,,,,502,19,Man,Right,0,31,0.4,2,180,0,0,0.2819971000026271,['y'],1.1834673999983352,1.858,953.3523843000003,,,,,502,19,Man,Right,
,,,,,,,,,,,,,,,,,502,19,Man,Right,0,44,0.15,1,0,-,180,0.45887450000009267,['n'],1.0315520999974979,1.696,960.5029536000002,,,,,502,19,Man,Right,
,,,,,,,,,,,,,,,,,502,19,Man,Right,0,76,0.15,1,0,-,180,0.45623230000273907,['n'],0.7036693000009109,1.296,964.6861605999984,,,,,502,19,Man,Right,
,,,,,,,,,,,,,,,,,502,19,Man,Right,0,22,0.4,1,180,-,0,2.396585499998764,['n'],1.5510594000006677,1.182,971.1530418999973,,,,,502,19,Man,Right,
,,,,,,,,,,,,,,,,,502,19,Man,Right,0,73,0.15,2,0,180,180,0.45167659999788157,['n'],1.0474692999996478,1.008,975.4194556000002,,,,,502,19,Man,Right,
,,,,,,,,,,,,,,,,,502,19,Man,Right,0,52,0.15,1,0,-,180,0.9445651000023645,['n'],6.279785999999149,1.244,985.2198248999994,,,,,502,19,Man,Right,
,,,,,,,,,,,,,,,,,502,19,Man,Right,0,5,1,2,0,180,180,1.1096796999991057,['y'],1.0079339999974763,2.0,989.9523071999974,,,,,502,19,Man,Right,
,,,,,,,,,,,,,,,,,502,19,Man,Right,0,16,0.4,1,0,-,0,3.2770216000026267,['n'],0.9435647999998764,1.0,997.5358696999974,,,,,502,19,Man,Right,
,,,,,,,,,,,,,,,,,502,19,Man,Right,0,4,1,1,0,-,0,1.1076331000003847,['n'],0.6236482000022079,1.762,1001.768540699999,,,,,502,19,Man,Right,
,,,,,,,,,,,,,,,,,502,19,Man,Right,0,20,0.4,1,0,-,180,0.8591052000010677,['n'],1.591514300002018,1.012,1006.7198204999986,,,,,502,19,Man,Right,
,,,,,,,,,,,,,,,,,502,19,Man,Right,0,17,0.4,2,0,180,180,0.3259923000005074,['y'],0.471230099999957,1.996,1010.0865844,,,,,502,19,Man,Right,
,,,,,,,,,,,,,,,,,502,19,Man,Right,0,14,0.4,1,180,-,0,0.687810300001729,['y'],0.63934750000044,1.704,1013.9191906999986,,,,,502,19,Man,Right,
,,,,,,,,,,,,,,,,,502,19,Man,Right,0,18,0.4,1,180,-,0,0.6225191999983508,['y'],0.5437753000005614,1.806,1017.402202199999,,,,,502,19,Man,Right,
,,,,,,,,,,,,,,,,,502,19,Man,Right,0,75,0.15,2,180,0,180,1.049991100000625,['n'],1.1914958000015758,1.124,1022.1859196000005,,,,,502,19,Man,Right,
,,,,,,,,,,,,,,,,,502,19,Man,Right,0,49,0.15,2,0,180,180,0.5558898999988742,['n'],1.1988162000016018,1.258,1026.6862036999992,,,,,502,19,Man,Right,
,,,,,,,,,,,,,,,,,502,19,Man,Right,0,37,0.4,2,0,180,180,0.7988922000004095,['n'],0.6158859000024677,1.192,1031.052580399999,,,,,502,19,Man,Right,
,,,,,,,,,,,,,,,,,502,19,Man,Right,0,79,0.15,2,180,0,0,0.39978289999999106,['y'],3.183660400001827,1.238,1037.2362551999977,,,,,502,19,Man,Right,
,,,,,,,,,,,,,,,,,502,19,Man,Right,0,8,0.4,1,0,-,180,1.0424837999999,['y'],2.047696599998744,1.242,1042.5864156999996,,,,,502,19,Man,Right,
,,,,,,,,,,,,,,,,,502,19,Man,Right,0,66,0.15,1,180,-,0,2.146941599999991,['n'],0.5758310999990499,1.204,1050.3364384999986,,,,,502,19,Man,Right,
,,,,,,,,,,,,,,,,,502,19,Man,Right,0,55,0.15,2,180,0,180,0.35410179999962565,['n'],3.7754243000017595,1.0,1058.6543324999984,,,,,502,19,Man,Right,
,,,,,,,,,,,,,,,,,502,19,Man,Right,0,62,0.15,1,180,-,180,0.9679795999982161,['n'],0.54382059999989,1.022,1062.7029985000008,,,,,502,19,Man,Right,
,,,,,,,,,,,,,,,,,502,19,Man,Right,0,33,0.4,2,0,180,180,1.1737690000009025,['y'],0.2953589999997348,1.712,1066.6860015999991,,,,,502,19,Man,Right,
,,,,,,,,,,,,,,,,,502,19,Man,Right,0,68,0.15,1,0,-,0,0.4128741999993508,['n'],0.6153073000023142,1.01,1070.4697644999978,,,,,502,19,Man,Right,
,,,,,,,,,,,,,,,,,502,19,Man,Right,0,24,0.4,1,0,-,180,3.1172396000001754,['n'],0.3918940000003204,1.0,1077.469573399998,,,,,502,19,Man,Right,
,,,,,,,,,,,,,,,,,502,19,Man,Right,0,42,0.4,1,180,-,180,0.6981335999989824,['n'],1.015384999998787,1.686,1083.3199413999973,,,,,502,19,Man,Right,
,,,,,,,,,,,,,,,,,502,19,Man,Right,0,50,0.15,1,180,-,0,0.4459865999997419,['y'],3.5194346999996924,1.0,1092.9532839999993,,,,,502,19,Man,Right,
,,,,,,,,,,,,,,,,,502,19,Man,Right,1,10,0.4,1,180,-,180,3.784727300000668,['n'],0.9752630000002682,1.004,1125.8026143999996,62.5,72.5,67.5,,502,19,Man,Right,
,,,,,,,,,,,,,,,,,502,19,Man,Right,1,26,0.4,1,180,-,180,0.5128543999999238,['n'],0.5832191000008606,1.01,1130.1691199999987,,,,,502,19,Man,Right,
,,,,,,,,,,,,,,,,,502,19,Man,Right,1,39,0.4,2,180,0,0,0.8466649999973015,['y'],0.3592973999984679,1.846,1134.6194025000004,,,,,502,19,Man,Right,
,,,,,,,,,,,,,,,,,502,19,Man,Right,1,12,0.4,1,0,-,0,0.874390000000858,['n'],0.3118343999994977,1.048,1139.1196672000005,,,,,502,19,Man,Right,
,,,,,,,,,,,,,,,,,502,19,Man,Right,1,65,0.15,2,0,180,180,1.3207200999968336,['n'],4.3033376000021235,1.246,1147.3532108,,,,,502,19,Man,Right,
,,,,,,,,,,,,,,,,,502,19,Man,Right,1,11,0.4,2,180,0,0,0.7162917999994534,['y'],0.7198883999990358,1.6560000000000001,1151.9033502999991,,,,,502,19,Man,Right,
,,,,,,,,,,,,,,,,,502,19,Man,Right,1,56,0.15,1,0,-,180,0.395787500001461,['n'],0.4637758999997459,1.254,1155.3032903999992,,,,,502,19,Man,Right,
,,,,,,,,,,,,,,,,,502,19,Man,Right,1,6,1,1,180,-,180,0.7345204000012018,['n'],1.1274499999999534,1.998,1160.6362461999997,,,,,502,19,Man,Right,
,,,,,,,,,,,,,,,,,502,19,Man,Right,1,43,0.4,2,180,0,0,1.0809860000008484,['n'],0.4800834000016039,1.714,1164.6854109999986,,,,,502,19,Man,Right,
,,,,,,,,,,,,,,,,,502,19,Man,Right,1,22,0.4,1,180,-,180,0.6783978000021307,['n'],0.5118141999992076,1.6680000000000001,1169.1365248999973,,,,,502,19,Man,Right,
,,,,,,,,,,,,,,,,,502,19,Man,Right,1,31,0.4,2,180,0,0,0.6924130000006699,['y'],0.44701419999910286,1.774,1172.7197166999977,,,,,502,19,Man,Right,
,,,,,,,,,,,,,,,,,502,19,Man,Right,1,49,0.15,2,0,180,180,0.413061999999627,['n'],0.5191081999982998,1.0,1176.4357898999988,,,,,502,19,Man,Right,
,,,,,,,,,,,,,,,,,502,19,Man,Right,1,1,1,2,0,180,180,1.0828211000007286,['y'],0.44611150000127964,1.98,1180.4868404000008,,,,,502,19,Man,Right,
,,,,,,,,,,,,,,,,,502,19,Man,Right,1,58,0.15,1,180,-,0,0.36533649999910267,['n'],0.4552889000005962,1.018,1184.1190102,,,,,502,19,Man,Right,
,,,,,,,,,,,,,,,,,502,19,Man,Right,1,45,0.15,2,0,180,180,2.0511704000018653,['y'],0.3917403999985254,1.71,1189.0519516999993,,,,,502,19,Man,Right,
,,,,,,,,,,,,,,,,,502,19,Man,Right,1,59,0.15,2,180,0,180,0.4007941000018036,['n'],0.5597895999999309,1.002,1192.4366994999982,,,,,502,19,Man,Right,
,,,,,,,,,,,,,,,,,502,19,Man,Right,1,19,0.4,2,180,0,0,0.5043153999977221,['y'],0.35146370000074967,1.714,1196.1030648999986,,,,,502,19,Man,Right,
,,,,,,,,,,,,,,,,,502,19,Man,Right,1,61,0.15,2,0,180,180,0.5022683999995934,['n'],1.0634900000004563,1.02,1200.4198034,,,,,502,19,Man,Right,
,,,,,,,,,,,,,,,,,502,19,Man,Right,1,28,0.4,1,0,-,180,0.49869789999866043,['n'],0.4711199999983364,1.022,1204.1195765999983,,,,,502,19,Man,Right,
,,,,,,,,,,,,,,,,,502,19,Man,Right,1,78,0.15,1,180,-,180,0.35003169999981765,['n'],0.3593799999980547,1.0,1207.5867390999992,,,,,502,19,Man,Right,
,,,,,,,,,,,,,,,,,502,19,Man,Right,1,2,1,1,180,-,180,0.8208957999995619,['n'],1.5916135000006761,1.75,1212.8040631000003,,,,,502,19,Man,Right,
,,,,,,,,,,,,,,,,,502,19,Man,Right,1,36,0.4,1,0,-,180,1.4248594000018784,['n'],0.4157779999986815,1.02,1217.1523928999995,,,,,502,19,Man,Right,
,,,,,,,,,,,,,,,,,502,19,Man,Right,1,15,0.4,2,180,0,0,0.45664269999906537,['y'],0.3671552999985579,1.87,1220.5030186999975,,,,,502,19,Man,Right,
,,,,,,,,,,,,,,,,,502,19,Man,Right,1,47,0.15,2,180,0,180,0.5119439000009152,['n'],1.3596658000024036,1.004,1225.0697741000004,,,,,502,19,Man,Right,
,,,,,,,,,,,,,,,,,502,19,Man,Right,1,35,0.4,2,180,0,0,0.45667390000016894,['y'],0.7194717999991553,1.728,1228.9528398000002,,,,,502,19,Man,Right,
,,,,,,,,,,,,,,,,,502,19,Man,Right,1,67,0.15,2,180,0,180,1.1566334999988612,['n'],0.5993396000012581,1.04,1233.5027879000008,,,,,502,19,Man,Right,
,,,,,,,,,,,,,,,,,502,19,Man,Right,1,53,0.15,2,0,180,180,3.0112947999987227,['n'],1.5516001000032702,1.028,1241.0369105999998,,,,,502,19,Man,Right,
,,,,,,,,,,,,,,,,,502,19,Man,Right,1,73,0.15,2,0,180,0,17.440380000000005,['n'],0.4552079999994021,1.0,1261.7528894999996,,,,,502,19,Man,Right,
,,,,,,,,,,,,,,,,,502,19,Man,Right,1,30,0.4,1,180,-,0,0.38258199999836506,['y'],0.6555112000023655,1.704,1265.6694411999997,,,,,502,19,Man,Right,
,,,,,,,,,,,,,,,,,502,19,Man,Right,1,52,0.15,1,0,-,180,0.24709159999838448,['n'],0.40806220000013127,1.0,1268.6695056999997,,,,,502,19,Man,Right,
,,,,,,,,,,,,,,,,,502,19,Man,Right,1,71,0.15,2,180,0,180,1.0178024000015284,['n'],0.5115879000004497,1.018,1272.6038846999982,,,,,502,19,Man,Right,
,,,,,,,,,,,,,,,,,502,19,Man,Right,1,79,0.15,2,180,0,180,0.4199740000003658,['n'],0.34347319999869796,1.018,1275.9542512000007,,,,,502,19,Man,Right,
,,,,,,,,,,,,,,,,,502,19,Man,Right,1,54,0.15,1,180,-,180,0.2593444999984058,['n'],0.49498379999931785,1.006,1279.7533719999992,,,,,502,19,Man,Right,
,,,,,,,,,,,,,,,,,502,19,Man,Right,1,14,0.4,1,180,-,180,0.4513193999991927,['n'],0.4637844999997469,1.0,1283.2196640000002,,,,,502,19,Man,Right,
,,,,,,,,,,,,,,,,,502,19,Man,Right,1,66,0.15,1,180,-,180,0.8719555999996373,['n'],0.6233988000021782,1.012,1287.7197438999974,,,,,502,19,Man,Right,
,,,,,,,,,,,,,,,,,502,19,Man,Right,1,68,0.15,1,0,-,180,0.4420910999979242,['n'],0.38375400000222726,1.008,1291.368880599999,,,,,502,19,Man,Right,
,,,,,,,,,,,,,,,,,502,19,Man,Right,1,8,0.4,1,0,-,180,0.8338016000016069,['n'],0.37529019999783486,1.034,1295.153008199999,,,,,502,19,Man,Right,
,,,,,,,,,,,,,,,,,502,19,Man,Right,1,29,0.4,2,0,180,180,0.8780219000000216,['y'],0.4075066000004881,1.744,1299.4190847999998,,,,,502,19,Man,Right,
,,,,,,,,,,,,,,,,,502,19,Man,Right,1,21,0.4,2,0,180,180,0.6330849000005401,['y'],0.607232299997122,1.694,1303.0694839999996,,,,,502,19,Man,Right,
,,,,,,,,,,,,,,,,,502,19,Man,Right,1,42,0.4,1,180,-,0,0.43888829999923473,['y'],0.48760720000063884,1.718,1306.569996899998,,,,,502,19,Man,Right,
,,,,,,,,,,,,,,,,,502,19,Man,Right,1,7,1,2,180,0,0,0.7713621999973839,['y'],0.7751188999973238,1.99,1310.5208526999995,,,,,502,19,Man,Right,
,,,,,,,,,,,,,,,,,502,19,Man,Right,1,72,0.15,1,0,-,180,1.8385367000009865,['n'],0.2953759000010905,1.03,1315.1528438999994,,,,,502,19,Man,Right,
,,,,,,,,,,,,,,,,,502,19,Man,Right,1,60,0.15,1,0,-,180,0.37991409999813186,['n'],0.5273290000004636,1.0,1318.9191826999995,,,,,502,19,Man,Right,
,,,,,,,,,,,,,,,,,502,19,Man,Right,1,13,0.4,2,0,180,180,1.2955244000004313,['y'],2.2796662999971886,2.0,1325.2526844999993,,,,,502,19,Man,Right,
,,,,,,,,,,,,,,,,,502,19,Man,Right,1,64,0.15,1,0,-,0,0.5819847000020673,['n'],2.8158851000007417,1.296,1331.9535247999993,,,,,502,19,Man,Right,
,,,,,,,,,,,,,,,,,502,19,Man,Right,1,20,0.4,1,0,-,180,0.3016436999969301,['y'],0.40016319999995176,1.732,1335.1695364000007,,,,,502,19,Man,Right,
,,,,,,,,,,,,,,,,,502,19,Man,Right,1,27,0.4,2,180,0,0,0.3662481999999727,['y'],0.319640800000343,1.744,1338.1367804000001,,,,,502,19,Man,Right,
,,,,,,,,,,,,,,,,,502,19,Man,Right,1,76,0.15,1,0,-,180,0.7181834000002709,['n'],0.6713866999998572,1.718,1343.469280199999,,,,,502,19,Man,Right,
,,,,,,,,,,,,,,,,,502,19,Man,Right,1,44,0.15,1,0,-,0,2.594463599998562,['y'],1.3831948000006378,1.6560000000000001,1350.6366393999997,,,,,502,19,Man,Right,
,,,,,,,,,,,,,,,,,502,19,Man,Right,1,34,0.4,1,180,-,0,1.0519223999981477,['y'],0.3995954000019992,1.68,1356.3866725999978,,,,,502,19,Man,Right,
,,,,,,,,,,,,,,,,,502,19,Man,Right,1,25,0.4,2,0,180,180,0.41354060000230675,['y'],0.3114843999974255,1.834,1359.6191743999989,,,,,502,19,Man,Right,
,,,,,,,,,,,,,,,,,502,19,Man,Right,1,18,0.4,1,180,-,180,1.7381722999998601,['n'],0.8313787000006414,1.744,1365.9364313999977,,,,,502,19,Man,Right,
,,,,,,,,,,,,,,,,,502,19,Man,Right,1,46,0.15,1,180,-,180,0.4041785000008531,['n'],15.311528199999884,1.0,1385.0525536999994,,,,,502,19,Man,Right,
,,,,,,,,,,,,,,,,,502,19,Man,Right,1,3,1,2,180,0,0,0.39640179999696556,['y'],0.3276898000003712,2.0,1389.1025690999995,,,,,502,19,Man,Right,
,,,,,,,,,,,,,,,,,502,19,Man,Right,1,69,0.15,2,0,180,180,0.4399866000021575,['n'],0.29581820000021253,1.04,1392.1861430999998,,,,,502,19,Man,Right,
,,,,,,,,,,,,,,,,,502,19,Man,Right,1,74,0.15,1,180,-,180,0.659724200002529,['n'],0.6635619000007864,1.004,1395.903059199998,,,,,502,19,Man,Right,
,,,,,,,,,,,,,,,,,502,19,Man,Right,1,5,1,2,0,180,180,0.448157099999662,['y'],0.37558829999761656,2.0,1399.1530688999992,,,,,502,19,Man,Right,
,,,,,,,,,,,,,,,,,502,19,Man,Right,1,70,0.15,1,180,-,180,0.30218130000139354,['n'],0.7116850999991584,1.702,1405.1200671000006,,,,,502,19,Man,Right,
,,,,,,,,,,,,,,,,,502,19,Man,Right,1,24,0.4,1,0,-,0,1.19072210000013,['n'],0.671513799999957,1.712,1409.9547906999978,,,,,502,19,Man,Right,
,,,,,,,,,,,,,,,,,502,19,Man,Right,1,40,0.4,1,0,-,180,0.7461495999996259,['n'],1.039145800001279,1.724,1414.1202310000008,,,,,502,19,Man,Right,
,,,,,,,,,,,,,,,,,502,19,Man,Right,1,63,0.15,2,180,0,180,1.4307804999989457,['n'],0.5113984999989043,1.766,1418.4361721999994,,,,,502,19,Man,Right,
,,,,,,,,,,,,,,,,,502,19,Man,Right,1,62,0.15,1,180,-,0,0.3875441999989562,['n'],0.7992489000025671,1.798,1422.0858836999978,,,,,502,19,Man,Right,
,,,,,,,,,,,,,,,,,502,19,Man,Right,1,57,0.15,2,0,180,180,0.6484466000001703,['n'],0.5033330999976897,1.772,1426.4694228999979,,,,,502,19,Man,Right,
,,,,,,,,,,,,,,,,,502,19,Man,Right,1,9,0.4,2,0,180,180,0.8730384000009508,['y'],0.43183370000042487,1.6019999999999999,1430.736355099998,,,,,502,19,Man,Right,
,,,,,,,,,,,,,,,,,502,19,Man,Right,1,0,1,1,0,-,0,0.5601652000004833,['n'],0.58292849999998,1.77,1434.3030145999983,,,,,502,19,Man,Right,
,,,,,,,,,,,,,,,,,502,19,Man,Right,1,51,0.15,2,180,0,0,0.5198623999967822,['n'],0.5993447000000742,1.732,1438.0029138999998,,,,,502,19,Man,Right,
,,,,,,,,,,,,,,,,,502,19,Man,Right,1,50,0.15,1,180,-,180,0.5647535999996762,['n'],0.8872979000007035,1.77,1441.9528984999997,,,,,502,19,Man,Right,
,,,,,,,,,,,,,,,,,502,19,Man,Right,1,17,0.4,2,0,180,180,0.4949858999971184,['y'],0.8477411000021675,1.736,1447.0367764000002,,,,,502,19,Man,Right,
,,,,,,,,,,,,,,,,,502,19,Man,Right,1,32,0.4,1,0,-,0,0.5335864000007859,['n'],0.4659570000003441,1.74,1450.4356559999978,,,,,502,19,Man,Right,
,,,,,,,,,,,,,,,,,502,19,Man,Right,1,77,0.15,2,0,180,180,0.43463580000025104,['n'],0.7836819000003743,1.758,1454.1359238000005,,,,,502,19,Man,Right,
,,,,,,,,,,,,,,,,,502,19,Man,Right,1,55,0.15,2,180,0,180,4.691152299998066,['n'],0.41534110000065994,1.006,1462.0030184999996,,,,,502,19,Man,Right,
,,,,,,,,,,,,,,,,,502,19,Man,Right,1,23,0.4,2,180,0,0,0.5369229999996605,['y'],0.5114322000008542,1.77,1466.136308199999,,,,,502,19,Man,Right,
,,,,,,,,,,,,,,,,,502,19,Man,Right,1,37,0.4,2,0,180,180,0.4643366000018432,['y'],2.207322700000077,1.734,1473.1701993999995,,,,,502,19,Man,Right,
,,,,,,,,,,,,,,,,,502,19,Man,Right,1,4,1,1,0,-,0,0.45012929999938933,['n'],0.43144699999902514,1.69,1476.8863754999984,,,,,502,19,Man,Right,
,,,,,,,,,,,,,,,,,502,19,Man,Right,1,75,0.15,2,180,0,180,0.2662808999994013,['n'],0.43023469999752706,1.72,1480.0698685999996,,,,,502,19,Man,Right,
,,,,,,,,,,,,,,,,,502,19,Man,Right,1,48,0.15,1,0,-,180,0.8568759000008868,['n'],0.9432027000002563,1.226,1484.4536445999984,,,,,502,19,Man,Right,
,,,,,,,,,,,,,,,,,502,19,Man,Right,1,41,0.4,2,0,180,180,0.6892375999996148,['y'],0.5273386999979266,1.706,1488.1031282000004,,,,,502,19,Man,Right,
,,,,,,,,,,,,,,,,,502,19,Man,Right,1,16,0.4,1,0,-,180,0.3779983999993419,['y'],0.5193085999999312,1.684,1491.3693619999976,,,,,502,19,Man,Right,
,,,,,,,,,,,,,,,,,502,19,Man,Right,1,38,0.4,1,180,-,0,0.3420970999977726,['y'],0.783260699998209,1.714,1494.8529922999987,,,,,502,19,Man,Right,
,,,,,,,,,,,,,,,,,502,19,Man,Right,1,33,0.4,2,0,180,180,1.1942218000003777,['y'],0.7911389000000781,1.718,1499.1697045,,,,,502,19,Man,Right,
,,,,,,,,,,,,,,,,,502,19,Man,Right,2,43,0.4,2,180,0,0,0.5319986000031349,['y'],0.37636420000126236,1.768,1519.5361650999985,65.0,82.5,55.0,,502,19,Man,Right,
,,,,,,,,,,,,,,,,,502,19,Man,Right,2,0,1,1,0,-,180,0.32810109999991255,['y'],1.415510599999834,1.782,1525.7530751999984,,,,,502,19,Man,Right,
,,,,,,,,,,,,,,,,,502,19,Man,Right,2,67,0.15,2,180,0,0,0.5566347000021779,['y'],0.34322769999926095,1.774,1529.1198858999996,,,,,502,19,Man,Right,
,,,,,,,,,,,,,,,,,502,19,Man,Right,2,53,0.15,2,0,180,180,0.6008460999983072,['n'],0.4872622000002593,1.758,1532.8035974999984,,,,,502,19,Man,Right,
,,,,,,,,,,,,,,,,,502,19,Man,Right,2,6,1,1,180,-,180,0.5548773999980767,['n'],0.7352704000004451,1.814,1536.636684099998,,,,,502,19,Man,Right,
,,,,,,,,,,,,,,,,,502,19,Man,Right,2,15,0.4,2,180,0,0,0.5828250999984448,['y'],0.46184120000179973,1.782,1540.3869639999975,,,,,502,19,Man,Right,
,,,,,,,,,,,,,,,,,502,19,Man,Right,2,63,0.15,2,180,0,0,0.8931482000007236,['y'],0.8156944000002113,1.718,1544.3195990999993,,,,,502,19,Man,Right,
,,,,,,,,,,,,,,,,,502,19,Man,Right,2,18,0.4,1,180,-,180,4.5442963000023155,['n'],20.848167700001795,1.0,1574.8365306999985,,,,,502,19,Man,Right,
,,,,,,,,,,,,,,,,,502,19,Man,Right,2,31,0.4,2,180,0,0,0.8365584000021045,['y'],0.5272526000007929,1.724,1579.5191900999998,,,,,502,19,Man,Right,
,,,,,,,,,,,,,,,,,502,19,Man,Right,2,56,0.15,1,0,-,180,0.31876529999863124,['y'],1.4559133000002475,1.73,1583.7030950000008,,,,,502,19,Man,Right,
,,,,,,,,,,,,,,,,,502,19,Man,Right,2,79,0.15,2,180,0,180,0.3312521999978344,['n'],0.38318639999852167,1.69,1586.7693032999996,,,,,502,19,Man,Right,
,,,,,,,,,,,,,,,,,502,19,Man,Right,2,10,0.4,1,180,-,180,0.28689250000024913,['n'],0.6790300000029674,1.694,1589.9869526999973,,,,,502,19,Man,Right,
,,,,,,,,,,,,,,,,,502,19,Man,Right,2,60,0.15,1,0,-,0,0.17410490000111167,['n'],0.5119282000014209,1.694,1592.8034215000007,,,,,502,19,Man,Right,
,,,,,,,,,,,,,,,,,502,19,Man,Right,2,16,0.4,1,0,-,180,0.2441326999978628,['n'],0.47202630000174395,1.694,1596.0200425000003,,,,,502,19,Man,Right,
,,,,,,,,,,,,,,,,,502,19,Man,Right,2,64,0.15,1,0,-,180,0.5462584999986575,['n'],0.39179839999997057,1.694,1599.2366600999994,,,,,502,19,Man,Right,
,,,,,,,,,,,,,,,,,502,19,Man,Right,2,55,0.15,2,180,0,180,0.7701756999995268,['n'],0.5439354000009189,1.694,1602.8199318999978,,,,,502,19,Man,Right,
,,,,,,,,,,,,,,,,,502,19,Man,Right,2,51,0.15,2,180,0,180,0.7732580999982019,['n'],0.5041741999993974,1.694,1606.2863015000003,,,,,502,19,Man,Right,
,,,,,,,,,,,,,,,,,502,19,Man,Right,2,48,0.15,1,0,-,180,2.0226262000032875,['n'],0.33568190000005416,1.74,1611.2864805999998,,,,,502,19,Man,Right,
,,,,,,,,,,,,,,,,,502,19,Man,Right,2,2,1,1,180,-,180,0.9328071999989334,['n'],1.3278154999970866,1.996,1617.5034419999974,,,,,502,19,Man,Right,
,,,,,,,,,,,,,,,,,502,19,Man,Right,2,36,0.4,1,0,-,180,1.240441699999792,['n'],0.831785200000013,1.756,1621.7034583999994,,,,,502,19,Man,Right,
,,,,,,,,,,,,,,,,,502,19,Man,Right,2,44,0.15,1,0,-,180,0.39880489999995916,['n'],0.41586820000156877,1.756,1624.7031442999978,,,,,502,19,Man,Right,
,,,,,,,,,,,,,,,,,502,19,Man,Right,2,62,0.15,1,180,-,180,0.5908032999977877,['n'],0.9199239000008674,1.756,1628.3198553999973,,,,,502,19,Man,Right,
,,,,,,,,,,,,,,,,,502,19,Man,Right,2,38,0.4,1,180,-,180,1.750444499997684,['n'],0.48632070000167005,1.99,1633.3027965,,,,,502,19,Man,Right,
,,,,,,,,,,,,,,,,,502,19,Man,Right,2,68,0.15,1,0,-,180,0.30351909999808413,['n'],0.3672009000001708,1.74,1636.153211599998,,,,,502,19,Man,Right,
,,,,,,,,,,,,,,,,,502,19,Man,Right,2,42,0.4,1,180,-,180,0.5734303999997792,['n'],0.7759041999997862,1.74,1639.7706302000006,,,,,502,19,Man,Right,
,,,,,,,,,,,,,,,,,502,19,Man,Right,2,32,0.4,1,0,-,180,1.4935170999997354,['y'],0.44820310000068275,1.762,1644.8858512999977,,,,,502,19,Man,Right,
,,,,,,,,,,,,,,,,,502,19,Man,Right,2,78,0.15,1,180,-,180,0.9136761000008846,['n'],0.3193018999991182,1.75,1648.4025688000002,,,,,502,19,Man,Right,
,,,,,,,,,,,,,,,,,502,19,Man,Right,2,14,0.4,1,180,-,180,0.8185995999992883,['n'],0.7197149999992689,1.956,1652.3859004999977,,,,,502,19,Man,Right,
,,,,,,,,,,,,,,,,,502,19,Man,Right,2,77,0.15,2,0,180,0,1.223925700000109,['n'],1.1831184000002395,1.746,1656.9195173999979,,,,,502,19,Man,Right,
,,,,,,,,,,,,,,,,,502,19,Man,Right,2,21,0.4,2,0,180,180,0.699105600000621,['n'],0.6416824000007182,1.746,1660.4699073999982,,,,,502,19,Man,Right,
,,,,,,,,,,,,,,,,,502,19,Man,Right,2,41,0.4,2,0,180,180,1.9831099000002723,['y'],0.5277945999987423,1.746,1665.3536026000002,,,,,502,19,Man,Right,
,,,,,,,,,,,,,,,,,502,19,Man,Right,2,13,0.4,2,0,180,180,0.5107111999968765,['y'],0.7837245000009716,2.0,1668.9701103000007,,,,,502,19,Man,Right,
,,,,,,,,,,,,,,,,,502,19,Man,Right,2,33,0.4,2,0,180,180,0.5670012000009592,['y'],0.3516591999978118,1.984,1672.3200457999992,,,,,502,19,Man,Right,
,,,,,,,,,,,,,,,,,502,19,Man,Right,2,75,0.15,2,180,0,180,0.40956220000225585,['n'],0.38333919999786303,1.722,1675.5029976999976,,,,,502,19,Man,Right,
,,,,,,,,,,,,,,,,,502,19,Man,Right,2,74,0.15,1,180,-,0,0.4478898000015761,['y'],9.247915299998567,1.2,1688.4374948000004,,,,,502,19,Man,Right,
,,,,,,,,,,,,,,,,,502,19,Man,Right,2,20,0.4,1,0,-,180,0.633564200001274,['n'],0.4435348000006343,1.76,1692.619928199998,,,,,502,19,Man,Right,
,,,,,,,,,,,,,,,,,502,19,Man,Right,2,40,0.4,1,0,-,180,0.2935537999983353,['n'],0.6871758999986923,1.728,1695.8027747999986,,,,,502,19,Man,Right,
,,,,,,,,,,,,,,,,,502,19,Man,Right,2,49,0.15,2,0,180,180,0.35398150000037276,['n'],0.5918716999985918,1.728,1698.9210291999989,,,,,502,19,Man,Right,
,,,,,,,,,,,,,,,,,502,19,Man,Right,2,4,1,1,0,-,0,0.566613300001336,['n'],0.7919470999986515,1.728,1702.5028996,,,,,502,19,Man,Right,
,,,,,,,,,,,,,,,,,502,19,Man,Right,2,29,0.4,2,0,180,180,0.5899804000000586,['n'],0.591890699997748,1.728,1705.9865919999975,,,,,502,19,Man,Right,
,,,,,,,,,,,,,,,,,502,19,Man,Right,2,12,0.4,1,0,-,0,0.603968999999779,['n'],0.5599655000005441,1.728,1709.3029024999996,,,,,502,19,Man,Right,
,,,,,,,,,,,,,,,,,502,19,Man,Right,2,70,0.15,1,180,-,180,1.2973538000005647,['n'],1.088014299999486,1.726,1713.8360007999981,,,,,502,19,Man,Right,
,,,,,,,,,,,,,,,,,502,19,Man,Right,2,59,0.15,2,180,0,180,0.7158826000013505,['n'],0.4242238999977417,1.726,1717.1193129999992,,,,,502,19,Man,Right,
,,,,,,,,,,,,,,,,,502,19,Man,Right,2,57,0.15,2,0,180,0,1.2326548999990337,['n'],0.48736819999976433,1.726,1720.9703967999994,,,,,502,19,Man,Right,
,,,,,,,,,,,,,,,,,502,19,Man,Right,2,9,0.4,2,0,180,180,1.0854204999996,['y'],0.5681537999989814,1.726,1724.9706683999975,,,,,502,19,Man,Right,
,,,,,,,,,,,,,,,,,502,19,Man,Right,2,8,0.4,1,0,-,180,0.34151740000015707,['n'],0.39980179999838583,1.726,1727.8539185000009,,,,,502,19,Man,Right,
,,,,,,,,,,,,,,,,,502,19,Man,Right,2,35,0.4,2,180,0,0,4.827838999997766,['y'],1.6558699000015622,1.75,1737.7026406999976,,,,,502,19,Man,Right,
,,,,,,,,,,,,,,,,,502,19,Man,Right,2,26,0.4,1,180,-,180,0.607865000001766,['n'],0.895613400000002,1.744,1746.7362629999989,,,,,502,19,Man,Right,
,,,,,,,,,,,,,,,,,502,19,Man,Right,2,46,0.15,1,180,-,180,0.3594427000025462,['n'],0.5678264999987732,1.744,1749.9706953999994,,,,,502,19,Man,Right,
,,,,,,,,,,,,,,,,,502,19,Man,Right,2,58,0.15,1,180,-,180,0.3990143999981228,['n'],0.5993848000034632,1.744,1753.0705187999993,,,,,502,19,Man,Right,
,,,,,,,,,,,,,,,,,502,19,Man,Right,2,52,0.15,1,0,-,0,0.5230078999993566,['n'],0.49610540000139736,1.744,1756.3202347999977,,,,,502,19,Man,Right,
,,,,,,,,,,,,,,,,,502,19,Man,Right,2,28,0.4,1,0,-,0,0.6258030999997573,['n'],0.6158914999978151,1.744,1759.586765199998,,,,,502,19,Man,Right,
,,,,,,,,,,,,,,,,,502,19,Man,Right,2,1,1,2,0,180,180,0.6846124999974563,['y'],0.5909437999980582,2.0,1763.4540243999982,,,,,502,19,Man,Right,
,,,,,,,,,,,,,,,,,502,19,Man,Right,2,23,0.4,2,180,0,0,1.036268600000767,['y'],0.7033121999993455,1.772,1767.5700588,,,,,502,19,Man,Right,
,,,,,,,,,,,,,,,,,502,19,Man,Right,2,7,1,2,180,0,0,0.6063480000011623,['y'],0.9913669999987178,2.0,1772.3700245,,,,,502,19,Man,Right,
,,,,,,,,,,,,,,,,,502,19,Man,Right,2,27,0.4,2,180,0,0,0.48782180000125663,['y'],3.19987509999919,1.766,1778.853046799999,,,,,502,19,Man,Right,
,,,,,,,,,,,,,,,,,502,19,Man,Right,2,19,0.4,2,180,0,0,0.3990387000012561,['y'],0.40741519999937736,1.82,1782.3875114999973,,,,,502,19,Man,Right,
,,,,,,,,,,,,,,,,,502,19,Man,Right,2,30,0.4,1,180,-,180,0.6379049999995914,['n'],2.047842899999523,1.776,1787.3700358999995,,,,,502,19,Man,Right,
,,,,,,,,,,,,,,,,,502,19,Man,Right,2,45,0.15,2,0,180,180,0.45226410000032047,['y'],6.455953900000168,1.776,1796.986552399998,,,,,502,19,Man,Right,
,,,,,,,,,,,,,,,,,502,19,Man,Right,2,11,0.4,2,180,0,0,0.3363714999977674,['y'],0.31988210000054096,1.776,1799.7707625000003,,,,,502,19,Man,Right,
,,,,,,,,,,,,,,,,,502,19,Man,Right,2,71,0.15,2,180,0,180,0.24009600000135833,['y'],2.063750000001164,1.776,1804.2203154999988,,,,,502,19,Man,Right,
,,,,,,,,,,,,,,,,,502,19,Man,Right,2,50,0.15,1,180,-,180,0.38937910000095144,['y'],0.5518837999989046,1.776,1807.3874441000007,,,,,502,19,Man,Right,
,,,,,,,,,,,,,,,,,502,19,Man,Right,2,3,1,2,180,0,0,0.509301800000685,['y'],0.4159516999970947,1.876,1810.7874274999995,,,,,502,19,Man,Right,
,,,,,,,,,,,,,,,,,502,19,Man,Right,2,69,0.15,2,0,180,180,0.21573630000057165,['n'],0.5915676999975403,1.734,1813.7206432999992,,,,,502,19,Man,Right,
,,,,,,,,,,,,,,,,,502,19,Man,Right,2,25,0.4,2,0,180,180,1.4240549999994982,['y'],0.3358797000000777,1.576,1818.2034363999992,,,,,502,19,Man,Right,
,,,,,,,,,,,,,,,,,502,19,Man,Right,2,39,0.4,2,180,0,0,0.679155300000275,['y'],0.4475198000000091,1.6059999999999999,1821.7862643000008,,,,,502,19,Man,Right,
,,,,,,,,,,,,,,,,,502,19,Man,Right,2,47,0.15,2,180,0,180,0.559614399997372,['y'],0.32774549999885494,1.6360000000000001,1825.2035226000007,,,,,502,19,Man,Right,
,,,,,,,,,,,,,,,,,502,19,Man,Right,2,54,0.15,1,180,-,180,0.3819963000023563,['n'],0.5035754999989877,1.718,1828.2369150999984,,,,,502,19,Man,Right,
,,,,,,,,,,,,,,,,,502,19,Man,Right,2,37,0.4,2,0,180,180,1.2832758000004105,['y'],0.3193911999987904,1.596,1832.7032409999993,,,,,502,19,Man,Right,
,,,,,,,,,,,,,,,,,502,19,Man,Right,2,17,0.4,2,0,180,180,0.6818100000018603,['y'],0.5676806000010401,1.0,1837.7201136000003,,,,,502,19,Man,Right,
,,,,,,,,,,,,,,,,,502,19,Man,Right,2,5,1,2,0,180,180,0.40339419999872916,['y'],1.455564099996991,1.992,1842.2201225999997,,,,,502,19,Man,Right,
,,,,,,,,,,,,,,,,,502,19,Man,Right,2,73,0.15,2,0,180,180,0.4079381999981706,['n'],2.567593699997815,1.768,1847.7874373999985,,,,,502,19,Man,Right,
,,,,,,,,,,,,,,,,,502,19,Man,Right,2,76,0.15,1,0,-,180,0.4590686999981699,['n'],0.5272564000006241,1.758,1851.0034373999988,,,,,502,19,Man,Right,
,,,,,,,,,,,,,,,,,502,19,Man,Right,2,22,0.4,1,180,-,180,0.4375547999989067,['n'],0.41583339999851887,1.758,1853.9363826000008,,,,,502,19,Man,Right,
,,,,,,,,,,,,,,,,,502,19,Man,Right,2,72,0.15,1,0,-,180,0.21687910000036936,['n'],0.4239039000021876,1.758,1856.653527999999,,,,,502,19,Man,Right,
,,,,,,,,,,,,,,,,,502,19,Man,Right,2,24,0.4,1,0,-,180,0.4523043000008329,['n'],0.4241626000002725,1.758,1860.436340199998,,,,,502,19,Man,Right,
,,,,,,,,,,,,,,,,,502,19,Man,Right,2,34,0.4,1,180,-,180,9.038551700003154,['n'],0.8152083000022685,1.746,1873.2703844999996,,,,,502,19,Man,Right,
,,,,,,,,,,,,,,,,,502,19,Man,Right,2,66,0.15,1,180,-,180,1.0591645999993489,['n'],0.9437633000015921,1.722,1877.8367875000004,,,,,502,19,Man,Right,
,,,,,,,,,,,,,,,,,502,19,Man,Right,2,61,0.15,2,0,180,0,0.8924578999976802,['n'],0.392083000002458,1.722,1881.3541540000006,,,,,502,19,Man,Right,
,,,,,,,,,,,,,,,,,502,19,Man,Right,2,65,0.15,2,0,180,180,0.5539410000019416,['n'],0.49577990000034333,1.722,1884.570527699998,,,,,502,19,Man,Right,
,,,,,,,,,,,,,,,,,502,19,Man,Right,3,79,0.15,2,180,0,180,0.17087329999776557,['n'],0.45523230000253534,1.76,1924.803847799998,67.5,87.5,62.5,,502,19,Man,Right,
,,,,,,,,,,,,,,,,,502,19,Man,Right,3,71,0.15,2,180,0,180,0.6738322000019252,['n'],0.5112621000007493,1.73,1928.0207716999976,,,,,502,19,Man,Right,
,,,,,,,,,,,,,,,,,502,19,Man,Right,3,1,1,2,0,180,180,1.1828014999991865,['y'],0.7360294999998587,2.0,1932.4034156999987,,,,,502,19,Man,Right,
,,,,,,,,,,,,,,,,,502,19,Man,Right,3,41,0.4,2,0,180,180,0.6921784000005573,['y'],0.6397476999991341,1.8980000000000001,1936.4712426999977,,,,,502,19,Man,Right,
,,,,,,,,,,,,,,,,,502,19,Man,Right,3,4,1,1,0,-,0,2.035179499998776,['n'],0.7035424999994575,1.272,1943.6696625000004,,,,,502,19,Man,Right,
,,,,,,,,,,,,,,,,,502,19,Man,Right,3,26,0.4,1,180,-,180,1.6543606000013824,['n'],0.2795761000015773,1.726,1947.9534544999988,,,,,502,19,Man,Right,
,,,,,,,,,,,,,,,,,502,19,Man,Right,3,33,0.4,2,0,180,180,0.968929599999683,['n'],0.36712769999940065,1.67,1951.4707815000002,,,,,502,19,Man,Right,
,,,,,,,,,,,,,,,,,502,19,Man,Right,3,51,0.15,2,180,0,180,0.5472083999993629,['n'],1.1598501000007673,1.74,1955.6209066999982,,,,,502,19,Man,Right,
,,,,,,,,,,,,,,,,,502,19,Man,Right,3,65,0.15,2,0,180,0,0.5840615999986767,['n'],0.559745099999418,1.754,1959.1372964000002,,,,,502,19,Man,Right,
,,,,,,,,,,,,,,,,,502,19,Man,Right,3,2,1,1,180,-,180,0.5711390999967989,['n'],0.8234078999994381,1.75,1963.6707652000005,,,,,502,19,Man,Right,
,,,,,,,,,,,,,,,,,502,19,Man,Right,3,46,0.15,1,180,-,0,0.9183808000016143,['n'],0.5672835000004852,1.752,1967.287386699998,,,,,502,19,Man,Right,
,,,,,,,,,,,,,,,,,502,19,Man,Right,3,21,0.4,2,0,180,180,0.4764160000013362,['y'],0.4800662999987253,1.74,1970.6209448000009,,,,,502,19,Man,Right,
,,,,,,,,,,,,,,,,,502,19,Man,Right,3,18,0.4,1,180,-,0,1.27949869999793,['y'],0.7200594999994792,1.74,1970.6209448000009,,,,,502,19,Man,Right,
,,,,,,,,,,,,,,,,,502,19,Man,Right,3,17,0.4,2,0,180,180,0.4551971999972011,['y'],0.9277618999985862,1.742,1978.5036765999976,,,,,502,19,Man,Right,
,,,,,,,,,,,,,,,,,502,19,Man,Right,3,47,0.15,2,180,0,0,0.7622387000010349,['n'],0.49588389999917126,1.742,1982.3041723999995,,,,,502,19,Man,Right,
,,,,,,,,,,,,,,,,,502,19,Man,Right,3,3,1,2,180,0,0,0.6372174999996787,['y'],0.7599125000015192,1.982,1986.4377564999995,,,,,502,19,Man,Right,
,,,,,,,,,,,,,,,,,502,19,Man,Right,3,29,0.4,2,0,180,180,0.413451399999758,['y'],0.6712604000022111,1.874,1990.5868076000006,,,,,502,19,Man,Right,
,,,,,,,,,,,,,,,,,502,19,Man,Right,3,35,0.4,2,180,0,0,2.496205999999802,['n'],9.071819600001618,1.0,2029.3206522,,,,,502,19,Man,Right,
,,,,,,,,,,,,,,,,,502,19,Man,Right,3,58,0.15,1,180,-,180,0.26633680000304594,['n'],0.4157202000023972,1.764,2032.9545550999974,,,,,502,19,Man,Right,
,,,,,,,,,,,,,,,,,502,19,Man,Right,3,44,0.15,1,0,-,180,0.3379664000021876,['n'],0.3595100000020466,1.762,2035.7543230999981,,,,,502,19,Man,Right,
,,,,,,,,,,,,,,,,,502,19,Man,Right,3,31,0.4,2,180,0,0,0.44820619999882183,['y'],0.32799789999990026,1.762,2038.6867373999994,,,,,502,19,Man,Right,
,,,,,,,,,,,,,,,,,502,19,Man,Right,3,72,0.15,1,0,-,180,0.2988455000013346,['n'],0.36792659999991884,1.762,2041.4875584999972,,,,,502,19,Man,Right,
,,,,,,,,,,,,,,,,,502,19,Man,Right,3,42,0.4,1,180,-,180,0.42745970000032685,['n'],0.5677962999980082,1.762,2044.5538974999981,,,,,502,19,Man,Right,
,,,,,,,,,,,,,,,,,502,19,Man,Right,3,22,0.4,1,180,-,180,0.322945100000652,['n'],0.7357851000015216,1.762,2047.7375452999986,,,,,502,19,Man,Right,
,,,,,,,,,,,,,,,,,502,19,Man,Right,3,66,0.15,1,180,-,180,0.24625470000319183,['n'],0.5360422000012477,1.762,2050.7203450999987,,,,,502,19,Man,Right,
,,,,,,,,,,,,,,,,,502,19,Man,Right,3,49,0.15,2,0,180,0,0.44983249999859254,['n'],0.6797084999998333,1.762,2054.020792899999,,,,,502,19,Man,Right,
,,,,,,,,,,,,,,,,,502,19,Man,Right,3,19,0.4,2,180,0,0,1.052351099999214,['y'],0.6719608999992488,1.762,2058.621024199998,,,,,502,19,Man,Right,
,,,,,,,,,,,,,,,,,502,19,Man,Right,3,15,0.4,2,180,0,0,0.48171350000120583,['y'],0.46395119999942835,1.762,2061.6202497999984,,,,,502,19,Man,Right,
,,,,,,,,,,,,,,,,,502,19,Man,Right,3,73,0.15,2,0,180,180,0.39960209999844665,['y'],0.4960371999986819,1.762,2064.6042258999987,,,,,502,19,Man,Right,
,,,,,,,,,,,,,,,,,502,19,Man,Right,3,16,0.4,1,0,-,0,0.3610583999980008,['n'],0.3439276000026439,1.762,2067.4033978000007,,,,,502,19,Man,Right,
,,,,,,,,,,,,,,,,,502,19,Man,Right,3,45,0.15,2,0,180,180,0.5617459999994026,['n'],0.3759062000026461,1.762,2070.3711406,,,,,502,19,Man,Right,
,,,,,,,,,,,,,,,,,502,19,Man,Right,3,32,0.4,1,0,-,0,0.46920870000030845,['n'],0.6640302000014344,1.762,2073.637930099998,,,,,502,19,Man,Right,
,,,,,,,,,,,,,,,,,502,19,Man,Right,3,0,1,1,0,-,0,1.0289424000002327,['n'],0.6319517000010819,1.762,2077.388192999999,,,,,502,19,Man,Right,
,,,,,,,,,,,,,,,,,502,19,Man,Right,3,61,0.15,2,0,180,180,0.6158509999986563,['n'],0.39185299999735435,1.762,2080.6044336999985,,,,,502,19,Man,Right,
,,,,,,,,,,,,,,,,,502,19,Man,Right,3,53,0.15,2,0,180,180,1.416605399997934,['n'],3.5274422000002232,1.238,2088.3531908000004,,,,,502,19,Man,Right,
,,,,,,,,,,,,,,,,,502,19,Man,Right,3,10,0.4,1,180,-,180,0.7032185000025493,['n'],0.7674211999983527,1.732,2092.2872245,,,,,502,19,Man,Right,
,,,,,,,,,,,,,,,,,502,19,Man,Right,3,20,0.4,1,0,-,0,0.5165370999966399,['n'],0.3039768999988155,1.732,2095.1383540999996,,,,,502,19,Man,Right,
,,,,,,,,,,,,,,,,,502,19,Man,Right,3,25,0.4,2,0,180,180,1.1380859000018972,['y'],0.5521778000002087,1.732,2099.3042647,,,,,502,19,Man,Right,
,,,,,,,,,,,,,,,,,502,19,Man,Right,3,9,0.4,2,0,180,180,0.9720663000007335,['y'],0.45523600000160513,1.728,2103.3878086000004,,,,,502,19,Man,Right,
,,,,,,,,,,,,,,,,,502,19,Man,Right,3,7,1,2,180,0,0,0.6400630999996793,['y'],0.3598617000025115,1.966,2106.7877843999995,,,,,502,19,Man,Right,
,,,,,,,,,,,,,,,,,502,19,Man,Right,3,67,0.15,2,180,0,180,0.48975459999928717,['n'],0.5908072000020184,1.784,2110.3529463999985,,,,,502,19,Man,Right,
,,,,,,,,,,,,,,,,,502,19,Man,Right,3,63,0.15,2,180,0,0,0.37299219999840716,['n'],1.095875500002876,1.78,2114.7372410999997,,,,,502,19,Man,Right,
,,,,,,,,,,,,,,,,,502,19,Man,Right,3,27,0.4,2,180,0,0,0.7160294999994221,['n'],0.5357985999980883,1.78,2118.0701131999995,,,,,502,19,Man,Right,
,,,,,,,,,,,,,,,,,502,19,Man,Right,3,62,0.15,1,180,-,180,0.48469309999927646,['n'],0.5119831999982125,1.78,2121.1538278000007,,,,,502,19,Man,Right,
,,,,,,,,,,,,,,,,,502,19,Man,Right,3,74,0.15,1,180,-,180,0.3527495000016643,['n'],0.3359453000011854,1.78,2123.9705914999977,,,,,502,19,Man,Right,
,,,,,,,,,,,,,,,,,502,19,Man,Right,3,37,0.4,2,0,180,180,0.2882105999997293,['n'],0.6399151000005077,1.78,2127.0371247999974,,,,,502,19,Man,Right,
,,,,,,,,,,,,,,,,,502,19,Man,Right,3,34,0.4,1,180,-,0,0.3568362000005436,['y'],0.5039107999982662,1.78,2130.054460399999,,,,,502,19,Man,Right,
,,,,,,,,,,,,,,,,,502,19,Man,Right,3,64,0.15,1,0,-,180,1.3842074999993201,['n'],0.5110972000002221,1.6099999999999999,2134.054027099999,,,,,502,19,Man,Right,
,,,,,,,,,,,,,,,,,502,19,Man,Right,3,14,0.4,1,180,-,0,0.5908081999987189,['y'],0.38392430000021704,1.6099999999999999,2137.4700631999985,,,,,502,19,Man,Right,
,,,,,,,,,,,,,,,,,502,19,Man,Right,3,43,0.4,2,180,0,0,1.2991892000027292,['y'],0.336990900003002,1.6099999999999999,2141.2872245,,,,,502,19,Man,Right,
,,,,,,,,,,,,,,,,,502,19,Man,Right,3,12,0.4,1,0,-,180,0.3896052000018244,['n'],0.6881123999992269,1.6099999999999999,2144.4869083999984,,,,,502,19,Man,Right,
,,,,,,,,,,,,,,,,,502,19,Man,Right,3,77,0.15,2,0,180,180,0.5169886000003316,['y'],0.8320656000032614,1.612,2148.6036227999975,,,,,502,19,Man,Right,
,,,,,,,,,,,,,,,,,502,19,Man,Right,3,52,0.15,1,0,-,180,0.4450829999987036,['n'],0.20766839999851072,1.612,2151.3877426,,,,,502,19,Man,Right,
,,,,,,,,,,,,,,,,,502,19,Man,Right,3,69,0.15,2,0,180,180,0.7702210999996169,['y'],0.31997749999936786,1.612,2154.5543068000006,,,,,502,19,Man,Right,
,,,,,,,,,,,,,,,,,502,19,Man,Right,3,56,0.15,1,0,-,180,0.17632949999824632,['y'],0.3999999999978172,1.612,2157.3874287,,,,,502,19,Man,Right,
,,,,,,,,,,,,,,,,,502,19,Man,Right,3,68,0.15,1,0,-,0,0.21844509999937145,['y'],0.41604240000015125,1.612,2160.3209599,,,,,502,19,Man,Right,
,,,,,,,,,,,,,,,,,502,19,Man,Right,3,23,0.4,2,180,0,0,0.5991432999981043,['y'],0.2719324999998207,1.612,2163.8710790999976,,,,,502,19,Man,Right,
,,,,,,,,,,,,,,,,,502,19,Man,Right,3,5,1,2,0,180,180,0.3575995999999577,['y'],0.3040599999985716,1.612,2166.686675000001,,,,,502,19,Man,Right,
,,,,,,,,,,,,,,,,,502,19,Man,Right,3,57,0.15,2,0,180,180,0.5810162000016135,['y'],0.3759944999983418,1.612,2169.754124299998,,,,,502,19,Man,Right,
,,,,,,,,,,,,,,,,,502,19,Man,Right,3,50,0.15,1,180,-,0,0.35910579999836045,['y'],0.3120170000001963,1.612,2173.0032341999977,,,,,502,19,Man,Right,
,,,,,,,,,,,,,,,,,502,19,Man,Right,3,8,0.4,1,0,-,0,0.37706729999990785,['y'],0.3758522999996785,1.612,2175.8209387999996,,,,,502,19,Man,Right,
,,,,,,,,,,,,,,,,,502,19,Man,Right,3,75,0.15,2,180,0,180,0.17328030000135186,['y'],0.2639370999968378,1.612,2178.5197012999997,,,,,502,19,Man,Right,
,,,,,,,,,,,,,,,,,502,19,Man,Right,3,54,0.15,1,180,-,0,0.4684936000012385,['y'],0.47995799999989686,1.612,2181.7372861999975,,,,,502,19,Man,Right,
,,,,,,,,,,,,,,,,,502,19,Man,Right,3,60,0.15,1,0,-,180,0.4511999999995169,['y'],0.40785049999976764,1.612,2184.7708437,,,,,502,19,Man,Right,
,,,,,,,,,,,,,,,,,502,19,Man,Right,3,59,0.15,2,180,0,180,0.23333220000131405,['n'],2.560047500002838,1.612,2189.7868614,,,,,502,19,Man,Right,
,,,,,,,,,,,,,,,,,502,19,Man,Right,3,11,0.4,2,180,0,0,1.225241600001027,['y'],0.36782569999923,1.782,2194.2201736999996,,,,,502,19,Man,Right,
,,,,,,,,,,,,,,,,,502,19,Man,Right,3,40,0.4,1,0,-,180,0.20060040000316803,['n'],0.5592947000004642,1.71,2197.553966399999,,,,,502,19,Man,Right,
,,,,,,,,,,,,,,,,,502,19,Man,Right,3,48,0.15,1,0,-,180,0.4828593999991426,['n'],0.4316285999993852,1.69,2201.0203402999978,,,,,502,19,Man,Right,
,,,,,,,,,,,,,,,,,502,19,Man,Right,3,30,0.4,1,180,-,180,0.3508485999991535,['n'],0.4715278000003309,1.694,2204.1374202000006,,,,,502,19,Man,Right,
,,,,,,,,,,,,,,,,,502,19,Man,Right,3,36,0.4,1,0,-,180,0.6297984000011638,['n'],1.3196600999981456,1.712,2208.803888899998,,,,,502,19,Man,Right,
,,,,,,,,,,,,,,,,,502,19,Man,Right,3,28,0.4,1,0,-,180,0.2846453999991354,['n'],0.9673485999992408,1.244,2212.887066799998,,,,,502,19,Man,Right,
,,,,,,,,,,,,,,,,,502,19,Man,Right,3,24,0.4,1,0,-,0,0.4990181000030134,['n'],0.6153287000015553,1.28,2216.7214099999983,,,,,502,19,Man,Right,
,,,,,,,,,,,,,,,,,502,19,Man,Right,3,76,0.15,1,0,-,180,0.24867950000043493,['n'],1.4398437999989255,1.804,2220.8368482999977,,,,,502,19,Man,Right,
,,,,,,,,,,,,,,,,,502,19,Man,Right,3,78,0.15,1,180,-,180,2.079106799999863,['n'],2.5677651000005426,1.696,2233.503493299999,,,,,502,19,Man,Right,
,,,,,,,,,,,,,,,,,502,19,Man,Right,3,39,0.4,2,180,0,0,0.6303069000023243,['y'],0.40716489999977057,1.704,2236.6210737,,,,,502,19,Man,Right,
,,,,,,,,,,,,,,,,,502,19,Man,Right,3,13,0.4,2,0,180,180,0.37641599999915343,['y'],0.3440361000029952,1.704,2239.4035208999994,,,,,502,19,Man,Right,
,,,,,,,,,,,,,,,,,502,19,Man,Right,3,70,0.15,1,180,-,180,0.26387030000114464,['n'],0.43196970000281,1.704,2242.3200235000004,,,,,502,19,Man,Right,
,,,,,,,,,,,,,,,,,502,19,Man,Right,3,38,0.4,1,180,-,180,0.4216515000007348,['n'],0.6080422999984876,1.704,2245.4047164000003,,,,,502,19,Man,Right,
,,,,,,,,,,,,,,,,,502,19,Man,Right,3,6,1,1,180,-,180,0.5449369000016304,['n'],0.3840181000014127,1.704,2248.5204000999984,,,,,502,19,Man,Right,
,,,,,,,,,,,,,,,,,502,19,Man,Right,3,55,0.15,2,180,0,180,0.2503182000000379,['n'],0.4558708000004117,1.704,2251.337720299998,,,,,502,19,Man,Right,
,,,,,,,,,,,,,,,,,502,19,Man,Right,4,25,0.4,2,0,180,180,0.5820662000005541,['n'],0.30318479999914416,1.256,2298.571252599999,66.25,77.5,57.5,,502,19,Man,Right,
,,,,,,,,,,,,,,,,,502,19,Man,Right,4,46,0.15,1,180,-,180,0.1958888000008301,['n'],0.23930489999838755,1.3399999999999999,2301.1212792999977,,,,,502,19,Man,Right,
,,,,,,,,,,,,,,,,,502,19,Man,Right,4,65,0.15,2,0,180,180,0.2860921000028611,['n'],0.48730760000034934,1.246,2304.1373423000005,,,,,502,19,Man,Right,
,,,,,,,,,,,,,,,,,502,19,Man,Right,4,21,0.4,2,0,180,180,0.7262525000005553,['y'],0.479900300000736,1.238,2309.171341199999,,,,,502,19,Man,Right,
,,,,,,,,,,,,,,,,,502,19,Man,Right,4,71,0.15,2,180,0,180,0.2936096000012185,['n'],0.3919198999974469,1.238,2312.0877383999978,,,,,502,19,Man,Right,
,,,,,,,,,,,,,,,,,502,19,Man,Right,4,55,0.15,2,180,0,180,1.5660339999994903,['n'],0.30389740000100574,1.238,2315.987096699999,,,,,502,19,Man,Right,
,,,,,,,,,,,,,,,,,502,19,Man,Right,4,69,0.15,2,0,180,180,0.4490401999973983,['y'],0.30770160000247415,1.238,2318.7706856999976,,,,,502,19,Man,Right,
,,,,,,,,,,,,,,,,,502,19,Man,Right,4,43,0.4,2,180,0,180,0.3671848999983922,['y'],0.2958757999986119,1.238,2322.0385289999977,,,,,502,19,Man,Right,
,,,,,,,,,,,,,,,,,502,19,Man,Right,4,76,0.15,1,0,-,180,0.35146919999897364,['n'],0.46393000000171014,1.238,2324.9712674999973,,,,,502,19,Man,Right,
,,,,,,,,,,,,,,,,,502,19,Man,Right,4,4,1,1,0,-,0,0.6447851000011724,['n'],4.656105900001421,1.294,2333.3371081000005,,,,,502,19,Man,Right,
,,,,,,,,,,,,,,,,,502,19,Man,Right,4,72,0.15,1,0,-,180,1.1337247999981628,['n'],0.31143950000114273,1.294,2336.8374547999993,,,,,502,19,Man,Right,
,,,,,,,,,,,,,,,,,502,19,Man,Right,4,67,0.15,2,180,0,180,0.6338374000006297,['n'],0.6475411999999778,1.214,2340.1543224999987,,,,,502,19,Man,Right,
,,,,,,,,,,,,,,,,,502,19,Man,Right,4,54,0.15,1,180,-,180,0.3008814999993774,['n'],0.3273341000021901,1.24,2342.8369955999988,,,,,502,19,Man,Right,
,,,,,,,,,,,,,,,,,502,19,Man,Right,4,23,0.4,2,180,0,0,0.3693162999988999,['y'],0.6955751000023156,1.244,2346.0202781000007,,,,,502,19,Man,Right,
,,,,,,,,,,,,,,,,,502,19,Man,Right,4,74,0.15,1,180,-,180,0.10552319999987958,['n'],0.48805709999942337,1.244,2348.9542703999978,,,,,502,19,Man,Right,
,,,,,,,,,,,,,,,,,502,19,Man,Right,4,68,0.15,1,0,-,180,0.10888519999934942,['y'],0.5040301000008185,1.244,2351.771994499999,,,,,502,19,Man,Right,
,,,,,,,,,,,,,,,,,502,19,Man,Right,4,28,0.4,1,0,-,0,0.18429299999843352,['n'],0.6879224999975122,1.242,2355.9713324000004,,,,,502,19,Man,Right,
,,,,,,,,,,,,,,,,,502,19,Man,Right,4,27,0.4,2,180,0,0,0.650543400002789,['y'],0.39919519999966724,1.244,2359.8714838999986,,,,,502,19,Man,Right,
,,,,,,,,,,,,,,,,,502,19,Man,Right,4,52,0.15,1,0,-,0,0.4580348000017693,['n'],1.4074648999994679,1.258,2364.070913399999,,,,,502,19,Man,Right,
,,,,,,,,,,,,,,,,,502,19,Man,Right,4,6,1,1,180,-,180,0.3853382999986934,['y'],0.9514641999994637,1.28,2367.6880734000006,,,,,502,19,Man,Right,
,,,,,,,,,,,,,,,,,502,19,Man,Right,4,2,1,1,180,-,180,0.3577189999996335,['n'],0.41527969999879133,1.28,2370.870431799998,,,,,502,19,Man,Right,
,,,,,,,,,,,,,,,,,502,19,Man,Right,4,58,0.15,1,180,-,180,0.15157429999817396,['n'],1.223368599999958,1.284,2374.5038886999973,,,,,502,19,Man,Right,
,,,,,,,,,,,,,,,,,502,19,Man,Right,4,35,0.4,2,180,0,0,0.7611501000028511,['y'],0.5439100000003236,1.284,2374.5038886999973,,,,,502,19,Man,Right,
,,,,,,,,,,,,,,,,,502,19,Man,Right,4,79,0.15,2,180,0,180,0.5025332999975944,['y'],0.6239371999981813,1.284,2382.137909199999,,,,,502,19,Man,Right,
,,,,,,,,,,,,,,,,,502,19,Man,Right,4,39,0.4,2,180,0,0,0.9293207000009716,['y'],0.9436089000009815,1.284,2386.2544495,,,,,502,19,Man,Right,
,,,,,,,,,,,,,,,,,502,19,Man,Right,4,30,0.4,1,180,-,0,0.809288699998433,['y'],0.3439197999978205,1.284,2389.4707458999983,,,,,502,19,Man,Right,
,,,,,,,,,,,,,,,,,502,19,Man,Right,4,36,0.4,1,0,-,180,0.2952906999998959,['y'],0.33590130000084173,1.284,2392.2044551,,,,,502,19,Man,Right,
,,,,,,,,,,,,,,,,,502,19,Man,Right,4,9,0.4,2,0,180,180,0.8893730999989202,['y'],0.38382699999783654,1.284,2395.6373872999975,,,,,502,19,Man,Right,
,,,,,,,,,,,,,,,,,502,19,Man,Right,4,73,0.15,2,0,180,180,0.811971099999937,['y'],0.23997520000193617,1.284,2399.371207,,,,,502,19,Man,Right,
,,,,,,,,,,,,,,,,,502,19,Man,Right,4,10,0.4,1,180,-,0,1.0841905000015686,['y'],0.47200990000055754,1.284,2403.5708668000007,,,,,502,19,Man,Right,
,,,,,,,,,,,,,,,,,502,19,Man,Right,4,7,1,2,180,0,0,0.37853200000245124,['y'],0.352040500001749,1.284,2406.4540124999985,,,,,502,19,Man,Right,
,,,,,,,,,,,,,,,,,502,19,Man,Right,4,57,0.15,2,0,180,180,9.491934699999547,['n'],0.8796083000015642,1.0,2428.820675499999,,,,,502,19,Man,Right,
,,,,,,,,,,,,,,,,,502,19,Man,Right,4,14,0.4,1,180,-,180,0.4494719000031182,['n'],0.6632238999991387,1.25,2432.4056824,,,,,502,19,Man,Right,
,,,,,,,,,,,,,,,,,502,19,Man,Right,4,60,0.15,1,0,-,180,0.26183039999887114,['n'],0.4074906000023475,1.248,2435.437505599999,,,,,502,19,Man,Right,
,,,,,,,,,,,,,,,,,502,19,Man,Right,4,48,0.15,1,0,-,180,0.1387243999997736,['n'],0.27999890000137384,1.248,2438.1711049000005,,,,,502,19,Man,Right,
,,,,,,,,,,,,,,,,,502,19,Man,Right,4,11,0.4,2,180,0,180,0.5562858000012056,['y'],0.31104920000143466,1.25,2441.2201537,,,,,502,19,Man,Right,
,,,,,,,,,,,,,,,,,502,19,Man,Right,4,33,0.4,2,0,180,180,1.522298399999272,['n'],0.31988410000121803,1.25,2445.171293899999,,,,,502,19,Man,Right,
,,,,,,,,,,,,,,,,,502,19,Man,Right,4,18,0.4,1,180,-,0,0.5221443000009458,['y'],0.9279284000003827,1.252,2448.9047262999993,,,,,502,19,Man,Right,
,,,,,,,,,,,,,,,,,502,19,Man,Right,4,38,0.4,1,180,-,180,0.6498499000008451,['n'],0.535557000002882,1.254,2452.3873079000005,,,,,502,19,Man,Right,
,,,,,,,,,,,,,,,,,502,19,Man,Right,4,59,0.15,2,180,0,0,0.7536242999995011,['y'],0.9119096000031277,1.254,2456.3208309999973,,,,,502,19,Man,Right,
,,,,,,,,,,,,,,,,,502,19,Man,Right,4,20,0.4,1,0,-,180,0.7352200000023004,['y'],1.7838231999994605,1.258,2461.1541397,,,,,502,19,Man,Right,
,,,,,,,,,,,,,,,,,502,19,Man,Right,4,75,0.15,2,180,0,0,0.9040127000007487,['n'],0.5678389999993669,1.258,2464.9715577999996,,,,,502,19,Man,Right,
,,,,,,,,,,,,,,,,,502,19,Man,Right,4,78,0.15,1,180,-,180,0.17952520000108052,['n'],0.5760282999981428,1.258,2467.9216020999993,,,,,502,19,Man,Right,
,,,,,,,,,,,,,,,,,502,19,Man,Right,4,64,0.15,1,0,-,0,0.5917423999999301,['n'],0.5038243999988481,1.258,2471.0871597999976,,,,,502,19,Man,Right,
,,,,,,,,,,,,,,,,,502,19,Man,Right,4,16,0.4,1,0,-,0,0.4525327000010293,['n'],1.45589309999923,1.264,2475.2370549000007,,,,,502,19,Man,Right,
,,,,,,,,,,,,,,,,,502,19,Man,Right,4,8,0.4,1,0,-,180,0.25054330000057234,['y'],0.9520474999990256,1.264,2478.571250699999,,,,,502,19,Man,Right,
,,,,,,,,,,,,,,,,,502,19,Man,Right,4,12,0.4,1,0,-,180,0.6697752000000037,['y'],0.5831884999970498,1.288,2482.0871941999976,,,,,502,19,Man,Right,
,,,,,,,,,,,,,,,,,502,19,Man,Right,4,66,0.15,1,180,-,180,0.38499380000212113,['y'],0.7279280999973707,1.288,2485.3218266000003,,,,,502,19,Man,Right,
,,,,,,,,,,,,,,,,,502,19,Man,Right,4,53,0.15,2,0,180,180,0.20535200000085752,['y'],0.5917887999967206,1.288,2488.2369335999974,,,,,502,19,Man,Right,
,,,,,,,,,,,,,,,,,502,19,Man,Right,4,19,0.4,2,180,0,0,1.554133699999511,['y'],0.48780900000201655,1.288,2492.3372034999993,,,,,502,19,Man,Right,
,,,,,,,,,,,,,,,,,502,19,Man,Right,4,24,0.4,1,0,-,0,0.6305700000011711,['y'],0.4158389999975043,1.288,2495.4718828000005,,,,,502,19,Man,Right,
,,,,,,,,,,,,,,,,,502,19,Man,Right,4,31,0.4,2,180,0,180,0.016988100000162376,['n'],0.1900238000016543,1.288,2497.8539079,,,,,502,19,Man,Right,
,,,,,,,,,,,,,,,,,502,19,Man,Right,4,40,0.4,1,0,-,180,0.46058020000054967,['y'],1.8555164000026707,1.29,2502.7872325999997,,,,,502,19,Man,Right,
,,,,,,,,,,,,,,,,,502,19,Man,Right,4,56,0.15,1,0,-,180,7.844281800000317,['n'],0.23976179999954184,1.01,2514.2549340000005,,,,,502,19,Man,Right,
,,,,,,,,,,,,,,,,,502,19,Man,Right,4,34,0.4,1,180,-,180,0.2510355999984313,['n'],0.7834543000026315,1.702,2518.0046454999974,,,,,502,19,Man,Right,
,,,,,,,,,,,,,,,,,502,19,Man,Right,4,17,0.4,2,0,180,180,0.5647676000007777,['y'],0.33584699999846634,1.706,2521.154129999999,,,,,502,19,Man,Right,
,,,,,,,,,,,,,,,,,502,19,Man,Right,4,47,0.15,2,180,0,180,0.3437822999985656,['n'],0.9918199999992794,1.698,2525.0046311999977,,,,,502,19,Man,Right,
,,,,,,,,,,,,,,,,,502,19,Man,Right,4,1,1,2,0,180,180,1.3533031999977538,['y'],0.7915931999996246,1.772,2529.5545386999984,,,,,502,19,Man,Right,
,,,,,,,,,,,,,,,,,502,19,Man,Right,4,63,0.15,2,180,0,0,0.32688079999934416,['n'],2.559239300000627,1.294,2535.2873212999984,,,,,502,19,Man,Right,
,,,,,,,,,,,,,,,,,502,19,Man,Right,4,15,0.4,2,180,0,0,0.5415377999997872,['y'],0.5032325000029232,1.6059999999999999,2538.871113199999,,,,,502,19,Man,Right,
,,,,,,,,,,,,,,,,,502,19,Man,Right,4,32,0.4,1,0,-,180,0.4177440999992541,['n'],2.383745600000111,1.604,2544.754672700001,,,,,502,19,Man,Right,
,,,,,,,,,,,,,,,,,502,19,Man,Right,4,41,0.4,2,0,180,180,0.33624459999919054,['y'],0.4793333999987226,1.724,2548.270397199998,,,,,502,19,Man,Right,
,,,,,,,,,,,,,,,,,502,19,Man,Right,4,61,0.15,2,0,180,180,0.5860379000005196,['y'],1.0790612999990117,1.724,2548.270397199998,,,,,502,19,Man,Right,
,,,,,,,,,,,,,,,,,502,19,Man,Right,4,42,0.4,1,180,-,180,0.24106200000096578,['y'],0.7913828999990073,1.734,2555.4045654,,,,,502,19,Man,Right,
,,,,,,,,,,,,,,,,,502,19,Man,Right,4,49,0.15,2,0,180,180,19.808647900001233,['y'],10.391198000001168,1.0,2590.7215545,,,,,502,19,Man,Right,
,,,,,,,,,,,,,,,,,502,19,Man,Right,4,70,0.15,1,180,-,180,0.33869940000295173,['y'],0.8878030000014405,1.0979999999999999,2594.5377673000003,,,,,502,19,Man,Right,
,,,,,,,,,,,,,,,,,502,19,Man,Right,4,0,1,1,0,-,0,0.4289720999986457,['n'],0.9996824999980163,1.742,2598.321381599999,,,,,502,19,Man,Right,
,,,,,,,,,,,,,,,,,502,19,Man,Right,4,77,0.15,2,0,180,180,0.8569019999995362,['y'],0.7358963000006042,1.262,2603.8712651999995,,,,,502,19,Man,Right,
,,,,,,,,,,,,,,,,,502,19,Man,Right,4,50,0.15,1,180,-,180,0.3547866000008071,['n'],0.7192202999976871,1.296,2607.2048015,,,,,502,19,Man,Right,
,,,,,,,,,,,,,,,,,502,19,Man,Right,4,29,0.4,2,0,180,180,0.7233919999998761,['y'],1.615330599997833,1.702,2612.1880270999973,,,,,502,19,Man,Right,
,,,,,,,,,,,,,,,,,502,19,Man,Right,4,45,0.15,2,0,180,180,0.36426380000193603,['y'],0.6960968999992474,1.696,2615.6878634999994,,,,,502,19,Man,Right,
,,,,,,,,,,,,,,,,,502,19,Man,Right,4,37,0.4,2,0,180,180,0.23419429999921704,['y'],0.43150140000216197,1.708,2618.7041690999977,,,,,502,19,Man,Right,
,,,,,,,,,,,,,,,,,502,19,Man,Right,4,51,0.15,2,180,0,180,11.369349000000511,['n'],0.7834160000020347,1.214,2633.804980599998,,,,,502,19,Man,Right,
,,,,,,,,,,,,,,,,,502,19,Man,Right,4,26,0.4,1,180,-,0,0.6758797000002232,['n'],0.8471785000001546,1.26,2637.9380582999984,,,,,502,19,Man,Right,
,,,,,,,,,,,,,,,,,502,19,Man,Right,4,13,0.4,2,0,180,180,0.2640683999998146,['y'],7.895360999998957,1.278,2648.6373563999987,,,,,502,19,Man,Right,
,,,,,,,,,,,,,,,,,502,19,Man,Right,4,62,0.15,1,180,-,180,0.3399606999992102,['y'],1.1677948999968066,1.274,2652.1373558999985,,,,,502,19,Man,Right,
,,,,,,,,,,,,,,,,,502,19,Man,Right,4,5,1,2,0,180,180,1.2950679999994463,['y'],0.4157658000003721,2.0,2656.187528899998,,,,,502,19,Man,Right,
,,,,,,,,,,,,,,,,,502,19,Man,Right,4,22,0.4,1,180,-,0,1.7274176999999327,['y'],1.4956507999995665,1.688,2662.0873804000003,,,,,502,19,Man,Right,
,,,,,,,,,,,,,,,,,502,19,Man,Right,4,44,0.15,1,0,-,0,0.605035599997791,['y'],0.487479200000962,1.338,2668.688230399999,,,,,502,19,Man,Right,
,,,,,,,,,,,,,,,,,502,19,Man,Right,4,3,1,2,180,0,0,0.5804100999994262,['y'],1.4473466999988887,1.758,2674.9384087,,,,,502,19,Man,Right,
,,,,,,,,,,,,,,,,,502,19,Man,Right,5,30,0.4,1,180,-,180,0.3880764999994426,['n'],0.32759880000230623,1.268,2685.071489099999,67.5,57.5,70.0,,502,19,Man,Right,
,,,,,,,,,,,,,,,,,502,19,Man,Right,5,49,0.15,2,0,180,180,1.7285383000016736,['n'],0.7114245000011579,1.262,2689.6538186,,,,,502,19,Man,Right,
,,,,,,,,,,,,,,,,,502,19,Man,Right,5,63,0.15,2,180,0,0,0.657984800000122,['y'],0.4637137999998231,1.206,2693.4549645999978,,,,,502,19,Man,Right,
,,,,,,,,,,,,,,,,,502,19,Man,Right,5,35,0.4,2,180,0,0,0.9693269999988843,['y'],0.4474921999972139,1.5819999999999999,2697.4216989999986,,,,,502,19,Man,Right,
,,,,,,,,,,,,,,,,,502,19,Man,Right,5,54,0.15,1,180,-,180,0.4367877000004228,['n'],0.6635863999981666,1.224,2701.005351399999,,,,,502,19,Man,Right,
,,,,,,,,,,,,,,,,,502,19,Man,Right,5,71,0.15,2,180,0,180,0.43121370000153547,['n'],0.43955450000066776,1.3399999999999999,2703.954802199998,,,,,502,19,Man,Right,
,,,,,,,,,,,,,,,,,502,19,Man,Right,5,3,1,2,180,0,0,0.6935018999975,['y'],0.528236599999218,1.692,2707.5879540999995,,,,,502,19,Man,Right,
,,,,,,,,,,,,,,,,,502,19,Man,Right,5,18,0.4,1,180,-,180,0.41488509999908274,['n'],0.7195399000011093,1.302,2711.0381001999995,,,,,502,19,Man,Right,
,,,,,,,,,,,,,,,,,502,19,Man,Right,5,55,0.15,2,180,0,180,0.2548233000015898,['n'],0.3592034000030253,1.266,2714.1216102,,,,,502,19,Man,Right,
,,,,,,,,,,,,,,,,,502,19,Man,Right,5,77,0.15,2,0,180,180,0.2669538999980432,['n'],0.3350940999989689,1.266,2717.0542838,,,,,502,19,Man,Right,
,,,,,,,,,,,,,,,,,502,19,Man,Right,5,12,0.4,1,0,-,0,0.4817062999973132,['n'],0.431490599999961,1.266,2717.0542838,,,,,502,19,Man,Right,
,,,,,,,,,,,,,,,,,502,19,Man,Right,5,66,0.15,1,180,-,180,0.28159429999868735,['n'],0.5358521999987715,1.304,2723.8044682,,,,,502,19,Man,Right,
,,,,,,,,,,,,,,,,,502,19,Man,Right,5,48,0.15,1,0,-,0,0.23799800000051619,['n'],0.5919216000002052,1.704,2727.0563089999996,,,,,502,19,Man,Right,
,,,,,,,,,,,,,,,,,502,19,Man,Right,5,51,0.15,2,180,0,180,0.2335261999978684,['y'],1.4395694999984698,1.172,2731.7718453999987,,,,,502,19,Man,Right,
,,,,,,,,,,,,,,,,,502,19,Man,Right,5,10,0.4,1,180,-,180,0.16233780000038678,['y'],0.5915069000002404,1.23,2734.8052609000006,,,,,502,19,Man,Right,
,,,,,,,,,,,,,,,,,502,19,Man,Right,5,41,0.4,2,0,180,180,0.7652868999975908,['n'],0.719424999999319,1.304,2738.6053429999993,,,,,502,19,Man,Right,
,,,,,,,,,,,,,,,,,502,19,Man,Right,5,59,0.15,2,180,0,0,0.016843999997945502,['y'],0.24263840000276105,1.292,2741.0875197999994,,,,,502,19,Man,Right,
,,,,,,,,,,,,,,,,,502,19,Man,Right,5,52,0.15,1,0,-,180,0.6342346000019461,['y'],0.7200198999998975,1.292,2744.6549839,,,,,502,19,Man,Right,
,,,,,,,,,,,,,,,,,502,19,Man,Right,5,67,0.15,2,180,0,180,0.28161980000004405,['n'],0.41595070000039414,1.292,2747.5045484,,,,,502,19,Man,Right,
,,,,,,,,,,,,,,,,,502,19,Man,Right,5,53,0.15,2,0,180,0,0.40545380000185105,['y'],0.7679688000025635,1.292,2752.355098,,,,,502,19,Man,Right,
,,,,,,,,,,,,,,,,,502,19,Man,Right,5,43,0.4,2,180,0,0,0.5556995999977516,['y'],1.3832997999998042,1.748,2757.4880648,,,,,502,19,Man,Right,
,,,,,,,,,,,,,,,,,502,19,Man,Right,5,5,1,2,0,180,180,0.4563748000000487,['y'],0.6315127000016219,1.798,2761.4052919999995,,,,,502,19,Man,Right,
,,,,,,,,,,,,,,,,,502,19,Man,Right,5,24,0.4,1,0,-,180,0.577009900000121,['y'],0.38333549999879324,1.728,2764.737642,,,,,502,19,Man,Right,
,,,,,,,,,,,,,,,,,502,19,Man,Right,5,75,0.15,2,180,0,0,0.5015782000009494,['y'],0.6392780999995011,1.5899999999999999,2768.271293499998,,,,,502,19,Man,Right,
,,,,,,,,,,,,,,,,,502,19,Man,Right,5,32,0.4,1,0,-,180,0.436006300002191,['n'],0.8557703000005858,1.224,2772.1046916999985,,,,,502,19,Man,Right,
,,,,,,,,,,,,,,,,,502,19,Man,Right,5,69,0.15,2,0,180,0,0.5945084999984829,['n'],0.4152537999980268,1.276,2775.4216159999996,,,,,502,19,Man,Right,
,,,,,,,,,,,,,,,,,502,19,Man,Right,5,23,0.4,2,180,0,0,0.4361962999973912,['y'],0.6636109000028227,1.5939999999999999,2778.987610799999,,,,,502,19,Man,Right,
,,,,,,,,,,,,,,,,,502,19,Man,Right,5,58,0.15,1,180,-,180,0.44647880000047735,['n'],0.6073700000015378,1.288,2782.6550384999973,,,,,502,19,Man,Right,
,,,,,,,,,,,,,,,,,502,19,Man,Right,5,16,0.4,1,0,-,180,1.1810050000021874,['y'],0.31943479999972624,1.662,2786.7879407,,,,,502,19,Man,Right,
,,,,,,,,,,,,,,,,,502,19,Man,Right,5,14,0.4,1,180,-,180,0.44751019999966957,['y'],1.3997433000004094,1.274,2791.321181799998,,,,,502,19,Man,Right,
,,,,,,,,,,,,,,,,,502,19,Man,Right,5,61,0.15,2,0,180,180,0.4565805000020191,['n'],1.3992360000011104,1.274,2791.321181799998,,,,,502,19,Man,Right,
,,,,,,,,,,,,,,,,,502,19,Man,Right,5,36,0.4,1,0,-,180,0.41813030000048457,['y'],0.40776910000204225,1.716,2799.071422599998,,,,,502,19,Man,Right,
,,,,,,,,,,,,,,,,,502,19,Man,Right,5,64,0.15,1,0,-,180,0.5030396000001929,['y'],0.6155774999970163,1.314,2803.155072999998,,,,,502,19,Man,Right,
,,,,,,,,,,,,,,,,,502,19,Man,Right,5,37,0.4,2,0,180,180,1.065986999998131,['y'],0.2952826999971876,1.678,2806.688058399999,,,,,502,19,Man,Right,
,,,,,,,,,,,,,,,,,502,19,Man,Right,5,2,1,1,180,-,180,0.3398427000029187,['n'],0.3914288999985729,1.296,2809.7220229999984,,,,,502,19,Man,Right,
,,,,,,,,,,,,,,,,,502,19,Man,Right,5,27,0.4,2,180,0,0,1.891052099999797,['n'],0.33573059999980615,1.272,2814.6875944999992,,,,,502,19,Man,Right,
,,,,,,,,,,,,,,,,,502,19,Man,Right,5,74,0.15,1,180,-,180,0.18862780000199564,['n'],0.31126640000002226,1.408,2817.8377832999977,,,,,502,19,Man,Right,
,,,,,,,,,,,,,,,,,502,19,Man,Right,5,56,0.15,1,0,-,180,0.3631748999978299,['n'],0.7676028999994742,1.27,2821.3718038000006,,,,,502,19,Man,Right,
,,,,,,,,,,,,,,,,,502,19,Man,Right,5,17,0.4,2,0,180,180,0.40056990000084625,['n'],0.5355170000002545,1.302,2824.8713549999993,,,,,502,19,Man,Right,
,,,,,,,,,,,,,,,,,502,19,Man,Right,5,4,1,1,0,-,0,0.36390270000265446,['y'],0.5675723999993352,1.672,2828.6385057000007,,,,,502,19,Man,Right,
,,,,,,,,,,,,,,,,,502,19,Man,Right,5,22,0.4,1,180,-,180,0.2511062000012316,['n'],1.3757833999989089,1.626,2832.9053858000007,,,,,502,19,Man,Right,
,,,,,,,,,,,,,,,,,502,19,Man,Right,5,31,0.4,2,180,0,0,0.6807426000013947,['y'],0.6392904999993334,1.32,2836.738713499999,,,,,502,19,Man,Right,
,,,,,,,,,,,,,,,,,502,19,Man,Right,5,57,0.15,2,0,180,180,0.44223799999963376,['y'],0.6797611999973014,1.27,2839.9707958,,,,,502,19,Man,Right,
,,,,,,,,,,,,,,,,,502,19,Man,Right,5,19,0.4,2,180,0,0,0.5980591000006825,['y'],0.311531900002592,1.6139999999999999,2844.0547977999995,,,,,502,19,Man,Right,
,,,,,,,,,,,,,,,,,502,19,Man,Right,5,1,1,2,0,180,180,0.32558699999935925,['y'],0.3517747000005329,1.708,2846.838203899999,,,,,502,19,Man,Right,
,,,,,,,,,,,,,,,,,502,19,Man,Right,5,40,0.4,1,0,-,0,0.547349899999972,['y'],0.7193560000014259,1.712,2850.7710597000005,,,,,502,19,Man,Right,
,,,,,,,,,,,,,,,,,502,19,Man,Right,5,46,0.15,1,180,-,180,0.343925199998921,['y'],0.40757270000176504,1.728,2853.955355599999,,,,,502,19,Man,Right,
,,,,,,,,,,,,,,,,,502,19,Man,Right,5,33,0.4,2,0,180,180,0.5517750999970303,['y'],0.5511364999983925,1.724,2857.188229899999,,,,,502,19,Man,Right,
,,,,,,,,,,,,,,,,,502,19,Man,Right,5,44,0.15,1,0,-,0,0.8491520999996283,['y'],5.583452800001396,1.724,2865.854780999998,,,,,502,19,Man,Right,
,,,,,,,,,,,,,,,,,502,19,Man,Right,5,39,0.4,2,180,0,0,0.69041930000094,['y'],3.8162051000035717,1.724,2872.672160599999,,,,,502,19,Man,Right,
,,,,,,,,,,,,,,,,,502,19,Man,Right,5,62,0.15,1,180,-,180,0.2174793000012869,['y'],0.3920161999994889,1.234,2876.238200399999,,,,,502,19,Man,Right,
,,,,,,,,,,,,,,,,,502,19,Man,Right,5,65,0.15,2,0,180,180,0.2786917000012181,['n'],1.21583400000236,1.25,2880.2548982000008,,,,,502,19,Man,Right,
,,,,,,,,,,,,,,,,,502,19,Man,Right,5,76,0.15,1,0,-,180,0.3257804999993823,['n'],0.37552119999963907,1.23,2882.9718090999995,,,,,502,19,Man,Right,
,,,,,,,,,,,,,,,,,502,19,Man,Right,5,38,0.4,1,180,-,0,0.33387020000009215,['y'],0.39190640000015264,1.198,2886.4380710999976,,,,,502,19,Man,Right,
,,,,,,,,,,,,,,,,,502,19,Man,Right,5,26,0.4,1,180,-,180,0.14977899999939837,['y'],0.8471298000004026,1.238,2889.5891927999983,,,,,502,19,Man,Right,
,,,,,,,,,,,,,,,,,502,19,Man,Right,5,34,0.4,1,180,-,180,0.15982490000169491,['y'],1.1916147000010824,1.238,2893.021857399999,,,,,502,19,Man,Right,
,,,,,,,,,,,,,,,,,502,19,Man,Right,5,20,0.4,1,0,-,180,0.3232129999996687,['n'],0.92796879999878,1.238,2896.4209959,,,,,502,19,Man,Right,
,,,,,,,,,,,,,,,,,502,19,Man,Right,5,28,0.4,1,0,-,0,0.08232960000168532,['n'],0.7055685000013909,1.238,2899.638703599998,,,,,502,19,Man,Right,
,,,,,,,,,,,,,,,,,502,19,Man,Right,5,79,0.15,2,180,0,0,0.31148580000080983,['n'],0.45591979999881005,1.238,2902.604915699998,,,,,502,19,Man,Right,
,,,,,,,,,,,,,,,,,502,19,Man,Right,5,42,0.4,1,180,-,180,0.34818059999815887,['n'],0.3439600999990944,1.238,2905.3554177000005,,,,,502,19,Man,Right,
,,,,,,,,,,,,,,,,,502,19,Man,Right,5,7,1,2,180,0,0,0.885015799998655,['y'],0.5439148000004934,1.986,2909.3378397999986,,,,,502,19,Man,Right,
,,,,,,,,,,,,,,,,,502,19,Man,Right,5,29,0.4,2,0,180,180,0.7136142000017571,['y'],0.4232780000020284,1.608,2912.7206370999993,,,,,502,19,Man,Right,
,,,,,,,,,,,,,,,,,502,19,Man,Right,5,47,0.15,2,180,0,0,0.45139799999742536,['y'],0.7275866999989375,1.642,2916.1375219999973,,,,,502,19,Man,Right,
,,,,,,,,,,,,,,,,,502,19,Man,Right,5,72,0.15,1,0,-,0,0.4662647000004654,['n'],0.4798086000009789,1.6139999999999999,2919.406815899998,,,,,502,19,Man,Right,
,,,,,,,,,,,,,,,,,502,19,Man,Right,5,70,0.15,1,180,-,180,0.3514016000008269,['n'],0.5038623000000371,1.236,2922.572049300001,,,,,502,19,Man,Right,
,,,,,,,,,,,,,,,,,502,19,Man,Right,5,0,1,1,0,-,0,0.3926012999982049,['n'],0.3520865999998932,1.726,2925.8722057999985,,,,,502,19,Man,Right,
,,,,,,,,,,,,,,,,,502,19,Man,Right,5,73,0.15,2,0,180,180,1.290603800000099,['n'],1.5507791999989422,1.724,2931.305099099998,,,,,502,19,Man,Right,
,,,,,,,,,,,,,,,,,502,19,Man,Right,5,25,0.4,2,0,180,180,0.34802379999746336,['y'],0.47940160000143806,1.258,2935.1050305999997,,,,,502,19,Man,Right,
,,,,,,,,,,,,,,,,,502,19,Man,Right,5,68,0.15,1,0,-,180,7.418817800000397,['n'],0.5356818000000203,1.0,2945.9711623999974,,,,,502,19,Man,Right,
,,,,,,,,,,,,,,,,,502,19,Man,Right,5,50,0.15,1,180,-,180,0.27194299999973737,['n'],0.3507990999969479,1.24,2949.0888444999982,,,,,502,19,Man,Right,
,,,,,,,,,,,,,,,,,502,19,Man,Right,5,45,0.15,2,0,180,180,0.5662126000024728,['y'],0.7351648000003479,1.276,2952.9550058999994,,,,,502,19,Man,Right,
,,,,,,,,,,,,,,,,,502,19,Man,Right,5,13,0.4,2,0,180,180,0.6978127000002132,['y'],1.3837686000006215,1.276,2952.9550058999994,,,,,502,19,Man,Right,
,,,,,,,,,,,,,,,,,502,19,Man,Right,5,6,1,1,180,-,180,0.4240495000012743,['n'],0.3516063999995822,1.678,2960.5210780999987,,,,,502,19,Man,Right,
,,,,,,,,,,,,,,,,,502,19,Man,Right,5,21,0.4,2,0,180,180,0.3607155000026978,['y'],0.5116282000017236,1.686,2963.7217251,,,,,502,19,Man,Right,
,,,,,,,,,,,,,,,,,502,19,Man,Right,5,60,0.15,1,0,-,180,0.49200980000023264,['n'],0.3909620999984327,1.686,2963.7217251,,,,,502,19,Man,Right,
,,,,,,,,,,,,,,,,,502,19,Man,Right,5,9,0.4,2,0,180,180,0.7289089999976568,['y'],0.41548510000211536,1.708,2970.0210248999974,,,,,502,19,Man,Right,
,,,,,,,,,,,,,,,,,502,19,Man,Right,5,15,0.4,2,180,0,0,0.8487711000016134,['y'],1.679535899998882,1.674,2974.855462899999,,,,,502,19,Man,Right,
,,,,,,,,,,,,,,,,,502,19,Man,Right,5,78,0.15,1,180,-,180,2.4147265999999945,['n'],0.29567519999909564,1.204,2980.7211844999983,,,,,502,19,Man,Right,
,,,,,,,,,,,,,,,,,502,19,Man,Right,5,11,0.4,2,180,0,0,0.5802675000013551,['y'],0.4153946000005817,1.6520000000000001,2990.404906399999,,,,,502,19,Man,Right,
,,,,,,,,,,,,,,,,,502,19,Man,Right,5,8,0.4,1,0,-,180,0.3041356000030646,['n'],0.30358740000156104,1.5939999999999999,2993.3714277,,,,,502,19,Man,Right,
,,,,,,,,,,,,,,,,,,,,,,,,,,,,,,,,,76.25,62.5,67.5,2407.9232263999984,,,,,
