p_block,p_section,p_coherence,p_direction1,p_direction2,p_direction_response,p_direction_RT,p_change_response,p_change_RT,p_confidence,p_full_correct,p_without5_correct,p_full_total,p_without5_total,p_full_avg,p_witout5_avg,p_total_time,sub,age,sex,handedness,loop,trial randomization,coherence,condition,direction1,direction2,direction_response,direction_RT,change_response,change_RT,change_confidence,change_confidence_RT,block_direction_avg,block_stable_avg,block_change_avg,total_time,sub,age,sex,handedness,
1,1,1.0,180,-,180,1.9305848000003607,-,-,-,,,,,,,,542,19,Woman,Right,,,,,,,,,,,,,,,,,542,19,Woman,Right,
1,1,1.0,0,-,180,2.0324569000003976,-,-,-,,,,,,,,542,19,Woman,Right,,,,,,,,,,,,,,,,,542,19,Woman,Right,
1,1,1.0,0,-,0,0.5373342000002594,-,-,-,,,,,,,,542,19,Woman,Right,,,,,,,,,,,,,,,,,542,19,Woman,Right,
1,1,1.0,180,-,180,0.22960929999953805,-,-,-,,,,,,,,542,19,Woman,Right,,,,,,,,,,,,,,,,,542,19,Woman,Right,
1,1,1.0,0,-,0,0.01687949999995908,-,-,-,,,,,,,,542,19,Woman,Right,,,,,,,,,,,,,,,,,542,19,Woman,Right,
1,1,1.0,180,-,180,0.0168348999995942,-,-,-,,,,,,,,542,19,Woman,Right,,,,,,,,,,,,,,,,,542,19,Woman,Right,
1,1,1.0,180,-,180,0.2015334999996412,-,-,-,,,,,,,,542,19,Woman,Right,,,,,,,,,,,,,,,,,542,19,Woman,Right,
1,1,1.0,0,-,0,0.05955030000041006,-,-,-,,,,,,,,542,19,Woman,Right,,,,,,,,,,,,,,,,,542,19,Woman,Right,
1,1,1.0,0,-,0,0.09957649999978457,-,-,-,,,,,,,,542,19,Woman,Right,,,,,,,,,,,,,,,,,542,19,Woman,Right,
1,1,1.0,180,-,180,0.016540900000109104,-,-,-,9,9,10,10,0.9,0.9,,542,19,Woman,Right,,,,,,,,,,,,,,,,,542,19,Woman,Right,
2,1,0.15,180,-,0,0.42982170000050246,-,-,-,,,,,,,,542,19,Woman,Right,,,,,,,,,,,,,,,,,542,19,Woman,Right,
2,1,0.4,180,-,180,0.21523960000013176,-,-,-,,,,,,,,542,19,Woman,Right,,,,,,,,,,,,,,,,,542,19,Woman,Right,
2,1,0.4,180,-,180,0.44908659999964584,-,-,-,,,,,,,,542,19,Woman,Right,,,,,,,,,,,,,,,,,542,19,Woman,Right,
2,1,0.4,180,-,0,0.28918309999971825,-,-,-,,,,,,,,542,19,Woman,Right,,,,,,,,,,,,,,,,,542,19,Woman,Right,
2,1,0.15,180,-,0,0.2003645000004326,-,-,-,,,,,,,,542,19,Woman,Right,,,,,,,,,,,,,,,,,542,19,Woman,Right,
2,1,0.15,0,-,180,0.8323761999999988,-,-,-,,,,,,,,542,19,Woman,Right,,,,,,,,,,,,,,,,,542,19,Woman,Right,
2,1,0.4,180,-,0,0.13027599999986705,-,-,-,,,,,,,,542,19,Woman,Right,,,,,,,,,,,,,,,,,542,19,Woman,Right,
2,1,0.4,0,-,180,0.11203529999966122,-,-,-,,,,,,,,542,19,Woman,Right,,,,,,,,,,,,,,,,,542,19,Woman,Right,
2,1,0.4,180,-,0,0.053639599999769416,-,-,-,,,,,,,,542,19,Woman,Right,,,,,,,,,,,,,,,,,542,19,Woman,Right,
2,1,0.15,0,-,180,0.6331819999995787,-,-,-,,,,,,,,542,19,Woman,Right,,,,,,,,,,,,,,,,,542,19,Woman,Right,
2,1,0.4,0,-,0,0.11146409999946627,-,-,-,,,,,,,,542,19,Woman,Right,,,,,,,,,,,,,,,,,542,19,Woman,Right,
2,1,0.15,0,-,0,0.0173040999998193,-,-,-,,,,,,,,542,19,Woman,Right,,,,,,,,,,,,,,,,,542,19,Woman,Right,
2,1,0.15,0,-,0,0.016749499999605177,-,-,-,,,,,,,,542,19,Woman,Right,,,,,,,,,,,,,,,,,542,19,Woman,Right,
2,1,0.15,0,-,180,0.49702720000004774,-,-,-,,,,,,,,542,19,Woman,Right,,,,,,,,,,,,,,,,,542,19,Woman,Right,
2,1,0.4,180,-,0,0.016422400000010384,-,-,-,,,,,,,,542,19,Woman,Right,,,,,,,,,,,,,,,,,542,19,Woman,Right,
2,1,0.4,0,-,0,0.3370028999997885,-,-,-,,,,,,,,542,19,Woman,Right,,,,,,,,,,,,,,,,,542,19,Woman,Right,
2,1,0.4,180,-,0,0.05368599999928847,-,-,-,,,,,,,,542,19,Woman,Right,,,,,,,,,,,,,,,,,542,19,Woman,Right,
2,1,0.4,0,-,0,0.046228700000028766,-,-,-,,,,,,,,542,19,Woman,Right,,,,,,,,,,,,,,,,,542,19,Woman,Right,
2,1,0.15,0,-,0,0.01680289999967499,-,-,-,,,,,,,,542,19,Woman,Right,,,,,,,,,,,,,,,,,542,19,Woman,Right,
2,1,0.4,180,-,0,0.016216099999837752,-,-,-,,,,,,,,542,19,Woman,Right,,,,,,,,,,,,,,,,,542,19,Woman,Right,
2,1,0.4,0,-,0,0.01680240000041522,-,-,-,,,,,,,,542,19,Woman,Right,,,,,,,,,,,,,,,,,542,19,Woman,Right,
2,1,0.15,180,-,0,0.016738700000132667,-,-,-,,,,,,,,542,19,Woman,Right,,,,,,,,,,,,,,,,,542,19,Woman,Right,
2,1,0.4,180,-,0,0.016234200000326382,-,-,-,,,,,,,,542,19,Woman,Right,,,,,,,,,,,,,,,,,542,19,Woman,Right,
2,1,0.4,180,-,180,0.01705110000057175,-,-,-,,,,,,,,542,19,Woman,Right,,,,,,,,,,,,,,,,,542,19,Woman,Right,
2,1,0.15,0,-,180,0.016784999999799766,-,-,-,,,,,,,,542,19,Woman,Right,,,,,,,,,,,,,,,,,542,19,Woman,Right,
2,1,0.15,180,-,0,0.06576739999945858,-,-,-,,,,,,,,542,19,Woman,Right,,,,,,,,,,,,,,,,,542,19,Woman,Right,
2,1,0.15,180,-,0,0.017534100000375474,-,-,-,,,,,,,,542,19,Woman,Right,,,,,,,,,,,,,,,,,542,19,Woman,Right,
2,1,0.15,0,-,0,0.6351718000005349,-,-,-,,,,,,,,542,19,Woman,Right,,,,,,,,,,,,,,,,,542,19,Woman,Right,
2,1,0.4,0,-,0,0.40302780000001803,-,-,-,,,,,,,,542,19,Woman,Right,,,,,,,,,,,,,,,,,542,19,Woman,Right,
2,1,0.4,180,-,180,0.5171596000000136,-,-,-,,,,,,,,542,19,Woman,Right,,,,,,,,,,,,,,,,,542,19,Woman,Right,
2,1,0.15,0,-,0,0.17054170000028535,-,-,-,,,,,,,,542,19,Woman,Right,,,,,,,,,,,,,,,,,542,19,Woman,Right,
2,1,0.4,180,-,180,0.3978455999995276,-,-,-,,,,,,,,542,19,Woman,Right,,,,,,,,,,,,,,,,,542,19,Woman,Right,
2,1,0.15,180,-,180,0.6649666000002981,-,-,-,,,,,,,,542,19,Woman,Right,,,,,,,,,,,,,,,,,542,19,Woman,Right,
2,1,0.15,0,-,0,0.0568185000001904,-,-,-,,,,,,,,542,19,Woman,Right,,,,,,,,,,,,,,,,,542,19,Woman,Right,
2,1,0.4,180,-,180,0.28864659999999276,-,-,-,,,,,,,,542,19,Woman,Right,,,,,,,,,,,,,,,,,542,19,Woman,Right,
2,1,0.4,0,-,0,0.016746999999668333,-,-,-,,,,,,,,542,19,Woman,Right,,,,,,,,,,,,,,,,,542,19,Woman,Right,
2,1,0.15,180,-,180,0.34511190000011993,-,-,-,,,,,,,,542,19,Woman,Right,,,,,,,,,,,,,,,,,542,19,Woman,Right,
2,1,0.15,0,-,0,0.37391610000031505,-,-,-,,,,,,,,542,19,Woman,Right,,,,,,,,,,,,,,,,,542,19,Woman,Right,
2,1,0.15,180,-,0,0.402058699999543,-,-,-,,,,,,,,542,19,Woman,Right,,,,,,,,,,,,,,,,,542,19,Woman,Right,
2,1,0.15,0,-,180,0.41997449999962555,-,-,-,8,3,10,3,0.8,1.0,,542,19,Woman,Right,,,,,,,,,,,,,,,,,542,19,Woman,Right,
3,2,1.0,180,0,0,4.1500576999997065,['y'],3.7258865000003425,2,,,,,,,,542,19,Woman,Right,,,,,,,,,,,,,,,,,542,19,Woman,Right,
3,2,1.0,180,0,180,2.9787427999999636,['y'],3.4036126999999397,1.392,,,,,,,,542,19,Woman,Right,,,,,,,,,,,,,,,,,542,19,Woman,Right,
3,2,1.0,180,0,180,4.385741299999609,['y'],3.1067931000006865,2.0,,,,,,,,542,19,Woman,Right,,,,,,,,,,,,,,,,,542,19,Woman,Right,
3,2,1.0,180,0,0,2.2097500999998374,['y'],5.945323899999494,2.0,,,,,,,,542,19,Woman,Right,,,,,,,,,,,,,,,,,542,19,Woman,Right,
3,2,1.0,180,0,180,2.824097900000197,['n'],1.7904692000001887,1.116,,,,,,,,542,19,Woman,Right,,,,,,,,,,,,,,,,,542,19,Woman,Right,
3,2,1.0,180,0,0,1.5813215000007403,['y'],1.3101323000000775,1.726,,,,,,,,542,19,Woman,Right,,,,,,,,,,,,,,,,,542,19,Woman,Right,
3,2,1.0,180,0,0,0.7733904999995502,['y'],0.9187106999997923,1.728,,,,,,,,542,19,Woman,Right,,,,,,,,,,,,,,,,,542,19,Woman,Right,
3,2,1.0,180,0,0,1.1608957999997074,['y'],0.9467258000004222,1.854,,,,,,,,542,19,Woman,Right,,,,,,,,,,,,,,,,,542,19,Woman,Right,
3,2,1.0,0,180,180,1.9096021999994264,['y'],1.418897399999878,1.814,,,,,,,,542,19,Woman,Right,,,,,,,,,,,,,,,,,542,19,Woman,Right,
3,2,1.0,0,180,180,1.5114260000000286,['y'],3.41195770000013,1.702,,,,,,,,542,19,Woman,Right,,,,,,,,,,,,,,,,,542,19,Woman,Right,
3,2,1.0,0,180,180,2.74510569999984,['n'],1.3964030999995884,1.346,,,,,,,,542,19,Woman,Right,,,,,,,,,,,,,,,,,542,19,Woman,Right,
3,2,1.0,0,180,180,1.381737499999872,['y'],1.1592279999995299,1.8679999999999999,,,,,,,,542,19,Woman,Right,,,,,,,,,,,,,,,,,542,19,Woman,Right,
3,2,1.0,180,0,0,1.5024223000000347,['y'],0.8840112999996563,1.862,,,,,,,,542,19,Woman,Right,,,,,,,,,,,,,,,,,542,19,Woman,Right,
3,2,1.0,0,180,180,1.6727983999999196,['y'],0.8706316999996488,1.762,,,,,,,,542,19,Woman,Right,,,,,,,,,,,,,,,,,542,19,Woman,Right,
3,2,1.0,180,0,0,2.0708223999999973,['y'],4.476901799999723,1.6600000000000001,,,,,,,,542,19,Woman,Right,,,,,,,,,,,,,,,,,542,19,Woman,Right,
3,2,1.0,0,180,180,1.0924772999997003,['y'],3.586014299999988,1.814,,,,,,,,542,19,Woman,Right,,,,,,,,,,,,,,,,,542,19,Woman,Right,
3,2,1.0,0,180,180,1.3211618999994243,['y'],1.4137830999998187,1.796,,,,,,,,542,19,Woman,Right,,,,,,,,,,,,,,,,,542,19,Woman,Right,
3,2,1.0,0,180,180,1.376654900000176,['y'],2.6349639999998544,1.818,,,,,,,,542,19,Woman,Right,,,,,,,,,,,,,,,,,542,19,Woman,Right,
3,2,1.0,180,0,0,1.0578063000002658,['y'],0.433052399999724,1.888,,,,,,,,542,19,Woman,Right,,,,,,,,,,,,,,,,,542,19,Woman,Right,
3,2,1.0,0,180,180,1.9558207000000039,['y'],0.3835737999997946,1.8679999999999999,10,10,10,10,1.0,1.0,,542,19,Woman,Right,,,,,,,,,,,,,,,,,542,19,Woman,Right,
4,2,0.4,180,0,0,2.3616187999996328,['n'],3.71708099999978,1.308,,,,,,,,542,19,Woman,Right,,,,,,,,,,,,,,,,,542,19,Woman,Right,
4,2,0.4,180,0,0,0.8857606999999916,['y'],3.1007519999993747,1.754,,,,,,,,542,19,Woman,Right,,,,,,,,,,,,,,,,,542,19,Woman,Right,
4,2,0.15,0,180,0,3.118848799999796,['y'],4.211624900000061,1.744,,,,,,,,542,19,Woman,Right,,,,,,,,,,,,,,,,,542,19,Woman,Right,
4,2,0.15,0,180,180,1.8002232999997432,['y'],3.2234615999996095,1.842,,,,,,,,542,19,Woman,Right,,,,,,,,,,,,,,,,,542,19,Woman,Right,
4,2,0.15,180,0,0,1.363026699999864,['y'],3.030037500000617,1.866,,,,,,,,542,19,Woman,Right,,,,,,,,,,,,,,,,,542,19,Woman,Right,
4,2,0.4,180,0,0,1.6544338000003336,['y'],2.7826426000001447,1.746,,,,,,,,542,19,Woman,Right,,,,,,,,,,,,,,,,,542,19,Woman,Right,
4,2,0.4,0,180,180,1.9285339000007298,['n'],1.046447700000499,1.304,,,,,,,,542,19,Woman,Right,,,,,,,,,,,,,,,,,542,19,Woman,Right,
4,2,0.15,0,180,0,1.1925517999998192,['y'],2.4345446999996057,1.436,,,,,,,,542,19,Woman,Right,,,,,,,,,,,,,,,,,542,19,Woman,Right,
4,2,0.4,0,180,0,1.1004026999999041,['y'],2.5620825000005425,1.73,,,,,,,,542,19,Woman,Right,,,,,,,,,,,,,,,,,542,19,Woman,Right,
4,2,0.4,180,0,0,1.3260362000000896,['y'],1.2040231999999378,1.98,7,5,10,6,0.7,0.8333333333333334,,542,19,Woman,Right,,,,,,,,,,,,,,,,,542,19,Woman,Right,
5,3,1.0,180,0,0,0.7396217000004981,['y'],2.184850699999515,1.81,,,,,,,,542,19,Woman,Right,,,,,,,,,,,,,,,,,542,19,Woman,Right,
5,3,1.0,180,0,0,1.3947387000007438,['y'],2.3977637000007235,1.874,,,,,,,,542,19,Woman,Right,,,,,,,,,,,,,,,,,542,19,Woman,Right,
5,3,0.15,0,-,0,1.0423037000000477,['y'],0.9717058999995061,1.52,,,,,,,,542,19,Woman,Right,,,,,,,,,,,,,,,,,542,19,Woman,Right,
5,3,1.0,0,-,0,1.031058600000506,['n'],2.432435499999883,1.974,,,,,,,,542,19,Woman,Right,,,,,,,,,,,,,,,,,542,19,Woman,Right,
5,3,1.0,0,180,180,0.9820853999999599,['y'],0.6095217000001867,1.846,,,,,,,,542,19,Woman,Right,,,,,,,,,,,,,,,,,542,19,Woman,Right,
5,3,1.0,0,180,180,1.0684017000003223,['y'],7.164897300000121,1.69,,,,,,,,542,19,Woman,Right,,,,,,,,,,,,,,,,,542,19,Woman,Right,
5,3,0.15,180,-,0,2.1322736000001896,['n'],1.6013456999999107,1.838,,,,,,,,542,19,Woman,Right,,,,,,,,,,,,,,,,,542,19,Woman,Right,
5,3,0.15,0,-,0,0.7124121999995623,['n'],1.086918500000138,1.5739999999999998,,,,,,,,542,19,Woman,Right,,,,,,,,,,,,,,,,,542,19,Woman,Right,
5,3,0.15,180,-,180,0.8424560000003112,['n'],0.4511290000000372,1.676,,,,,,,,542,19,Woman,Right,,,,,,,,,,,,,,,,,542,19,Woman,Right,
5,3,0.4,0,-,180,0.7075820999998541,['n'],0.89109020000069,1.566,8,5,10,6,0.8,0.8333333333333334,,542,19,Woman,Right,,,,,,,,,,,,,,,,,542,19,Woman,Right,
,,,,,,,,,,,,,,,,5.099999725644011e-06,542,19,Woman,Right,,,,,,,,,,,,,,,,,542,19,Woman,Right,
,,,,,,,,,,,,,,,,,542,19,Woman,Right,0,72,0.15,1,0,-,180,1.2495918000004167,['n'],1.6035243000005721,1.29,622.2155920999994,,,,,542,19,Woman,Right,
,,,,,,,,,,,,,,,,,542,19,Woman,Right,0,7,1,2,180,0,0,1.113675499999772,['y'],4.047973300000194,1.87,633.2310995999997,,,,,542,19,Woman,Right,
,,,,,,,,,,,,,,,,,542,19,Woman,Right,0,31,0.4,2,180,0,0,0.8777335999993738,['y'],1.4883820000004562,1.8900000000000001,639.6648310999999,,,,,542,19,Woman,Right,
,,,,,,,,,,,,,,,,,542,19,Woman,Right,0,66,0.15,1,180,-,0,0.5863779000001159,['n'],1.087737400000151,1.384,645.4816231999994,,,,,542,19,Woman,Right,
,,,,,,,,,,,,,,,,,542,19,Woman,Right,0,27,0.4,2,180,0,0,0.5380666000000929,['n'],2.095948099999987,1.346,652.7318261999999,,,,,542,19,Woman,Right,
,,,,,,,,,,,,,,,,,542,19,Woman,Right,0,20,0.4,1,0,-,180,0.9127974000002723,['y'],1.1999871999996685,1.754,658.7990249999993,,,,,542,19,Woman,Right,
,,,,,,,,,,,,,,,,,542,19,Woman,Right,0,6,1,1,180,-,180,0.7598401999994167,['n'],0.8878304999998363,1.74,664.6976403999997,,,,,542,19,Woman,Right,
,,,,,,,,,,,,,,,,,542,19,Woman,Right,0,65,0.15,2,0,180,0,1.2623070999998163,['n'],1.3840476000004855,1.262,671.4813469000001,,,,,542,19,Woman,Right,
,,,,,,,,,,,,,,,,,542,19,Woman,Right,0,57,0.15,2,0,180,0,0.7282380999995439,['n'],0.9515213999993648,1.212,677.4654193999995,,,,,542,19,Woman,Right,
,,,,,,,,,,,,,,,,,542,19,Woman,Right,0,70,0.15,1,180,-,0,0.60074270000041,['n'],0.8879452999999558,1.1320000000000001,683.2809978999994,,,,,542,19,Woman,Right,
,,,,,,,,,,,,,,,,,542,19,Woman,Right,0,52,0.15,1,0,-,0,1.0581296000000293,['n'],1.3600625999997646,1.25,690.1482602999995,,,,,542,19,Woman,Right,
,,,,,,,,,,,,,,,,,542,19,Woman,Right,0,46,0.15,1,180,-,0,0.6942950000002384,['n'],0.8643504000001485,1.134,696.0813755999998,,,,,542,19,Woman,Right,
,,,,,,,,,,,,,,,,,542,19,Woman,Right,0,39,0.4,2,180,0,0,0.6641800999996121,['n'],0.872411600000305,1.256,702.4484697999997,,,,,542,19,Woman,Right,
,,,,,,,,,,,,,,,,,542,19,Woman,Right,0,2,1,1,180,-,0,0.4556265000001076,['y'],1.3523544999998194,1.534,708.8150451000001,,,,,542,19,Woman,Right,
,,,,,,,,,,,,,,,,,542,19,Woman,Right,0,43,0.4,2,180,0,0,0.5579202999997506,['y'],3.3118383000000904,1.0,716.7984270999996,,,,,542,19,Woman,Right,
,,,,,,,,,,,,,,,,,542,19,Woman,Right,0,67,0.15,2,180,0,0,1.9493173000000752,['y'],5.1574320999998235,1.0,728.6310540999993,,,,,542,19,Woman,Right,
,,,,,,,,,,,,,,,,,542,19,Woman,Right,0,0,1,1,0,-,0,2.9603611000002275,['n'],2.0644917999998142,1.0,738.0648946000001,,,,,542,19,Woman,Right,
,,,,,,,,,,,,,,,,,542,19,Woman,Right,0,63,0.15,2,180,0,0,0.5928106999999727,['n'],1.160584000000199,1.0,743.8138975000002,,,,,542,19,Woman,Right,
,,,,,,,,,,,,,,,,,542,19,Woman,Right,0,73,0.15,2,0,180,0,1.0161189000000377,['n'],3.6170460000003004,1.0,753.0315441000002,,,,,542,19,Woman,Right,
,,,,,,,,,,,,,,,,,542,19,Woman,Right,0,51,0.15,2,180,0,0,1.0971081000006961,['y'],1.3123176999997668,1.596,760.2638517999994,,,,,542,19,Woman,Right,
,,,,,,,,,,,,,,,,,542,19,Woman,Right,0,25,0.4,2,0,180,0,0.6202859000004537,['y'],0.9841207999998005,1.522,765.5806455000002,,,,,542,19,Woman,Right,
,,,,,,,,,,,,,,,,,542,19,Woman,Right,0,71,0.15,2,180,0,0,1.0685792000003858,['y'],1.624594299999444,1.774,772.5470512000002,,,,,542,19,Woman,Right,
,,,,,,,,,,,,,,,,,542,19,Woman,Right,0,32,0.4,1,0,-,0,0.5932099999999991,['n'],0.8565742000000682,1.808,779.4800629000001,,,,,542,19,Woman,Right,
,,,,,,,,,,,,,,,,,542,19,Woman,Right,0,36,0.4,1,0,-,0,2.8968522999994093,['n'],3.808415600000444,1.32,795.0300536999994,,,,,542,19,Woman,Right,
,,,,,,,,,,,,,,,,,542,19,Woman,Right,0,13,0.4,2,0,180,180,2.315957800000433,['y'],1.408618600000409,1.71,803.6307042999997,,,,,542,19,Woman,Right,
,,,,,,,,,,,,,,,,,542,19,Woman,Right,0,18,0.4,1,180,-,0,0.950627600000189,['n'],0.8888311999999132,1.722,809.7314059,,,,,542,19,Woman,Right,
,,,,,,,,,,,,,,,,,542,19,Woman,Right,0,60,0.15,1,0,-,0,0.5279475999996066,['n'],2.712799400000222,1.758,817.2473301999999,,,,,542,19,Woman,Right,
,,,,,,,,,,,,,,,,,542,19,Woman,Right,0,10,0.4,1,180,-,0,0.6130203000002439,['n'],2.5691618999999264,1.43,825.0808083000002,,,,,542,19,Woman,Right,
,,,,,,,,,,,,,,,,,542,19,Woman,Right,0,9,0.4,2,0,180,180,1.4868962999998985,['y'],1.072388100000353,1.612,831.6142811999998,,,,,542,19,Woman,Right,
,,,,,,,,,,,,,,,,,542,19,Woman,Right,0,4,1,1,0,-,0,0.4841938999998092,['n'],0.793026500000451,2.0,836.6977485999996,,,,,542,19,Woman,Right,
,,,,,,,,,,,,,,,,,542,19,Woman,Right,0,64,0.15,1,0,-,0,1.192980400000124,['n'],0.8892660999999862,1.468,842.8145261999998,,,,,542,19,Woman,Right,
,,,,,,,,,,,,,,,,,542,19,Woman,Right,0,42,0.4,1,180,-,180,1.386602500000663,['n'],1.128950100000111,1.072,849.0471613,,,,,542,19,Woman,Right,
,,,,,,,,,,,,,,,,,542,19,Woman,Right,0,19,0.4,2,180,0,0,0.7424771000005421,['y'],0.9687470999997458,1.576,855.1139269999994,,,,,542,19,Woman,Right,
,,,,,,,,,,,,,,,,,542,19,Woman,Right,0,37,0.4,2,0,180,0,1.7998042999997779,['y'],0.9040670000003956,1.562,861.3978901,,,,,542,19,Woman,Right,
,,,,,,,,,,,,,,,,,542,19,Woman,Right,0,74,0.15,1,180,-,0,0.7637326999993093,['n'],1.7533002000000124,1.274,869.8638584,,,,,542,19,Woman,Right,
,,,,,,,,,,,,,,,,,542,19,Woman,Right,0,30,0.4,1,180,-,0,0.6717435999998997,['n'],1.865237299999535,1.228,877.2477146000001,,,,,542,19,Woman,Right,
,,,,,,,,,,,,,,,,,542,19,Woman,Right,0,79,0.15,2,180,0,0,0.3893107999992935,['n'],0.856979300000603,1.736,883.4151969999994,,,,,542,19,Woman,Right,
,,,,,,,,,,,,,,,,,542,19,Woman,Right,0,75,0.15,2,180,0,0,0.6384140999998635,['n'],1.3527108999996926,1.558,889.2801590999998,,,,,542,19,Woman,Right,
,,,,,,,,,,,,,,,,,542,19,Woman,Right,0,48,0.15,1,0,-,0,0.3829775000003792,['n'],2.297019700000419,1.604,898.5643823,,,,,542,19,Woman,Right,
,,,,,,,,,,,,,,,,,542,19,Woman,Right,0,23,0.4,2,180,0,0,0.6164036000000124,['y'],0.848883399999977,1.728,904.2637333000002,,,,,542,19,Woman,Right,
,,,,,,,,,,,,,,,,,542,19,Woman,Right,0,69,0.15,2,0,180,180,0.6658445000002757,['n'],1.8655387999997401,1.688,912.3801389,,,,,542,19,Woman,Right,
,,,,,,,,,,,,,,,,,542,19,Woman,Right,0,28,0.4,1,0,-,0,0.4905108000002656,['y'],2.401998800000001,1.6480000000000001,919.9975588999996,,,,,542,19,Woman,Right,
,,,,,,,,,,,,,,,,,542,19,Woman,Right,0,38,0.4,1,180,-,0,1.7117438000004768,['n'],1.8098683999996865,1.626,928.5794780999995,,,,,542,19,Woman,Right,
,,,,,,,,,,,,,,,,,542,19,Woman,Right,0,56,0.15,1,0,-,180,1.481372299999748,['n'],3.537768999999571,1.3900000000000001,937.7970791999996,,,,,542,19,Woman,Right,
,,,,,,,,,,,,,,,,,542,19,Woman,Right,0,21,0.4,2,0,180,180,0.8680486000002929,['y'],1.0017342000001008,1.6320000000000001,943.5800027999994,,,,,542,19,Woman,Right,
,,,,,,,,,,,,,,,,,542,19,Woman,Right,0,58,0.15,1,180,-,180,0.7982841000002736,['n'],1.0337687000001097,1.6440000000000001,949.5975651999997,,,,,542,19,Woman,Right,
,,,,,,,,,,,,,,,,,542,19,Woman,Right,0,1,1,2,0,180,180,0.567327199999454,['y'],1.489868600000591,1.984,956.4799077999996,,,,,542,19,Woman,Right,
,,,,,,,,,,,,,,,,,542,19,Woman,Right,0,47,0.15,2,180,0,0,0.44958690000021306,['y'],0.89780250000058,1.764,962.5633435999998,,,,,542,19,Woman,Right,
,,,,,,,,,,,,,,,,,542,19,Woman,Right,0,5,1,2,0,180,180,0.6799089999994976,['y'],1.2973104999991847,1.876,968.9134663999994,,,,,542,19,Woman,Right,
,,,,,,,,,,,,,,,,,542,19,Woman,Right,0,44,0.15,1,0,-,180,1.08206650000011,['n'],2.0895332000000053,1.6179999999999999,976.7972761000001,,,,,542,19,Woman,Right,
,,,,,,,,,,,,,,,,,542,19,Woman,Right,0,11,0.4,2,180,0,180,0.5497087000003376,['n'],0.897590699999455,1.464,981.9133940000002,,,,,542,19,Woman,Right,
,,,,,,,,,,,,,,,,,542,19,Woman,Right,0,8,0.4,1,0,-,180,0.8319202000002406,['n'],0.8652648999996018,1.3559999999999999,987.9648372000001,,,,,542,19,Woman,Right,
,,,,,,,,,,,,,,,,,542,19,Woman,Right,0,3,1,2,180,0,0,0.366222700000435,['y'],1.0018423000001349,1.6019999999999999,993.4966804999995,,,,,542,19,Woman,Right,
,,,,,,,,,,,,,,,,,542,19,Woman,Right,0,68,0.15,1,0,-,180,1.3558881999997539,['y'],3.113638699999683,1.222,1002.6970557999994,,,,,542,19,Woman,Right,
,,,,,,,,,,,,,,,,,542,19,Woman,Right,0,49,0.15,2,0,180,0,0.48253049999948416,['n'],1.8972602000003462,1.3319999999999999,1010.2307254999996,,,,,542,19,Woman,Right,
,,,,,,,,,,,,,,,,,542,19,Woman,Right,0,59,0.15,2,180,0,180,2.9059465000000273,['n'],1.4574810000003708,1.262,1018.9970170999995,,,,,542,19,Woman,Right,
,,,,,,,,,,,,,,,,,542,19,Woman,Right,0,62,0.15,1,180,-,180,0.941910900000039,['n'],1.3300614999998288,1.32,1026.2470028999996,,,,,542,19,Woman,Right,
,,,,,,,,,,,,,,,,,542,19,Woman,Right,0,50,0.15,1,180,-,180,0.4608029999999417,['n'],1.2901329999995141,1.274,1032.1968619,,,,,542,19,Woman,Right,
,,,,,,,,,,,,,,,,,542,19,Woman,Right,0,35,0.4,2,180,0,0,0.45057989999986603,['y'],0.9135289000005287,1.6560000000000001,1037.8957365999995,,,,,542,19,Woman,Right,
,,,,,,,,,,,,,,,,,542,19,Woman,Right,0,61,0.15,2,0,180,0,0.4132269000001543,['n'],1.8262087000002794,1.37,1051.3966230999995,,,,,542,19,Woman,Right,
,,,,,,,,,,,,,,,,,542,19,Woman,Right,0,34,0.4,1,180,-,0,0.40505790000042907,['n'],0.9543545999995331,1.6,1056.4296829999994,,,,,542,19,Woman,Right,
,,,,,,,,,,,,,,,,,542,19,Woman,Right,0,15,0.4,2,180,0,0,0.4883832999994411,['n'],0.858250099999168,1.294,1061.4135724999996,,,,,542,19,Woman,Right,
,,,,,,,,,,,,,,,,,542,19,Woman,Right,0,29,0.4,2,0,180,0,0.14277100000072096,['y'],1.642662599999312,1.358,1068.6629254,,,,,542,19,Woman,Right,
,,,,,,,,,,,,,,,,,542,19,Woman,Right,0,77,0.15,2,0,180,0,1.1648724999995466,['n'],1.409745899999507,1.328,1075.5970650999998,,,,,542,19,Woman,Right,
,,,,,,,,,,,,,,,,,542,19,Woman,Right,0,12,0.4,1,0,-,0,0.8029692999998588,['n'],1.6025055000000066,1.3399999999999999,1082.2290499,,,,,542,19,Woman,Right,
,,,,,,,,,,,,,,,,,542,19,Woman,Right,0,40,0.4,1,0,-,0,0.9960301000000982,['n'],3.9062149000001227,1.304,1091.8289851,,,,,542,19,Woman,Right,
,,,,,,,,,,,,,,,,,542,19,Woman,Right,0,53,0.15,2,0,180,180,1.180315000000519,['y'],1.2578075000001263,1.8439999999999999,1099.2628651999994,,,,,542,19,Woman,Right,
,,,,,,,,,,,,,,,,,542,19,Woman,Right,0,45,0.15,2,0,180,180,0.7087130999998408,['y'],1.25018480000017,1.72,1105.8797115999996,,,,,542,19,Woman,Right,
,,,,,,,,,,,,,,,,,542,19,Woman,Right,0,54,0.15,1,180,-,180,1.0898885000005976,['n'],4.178356700000222,1.834,1119.6466641999996,,,,,542,19,Woman,Right,
,,,,,,,,,,,,,,,,,542,19,Woman,Right,0,78,0.15,1,180,-,0,0.5010800000000017,['y'],1.1783353000000716,1.69,1126.4470334999996,,,,,542,19,Woman,Right,
,,,,,,,,,,,,,,,,,542,19,Woman,Right,0,14,0.4,1,180,-,180,1.3650244999998904,['n'],2.6429042999998273,1.718,1134.6465122999998,,,,,542,19,Woman,Right,
,,,,,,,,,,,,,,,,,542,19,Woman,Right,0,55,0.15,2,180,0,0,0.41300739999951475,['n'],1.4666760999998587,1.726,1140.7471706999995,,,,,542,19,Woman,Right,
,,,,,,,,,,,,,,,,,542,19,Woman,Right,0,33,0.4,2,0,180,180,0.4749338000001444,['n'],1.83493610000005,1.7,1154.6797773999997,,,,,542,19,Woman,Right,
,,,,,,,,,,,,,,,,,542,19,Woman,Right,0,26,0.4,1,180,-,0,1.0492395999999644,['y'],1.9388269999999466,1.69,1163.4463397,,,,,542,19,Woman,Right,
,,,,,,,,,,,,,,,,,542,19,Woman,Right,0,41,0.4,2,0,180,180,1.3738100999999006,['n'],1.6349294000001464,1.676,1170.7287931,,,,,542,19,Woman,Right,
,,,,,,,,,,,,,,,,,542,19,Woman,Right,0,24,0.4,1,0,-,180,1.0150563000006514,['n'],1.6431416999994326,1.862,1179.0624779,,,,,542,19,Woman,Right,
,,,,,,,,,,,,,,,,,542,19,Woman,Right,0,76,0.15,1,0,-,180,0.8122762000002695,['y'],1.1227547999997114,1.536,1186.0455762000001,,,,,542,19,Woman,Right,
,,,,,,,,,,,,,,,,,542,19,Woman,Right,0,17,0.4,2,0,180,180,1.1611882000006517,['n'],2.162395500000457,1.376,1193.6126259000002,,,,,542,19,Woman,Right,
,,,,,,,,,,,,,,,,,542,19,Woman,Right,0,16,0.4,1,0,-,0,0.6263943000003565,['n'],3.5387909999999465,1.392,1202.3790374,,,,,542,19,Woman,Right,
,,,,,,,,,,,,,,,,,542,19,Woman,Right,0,22,0.4,1,180,-,180,1.1777456999998321,['n'],2.7065742999993745,1.248,1210.7293344,,,,,542,19,Woman,Right,
,,,,,,,,,,,,,,,,,542,19,Woman,Right,1,35,0.4,2,180,0,0,1.7277940000003582,['n'],1.6187647999995534,1.5939999999999999,1259.0950801,61.25,82.5,52.5,,542,19,Woman,Right,
,,,,,,,,,,,,,,,,,542,19,Woman,Right,1,23,0.4,2,180,0,0,1.2792546000000584,['y'],0.8835195999999996,1.564,1265.7471102999998,,,,,542,19,Woman,Right,
,,,,,,,,,,,,,,,,,542,19,Woman,Right,1,79,0.15,2,180,0,0,0.3778700000002573,['y'],1.4350330999996004,1.6019999999999999,1271.6133051999996,,,,,542,19,Woman,Right,
,,,,,,,,,,,,,,,,,542,19,Woman,Right,1,10,0.4,1,180,-,180,0.685197199999493,['n'],0.8270796999995582,1.71,1277.0127071999996,,,,,542,19,Woman,Right,
,,,,,,,,,,,,,,,,,542,19,Woman,Right,1,3,1,2,180,0,0,0.3578987999999299,['y'],0.8429108000000269,1.5979999999999999,1282.12817,,,,,542,19,Woman,Right,
,,,,,,,,,,,,,,,,,542,19,Woman,Right,1,69,0.15,2,0,180,180,3.193211699999665,['n'],2.7398201999994853,1.324,1292.4118194000002,,,,,542,19,Woman,Right,
,,,,,,,,,,,,,,,,,542,19,Woman,Right,1,38,0.4,1,180,-,0,0.5855378999995082,['n'],0.8435867999996844,1.396,1297.8967752999997,,,,,542,19,Woman,Right,
,,,,,,,,,,,,,,,,,542,19,Woman,Right,1,72,0.15,1,0,-,0,1.033516200000122,['n'],2.394871599999533,1.392,1305.4622272999995,,,,,542,19,Woman,Right,
,,,,,,,,,,,,,,,,,542,19,Woman,Right,1,7,1,2,180,0,0,0.30301569999937783,['y'],0.9231374999999389,1.6,1311.0620767,,,,,542,19,Woman,Right,
,,,,,,,,,,,,,,,,,542,19,Woman,Right,1,56,0.15,1,0,-,0,1.0931357999998,['n'],1.1391188999996302,1.3820000000000001,1317.4611869,,,,,542,19,Woman,Right,
,,,,,,,,,,,,,,,,,542,19,Woman,Right,1,11,0.4,2,180,0,0,1.4498126999997112,['y'],1.8022564000002603,1.408,1325.5119942000001,,,,,542,19,Woman,Right,
,,,,,,,,,,,,,,,,,542,19,Woman,Right,1,12,0.4,1,0,-,0,9.820857499999875,['y'],4.899401399999988,1.32,1344.9780664,,,,,542,19,Woman,Right,
,,,,,,,,,,,,,,,,,542,19,Woman,Right,1,18,0.4,1,180,-,180,1.0840570999998818,['n'],0.8674049000001105,1.314,1350.9460044999996,,,,,542,19,Woman,Right,
,,,,,,,,,,,,,,,,,542,19,Woman,Right,1,54,0.15,1,180,-,180,1.6223766000002797,['n'],0.9717522000000827,1.314,1357.4279397999999,,,,,542,19,Woman,Right,
,,,,,,,,,,,,,,,,,542,19,Woman,Right,1,68,0.15,1,0,-,0,2.103243000000475,['n'],0.9558140999997704,1.15,1365.0120331999997,,,,,542,19,Woman,Right,
,,,,,,,,,,,,,,,,,542,19,Woman,Right,1,16,0.4,1,0,-,0,0.6516971000000922,['n'],1.1558212999998432,1.35,1371.2787914,,,,,542,19,Woman,Right,
,,,,,,,,,,,,,,,,,542,19,Woman,Right,1,61,0.15,2,0,180,0,1.0911555999991833,['n'],1.0758705000007467,1.5979999999999999,1377.5452757999992,,,,,542,19,Woman,Right,
,,,,,,,,,,,,,,,,,542,19,Woman,Right,1,57,0.15,2,0,180,0,0.40467899999930523,['n'],0.8758318000000145,1.58,1382.5110504999993,,,,,542,19,Woman,Right,
,,,,,,,,,,,,,,,,,542,19,Woman,Right,1,50,0.15,1,180,-,180,0.808763099999851,['n'],0.8435902000001079,1.6640000000000001,1388.7110673000006,,,,,542,19,Woman,Right,
,,,,,,,,,,,,,,,,,542,19,Woman,Right,1,1,1,2,0,180,180,0.8131807000008848,['y'],1.2440533000008145,1.9020000000000001,1395.5777677999995,,,,,542,19,Woman,Right,
,,,,,,,,,,,,,,,,,542,19,Woman,Right,1,39,0.4,2,180,0,0,0.5148004999991826,['n'],0.8836824999998498,1.0,1401.4118022999992,,,,,542,19,Woman,Right,
,,,,,,,,,,,,,,,,,542,19,Woman,Right,1,44,0.15,1,0,-,180,0.6765867999984039,['n'],0.8759840000002441,1.6280000000000001,1407.0778131999996,,,,,542,19,Woman,Right,
,,,,,,,,,,,,,,,,,542,19,Woman,Right,1,48,0.15,1,0,-,180,0.430146099999547,['n'],0.9077816999997594,1.756,1413.1948396999996,,,,,542,19,Woman,Right,
,,,,,,,,,,,,,,,,,542,19,Woman,Right,1,64,0.15,1,0,-,180,0.5114918999988731,['n'],1.0602326000007452,1.838,1418.9952467999992,,,,,542,19,Woman,Right,
,,,,,,,,,,,,,,,,,542,19,Woman,Right,1,32,0.4,1,0,-,0,1.2701352999993105,['n'],1.46810319999895,1.716,1426.8452349,,,,,542,19,Woman,Right,
,,,,,,,,,,,,,,,,,542,19,Woman,Right,1,41,0.4,2,0,180,180,0.6564532000011241,['y'],0.979667800000243,1.71,1432.9772534000003,,,,,542,19,Woman,Right,
,,,,,,,,,,,,,,,,,542,19,Woman,Right,1,4,1,1,0,-,0,1.592390499999965,['y'],1.2361622999997053,1.8559999999999999,1439.7117942999994,,,,,542,19,Woman,Right,
,,,,,,,,,,,,,,,,,542,19,Woman,Right,1,2,1,1,180,-,180,1.1622824999994918,['n'],1.26067250000051,1.71,1446.2280460000002,,,,,542,19,Woman,Right,
,,,,,,,,,,,,,,,,,542,19,Woman,Right,1,55,0.15,2,180,0,0,1.8074231000009604,['n'],3.147278300000835,1.3399999999999999,1455.1108473000004,,,,,542,19,Woman,Right,
,,,,,,,,,,,,,,,,,542,19,Woman,Right,1,60,0.15,1,0,-,180,1.1371988999999303,['n'],1.8525298999993538,1.638,1462.0780656000006,,,,,542,19,Woman,Right,
,,,,,,,,,,,,,,,,,542,19,Woman,Right,1,42,0.4,1,180,-,180,1.09848189999866,['n'],0.9318492000002152,1.6,1468.7274445000003,,,,,542,19,Woman,Right,
,,,,,,,,,,,,,,,,,542,19,Woman,Right,1,71,0.15,2,180,0,0,0.9299014999996871,['y'],0.9883774999998423,1.6520000000000001,1474.5611852999991,,,,,542,19,Woman,Right,
,,,,,,,,,,,,,,,,,542,19,Woman,Right,1,46,0.15,1,180,-,0,0.7711551000011241,['n'],2.2280112999997073,1.446,1481.5613778999996,,,,,542,19,Woman,Right,
,,,,,,,,,,,,,,,,,542,19,Woman,Right,1,75,0.15,2,180,0,0,0.5169454999995651,['n'],1.3968421000008675,1.626,1492.6449162999997,,,,,542,19,Woman,Right,
,,,,,,,,,,,,,,,,,542,19,Woman,Right,1,6,1,1,180,-,0,0.5427689999996801,['y'],1.1806686999989324,1.6320000000000001,1498.2112484999998,,,,,542,19,Woman,Right,
,,,,,,,,,,,,,,,,,542,19,Woman,Right,1,36,0.4,1,0,-,0,0.5788851999986946,['n'],0.8930321999996522,1.634,1504.4114453999991,,,,,542,19,Woman,Right,
,,,,,,,,,,,,,,,,,542,19,Woman,Right,1,33,0.4,2,0,180,0,0.5024756000002526,['n'],0.8126812999998947,1.5859999999999999,1509.7112130000005,,,,,542,19,Woman,Right,
,,,,,,,,,,,,,,,,,542,19,Woman,Right,1,67,0.15,2,180,0,0,0.40422209999996994,['n'],0.9485875999998825,1.0939999999999999,1514.8449653999996,,,,,542,19,Woman,Right,
,,,,,,,,,,,,,,,,,542,19,Woman,Right,1,34,0.4,1,180,-,0,0.6722322999994503,['n'],1.0764985000005254,1.224,1520.8447797999997,,,,,542,19,Woman,Right,
,,,,,,,,,,,,,,,,,542,19,Woman,Right,1,27,0.4,2,180,0,0,0.33470430000124907,['n'],1.0527889000004507,1.584,1527.8278341999994,,,,,542,19,Woman,Right,
,,,,,,,,,,,,,,,,,542,19,Woman,Right,1,29,0.4,2,0,180,0,0.3829284000003099,['n'],0.9408571000003576,1.456,1533.1273330999993,,,,,542,19,Woman,Right,
,,,,,,,,,,,,,,,,,542,19,Woman,Right,1,19,0.4,2,180,0,0,1.4912428999996337,['y'],0.828241799999887,1.6400000000000001,1539.6446880000003,,,,,542,19,Woman,Right,
,,,,,,,,,,,,,,,,,542,19,Woman,Right,1,31,0.4,2,180,0,0,0.3828566000011051,['y'],0.9808202000003803,1.616,1545.3945411000004,,,,,542,19,Woman,Right,
,,,,,,,,,,,,,,,,,542,19,Woman,Right,1,15,0.4,2,180,0,180,1.3732844999994995,['n'],7.820454500000778,1.354,1558.4609185999998,,,,,542,19,Woman,Right,
,,,,,,,,,,,,,,,,,542,19,Woman,Right,1,24,0.4,1,0,-,180,1.0735956000007718,['n'],0.9887801000004401,1.124,1564.4445515999996,,,,,542,19,Woman,Right,
,,,,,,,,,,,,,,,,,542,19,Woman,Right,1,76,0.15,1,0,-,0,0.8539651000010053,['n'],0.8130779999992228,1.626,1570.3945170999996,,,,,542,19,Woman,Right,
,,,,,,,,,,,,,,,,,542,19,Woman,Right,1,37,0.4,2,0,180,0,0.6442662000008568,['n'],0.9651014999999461,1.5859999999999999,1580.710885999999,,,,,542,19,Woman,Right,
,,,,,,,,,,,,,,,,,542,19,Woman,Right,1,25,0.4,2,0,180,0,1.050883599998997,['n'],3.004310700000133,1.16,1588.6278684999997,,,,,542,19,Woman,Right,
,,,,,,,,,,,,,,,,,542,19,Woman,Right,1,78,0.15,1,180,-,0,0.840615599998273,['n'],1.5327737999996316,1.088,1594.994215499999,,,,,542,19,Woman,Right,
,,,,,,,,,,,,,,,,,542,19,Woman,Right,1,63,0.15,2,180,0,0,0.32763469999918016,['n'],0.8370429999995395,1.3639999999999999,1600.2445432999993,,,,,542,19,Woman,Right,
,,,,,,,,,,,,,,,,,542,19,Woman,Right,1,30,0.4,1,180,-,0,0.3568187000000762,['n'],1.3170352000015555,1.362,1605.526683099999,,,,,542,19,Woman,Right,
,,,,,,,,,,,,,,,,,542,19,Woman,Right,1,66,0.15,1,180,-,0,0.7998810999997659,['n'],0.7813129000005574,1.362,1610.8443451999992,,,,,542,19,Woman,Right,
,,,,,,,,,,,,,,,,,542,19,Woman,Right,1,14,0.4,1,180,-,0,0.36143059999994875,['n'],1.9012446999986423,1.696,1619.445042199999,,,,,542,19,Woman,Right,
,,,,,,,,,,,,,,,,,542,19,Woman,Right,1,51,0.15,2,180,0,0,0.896319699999367,['n'],1.2211191000005783,1.384,1625.859952499999,,,,,542,19,Woman,Right,
,,,,,,,,,,,,,,,,,542,19,Woman,Right,1,8,0.4,1,0,-,0,1.0819642000005842,['n'],0.869229500000074,1.684,1633.8102794000006,,,,,542,19,Woman,Right,
,,,,,,,,,,,,,,,,,542,19,Woman,Right,1,59,0.15,2,180,0,0,0.6581301000005624,['n'],0.9254275000002963,1.686,1639.0768781000006,,,,,542,19,Woman,Right,
,,,,,,,,,,,,,,,,,542,19,Woman,Right,1,0,1,1,0,-,0,0.8491570000005595,['n'],2.277157599999555,1.686,1646.0604074000003,,,,,542,19,Woman,Right,
,,,,,,,,,,,,,,,,,542,19,Woman,Right,1,73,0.15,2,0,180,0,0.7841007999995782,['n'],1.7734844999995403,1.686,1652.3101760999998,,,,,542,19,Woman,Right,
,,,,,,,,,,,,,,,,,542,19,Woman,Right,1,47,0.15,2,180,0,0,2.297494500000539,['n'],0.8136204999991605,1.384,1664.2607057999994,,,,,542,19,Woman,Right,
,,,,,,,,,,,,,,,,,542,19,Woman,Right,1,77,0.15,2,0,180,0,1.2090208000008715,['n'],1.7973168000007718,1.704,1671.4106238999993,,,,,542,19,Woman,Right,
,,,,,,,,,,,,,,,,,542,19,Woman,Right,1,43,0.4,2,180,0,0,1.300502800000686,['y'],1.2693560000006983,1.672,1678.8594632000004,,,,,542,19,Woman,Right,
,,,,,,,,,,,,,,,,,542,19,Woman,Right,1,28,0.4,1,0,-,0,1.3961691000004066,['n'],1.1650797999991482,1.244,1686.0439843999993,,,,,542,19,Woman,Right,
,,,,,,,,,,,,,,,,,542,19,Woman,Right,1,21,0.4,2,0,180,0,1.7732108000000153,['n'],1.1094285999988642,1.342,1699.4600623000006,,,,,542,19,Woman,Right,
,,,,,,,,,,,,,,,,,542,19,Woman,Right,1,13,0.4,2,0,180,0,1.2337158999998792,['y'],2.7731784000006883,1.286,1709.4107748000006,,,,,542,19,Woman,Right,
,,,,,,,,,,,,,,,,,542,19,Woman,Right,1,17,0.4,2,0,180,0,1.0524088000001939,['y'],1.1173166000007768,1.328,1716.6772748000003,,,,,542,19,Woman,Right,
,,,,,,,,,,,,,,,,,542,19,Woman,Right,1,45,0.15,2,0,180,0,0.3229310999995505,['y'],1.2692881000002671,1.006,1722.5768917999994,,,,,542,19,Woman,Right,
,,,,,,,,,,,,,,,,,542,19,Woman,Right,1,40,0.4,1,0,-,0,2.2555880999989313,['n'],2.8540236999997433,1.116,1732.1766176,,,,,542,19,Woman,Right,
,,,,,,,,,,,,,,,,,542,19,Woman,Right,1,9,0.4,2,0,180,180,1.1511358000007021,['y'],0.9655254999997851,1.642,1738.7272656000005,,,,,542,19,Woman,Right,
,,,,,,,,,,,,,,,,,542,19,Woman,Right,1,5,1,2,0,180,180,1.149117599999954,['y'],0.9280706999998074,1.832,1744.9094440999997,,,,,542,19,Woman,Right,
,,,,,,,,,,,,,,,,,542,19,Woman,Right,1,52,0.15,1,0,-,0,1.2589346999993722,['y'],1.1100783999991108,1.3980000000000001,1751.3765010999996,,,,,542,19,Woman,Right,
,,,,,,,,,,,,,,,,,542,19,Woman,Right,1,20,0.4,1,0,-,0,0.9536188000001857,['y'],5.133603399999629,1.036,1761.5593341999993,,,,,542,19,Woman,Right,
,,,,,,,,,,,,,,,,,542,19,Woman,Right,1,49,0.15,2,0,180,0,1.7084165999985998,['n'],1.8302705000005517,1.046,1768.8432274999996,,,,,542,19,Woman,Right,
,,,,,,,,,,,,,,,,,542,19,Woman,Right,1,58,0.15,1,180,-,0,1.2021381000013207,['n'],3.4457287000004726,1.158,1778.243430999999,,,,,542,19,Woman,Right,
,,,,,,,,,,,,,,,,,542,19,Woman,Right,1,65,0.15,2,0,180,0,1.5310270999998465,['y'],0.9821322999996482,1.0,1784.560805699999,,,,,542,19,Woman,Right,
,,,,,,,,,,,,,,,,,542,19,Woman,Right,1,26,0.4,1,180,-,0,0.5870271999992838,['n'],2.0774590999990323,1.064,1791.0435048,,,,,542,19,Woman,Right,
,,,,,,,,,,,,,,,,,542,19,Woman,Right,1,22,0.4,1,180,-,180,1.08838520000063,['n'],0.8384138000001258,1.6059999999999999,1797.0098691999992,,,,,542,19,Woman,Right,
,,,,,,,,,,,,,,,,,542,19,Woman,Right,1,70,0.15,1,180,-,180,0.48230060000059893,['n'],1.3472899999997026,1.0,1803.0272681999995,,,,,542,19,Woman,Right,
,,,,,,,,,,,,,,,,,542,19,Woman,Right,1,53,0.15,2,0,180,0,0.3873935000010533,['n'],1.733547499999986,1.228,1809.3764754999993,,,,,542,19,Woman,Right,
,,,,,,,,,,,,,,,,,542,19,Woman,Right,1,74,0.15,1,180,-,0,0.6301898000001529,['n'],2.246312900000703,1.228,1815.5768386,,,,,542,19,Woman,Right,
,,,,,,,,,,,,,,,,,542,19,Woman,Right,1,62,0.15,1,180,-,0,1.1653207999988808,['n'],0.8381776999995054,1.228,1821.125636499999,,,,,542,19,Woman,Right,
,,,,,,,,,,,,,,,,,542,19,Woman,Right,2,61,0.15,2,0,180,0,1.0915922000003775,['n'],2.2145074000000022,1.234,1834.6755310999997,58.75,87.5,42.5,,542,19,Woman,Right,
,,,,,,,,,,,,,,,,,542,19,Woman,Right,2,68,0.15,1,0,-,0,0.4525548000001436,['n'],0.96663880000051,1.234,1839.4093991999998,,,,,542,19,Woman,Right,
,,,,,,,,,,,,,,,,,542,19,Woman,Right,2,20,0.4,1,0,-,0,1.6072913999996672,['n'],2.622675900000104,1.234,1847.0262010999995,,,,,542,19,Woman,Right,
,,,,,,,,,,,,,,,,,542,19,Woman,Right,2,1,1,2,0,180,180,1.5631470999996964,['y'],1.1346964000003936,1.714,1854.5767424999995,,,,,542,19,Woman,Right,
,,,,,,,,,,,,,,,,,542,19,Woman,Right,2,9,0.4,2,0,180,180,0.9507027999989077,['n'],0.9344922000000224,1.4140000000000001,1860.2593223999993,,,,,542,19,Woman,Right,
,,,,,,,,,,,,,,,,,542,19,Woman,Right,2,38,0.4,1,180,-,0,0.40220119999867165,['n'],0.8784121000007872,1.184,1865.2092589999993,,,,,542,19,Woman,Right,
,,,,,,,,,,,,,,,,,542,19,Woman,Right,2,2,1,1,180,-,180,1.0305109000000812,['n'],0.8621168000008765,1.248,1870.826521699999,,,,,542,19,Woman,Right,
,,,,,,,,,,,,,,,,,542,19,Woman,Right,2,35,0.4,2,180,0,0,0.3610946000007971,['n'],0.8619558999998844,1.306,1876.9425341000006,,,,,542,19,Woman,Right,
,,,,,,,,,,,,,,,,,542,19,Woman,Right,2,79,0.15,2,180,0,0,1.2542465000005905,['n'],0.990712299999359,1.244,1883.1763475999996,,,,,542,19,Woman,Right,
,,,,,,,,,,,,,,,,,542,19,Woman,Right,2,50,0.15,1,180,-,0,0.8573626999987027,['n'],1.494614700000966,1.318,1889.5589474999997,,,,,542,19,Woman,Right,
,,,,,,,,,,,,,,,,,542,19,Woman,Right,2,69,0.15,2,0,180,0,0.40140989999963494,['n'],3.5108462999996846,1.322,1897.059776,,,,,542,19,Woman,Right,
,,,,,,,,,,,,,,,,,542,19,Woman,Right,2,31,0.4,2,180,0,0,1.1658004000000801,['n'],1.0945463999996718,1.3860000000000001,1903.0091828999994,,,,,542,19,Woman,Right,
,,,,,,,,,,,,,,,,,542,19,Woman,Right,2,59,0.15,2,180,0,0,1.1094114999996236,['n'],4.246962499999427,1.3399999999999999,1912.1085836999991,,,,,542,19,Woman,Right,
,,,,,,,,,,,,,,,,,542,19,Woman,Right,2,29,0.4,2,0,180,0,5.132909300000392,['n'],1.254222800000207,1.0,1922.558307899999,,,,,542,19,Woman,Right,
,,,,,,,,,,,,,,,,,542,19,Woman,Right,2,39,0.4,2,180,0,0,0.9103754000007029,['y'],0.8786670000008598,1.6520000000000001,1928.3087555999991,,,,,542,19,Woman,Right,
,,,,,,,,,,,,,,,,,542,19,Woman,Right,2,41,0.4,2,0,180,180,0.8827701000009256,['n'],2.559043600000223,1.236,1936.0089518999994,,,,,542,19,Woman,Right,
,,,,,,,,,,,,,,,,,542,19,Woman,Right,2,40,0.4,1,0,-,0,1.013158799998564,['y'],0.8700317000002542,1.5859999999999999,1942.2261904999996,,,,,542,19,Woman,Right,
,,,,,,,,,,,,,,,,,542,19,Woman,Right,2,28,0.4,1,0,-,180,1.2587115999995149,['y'],1.8073547999993025,1.19,1949.0925824000005,,,,,542,19,Woman,Right,
,,,,,,,,,,,,,,,,,542,19,Woman,Right,2,76,0.15,1,0,-,0,0.5125852000001032,['n'],1.1187260000006063,1.0,1954.9087072999992,,,,,542,19,Woman,Right,
,,,,,,,,,,,,,,,,,542,19,Woman,Right,2,27,0.4,2,180,0,0,0.33751240000128746,['y'],0.8791302999998152,1.74,1959.9754207999995,,,,,542,19,Woman,Right,
,,,,,,,,,,,,,,,,,542,19,Woman,Right,2,21,0.4,2,0,180,180,0.7759335999999166,['y'],1.686513399999967,1.732,1966.4096164999992,,,,,542,19,Woman,Right,
,,,,,,,,,,,,,,,,,542,19,Woman,Right,2,24,0.4,1,0,-,0,0.6749278000006598,['y'],1.5905812999990303,1.064,1972.7590789000005,,,,,542,19,Woman,Right,
,,,,,,,,,,,,,,,,,542,19,Woman,Right,2,52,0.15,1,0,-,0,0.8615833999992901,['n'],1.2225498000007065,1.052,1978.2088129000003,,,,,542,19,Woman,Right,
,,,,,,,,,,,,,,,,,542,19,Woman,Right,2,7,1,2,180,0,0,1.065756500000134,['n'],0.8511123000007501,1.052,1983.5090824,,,,,542,19,Woman,Right,
,,,,,,,,,,,,,,,,,542,19,Woman,Right,2,46,0.15,1,180,-,180,1.0103319000008923,['n'],0.5834332999984326,1.6520000000000001,1989.6088708999996,,,,,542,19,Woman,Right,
,,,,,,,,,,,,,,,,,542,19,Woman,Right,2,18,0.4,1,180,-,0,0.6656342999995104,['n'],1.6712442000007286,1.576,1995.4924900000005,,,,,542,19,Woman,Right,
,,,,,,,,,,,,,,,,,542,19,Woman,Right,2,36,0.4,1,0,-,0,0.6577675999997155,['n'],1.3825527999997576,1.384,2001.8917693999992,,,,,542,19,Woman,Right,
,,,,,,,,,,,,,,,,,542,19,Woman,Right,2,54,0.15,1,180,-,0,0.9251406000003044,['y'],0.8705864000003203,1.5939999999999999,2007.6936205999991,,,,,542,19,Woman,Right,
,,,,,,,,,,,,,,,,,542,19,Woman,Right,2,78,0.15,1,180,-,0,1.667091100000107,['n'],0.8474366000009468,1.1360000000000001,2014.0260202999998,,,,,542,19,Woman,Right,
,,,,,,,,,,,,,,,,,542,19,Woman,Right,2,30,0.4,1,180,-,0,0.5676182999995945,['n'],0.911138800000117,1.116,2018.6584523000001,,,,,542,19,Woman,Right,
,,,,,,,,,,,,,,,,,542,19,Woman,Right,2,11,0.4,2,180,0,0,1.3152261000013823,['n'],0.9354514999995445,1.43,2024.9249485,,,,,542,19,Woman,Right,
,,,,,,,,,,,,,,,,,542,19,Woman,Right,2,49,0.15,2,0,180,0,0.977632199999789,['n'],3.9357717000002594,1.43,2033.8918238000006,,,,,542,19,Woman,Right,
,,,,,,,,,,,,,,,,,542,19,Woman,Right,2,16,0.4,1,0,-,180,1.0373952999998437,['n'],0.6866975000011735,1.592,2041.5414390000005,,,,,542,19,Woman,Right,
,,,,,,,,,,,,,,,,,542,19,Woman,Right,2,23,0.4,2,180,0,180,1.1456287000000884,['y'],0.8548178999990341,1.5899999999999999,2047.224324499999,,,,,542,19,Woman,Right,
,,,,,,,,,,,,,,,,,542,19,Woman,Right,2,44,0.15,1,0,-,0,0.7644043000000238,['n'],6.622944699998698,1.142,2058.6253798,,,,,542,19,Woman,Right,
,,,,,,,,,,,,,,,,,542,19,Woman,Right,2,19,0.4,2,180,0,0,0.8153103000004194,['y'],1.0554108999986056,1.708,2065.1920016000004,,,,,542,19,Woman,Right,
,,,,,,,,,,,,,,,,,542,19,Woman,Right,2,10,0.4,1,180,-,0,0.539130600000135,['y'],0.887514199999714,1.564,2070.0928026,,,,,542,19,Woman,Right,
,,,,,,,,,,,,,,,,,542,19,Woman,Right,2,65,0.15,2,0,180,0,0.6956374000001233,['n'],0.7512186000003567,1.6019999999999999,2075.775211099999,,,,,542,19,Woman,Right,
,,,,,,,,,,,,,,,,,542,19,Woman,Right,2,71,0.15,2,180,0,0,0.810659200000373,['n'],1.5829434000006586,1.62,2083.8756754999995,,,,,542,19,Woman,Right,
,,,,,,,,,,,,,,,,,542,19,Woman,Right,2,17,0.4,2,0,180,180,0.8018032999989373,['y'],0.9518874999994296,1.6139999999999999,2089.2079753,,,,,542,19,Woman,Right,
,,,,,,,,,,,,,,,,,542,19,Woman,Right,2,55,0.15,2,180,0,180,1.152065100000982,['n'],1.4954827999990812,1.638,2096.0579371000003,,,,,542,19,Woman,Right,
,,,,,,,,,,,,,,,,,542,19,Woman,Right,2,51,0.15,2,180,0,180,1.3327738999996654,['y'],3.617552700001397,1.042,2104.8750254999995,,,,,542,19,Woman,Right,
,,,,,,,,,,,,,,,,,542,19,Woman,Right,2,72,0.15,1,0,-,0,0.8765579000009893,['n'],2.4802224000013666,1.126,2112.075582399999,,,,,542,19,Woman,Right,
,,,,,,,,,,,,,,,,,542,19,Woman,Right,2,77,0.15,2,0,180,0,1.195314900000085,['n'],3.2881329000010737,1.13,2124.2089847999996,,,,,542,19,Woman,Right,
,,,,,,,,,,,,,,,,,542,19,Woman,Right,2,60,0.15,1,0,-,0,0.6949951000005967,['n'],1.0796270999999251,1.3559999999999999,2130.024402699999,,,,,542,19,Woman,Right,
,,,,,,,,,,,,,,,,,542,19,Woman,Right,2,58,0.15,1,180,-,0,1.1836043000002974,['y'],1.0802762000002986,1.412,2136.1254391,,,,,542,19,Woman,Right,
,,,,,,,,,,,,,,,,,542,19,Woman,Right,2,32,0.4,1,0,-,0,0.6774566999993112,['n'],1.4150700000009238,1.43,2142.7747688,,,,,542,19,Woman,Right,
,,,,,,,,,,,,,,,,,542,19,Woman,Right,2,6,1,1,180,-,0,1.1024479999996402,['y'],2.4874995999998646,1.166,2151.0419373999994,,,,,542,19,Woman,Right,
,,,,,,,,,,,,,,,,,542,19,Woman,Right,2,62,0.15,1,180,-,0,0.7214838999989297,['n'],0.7438246000001527,1.196,2156.091602299999,,,,,542,19,Woman,Right,
,,,,,,,,,,,,,,,,,542,19,Woman,Right,2,43,0.4,2,180,0,0,0.3498101000004681,['n'],0.9281713999989734,1.23,2160.658355399999,,,,,542,19,Woman,Right,
,,,,,,,,,,,,,,,,,542,19,Woman,Right,2,33,0.4,2,0,180,180,0.7558204999986629,['y'],0.9043010999994294,1.604,2166.9410203000007,,,,,542,19,Woman,Right,
,,,,,,,,,,,,,,,,,542,19,Woman,Right,2,42,0.4,1,180,-,0,0.4741957000005641,['n'],2.1352834000008443,1.418,2173.4248179000006,,,,,542,19,Woman,Right,
,,,,,,,,,,,,,,,,,542,19,Woman,Right,2,73,0.15,2,0,180,0,0.9765969999989466,['n'],0.7677466000004642,1.5779999999999998,2179.7418015000003,,,,,542,19,Woman,Right,
,,,,,,,,,,,,,,,,,542,19,Woman,Right,2,37,0.4,2,0,180,0,0.9332837000001746,['n'],1.7515801999998075,1.5779999999999998,2187.4414166000006,,,,,542,19,Woman,Right,
,,,,,,,,,,,,,,,,,542,19,Woman,Right,2,47,0.15,2,180,0,180,1.1269538999986253,['n'],1.0481877000001987,1.58,2193.5751223999996,,,,,542,19,Woman,Right,
,,,,,,,,,,,,,,,,,542,19,Woman,Right,2,25,0.4,2,0,180,180,0.9745053999995434,['y'],0.9365011000008963,1.608,2200.1419052,,,,,542,19,Woman,Right,
,,,,,,,,,,,,,,,,,542,19,Woman,Right,2,66,0.15,1,180,-,180,1.1961611999995512,['n'],2.3356175999997504,1.442,2208.8075472,,,,,542,19,Woman,Right,
,,,,,,,,,,,,,,,,,542,19,Woman,Right,2,67,0.15,2,180,0,180,0.8396930999988399,['n'],0.8075724999998783,1.158,2214.7070810999994,,,,,542,19,Woman,Right,
,,,,,,,,,,,,,,,,,542,19,Woman,Right,2,74,0.15,1,180,-,180,0.907998000000589,['n'],2.663828000000649,1.274,2222.3076211000007,,,,,542,19,Woman,Right,
,,,,,,,,,,,,,,,,,542,19,Woman,Right,2,13,0.4,2,0,180,0,0.9233812000002217,['n'],1.3522816999993665,1.5979999999999999,2229.9409214999996,,,,,542,19,Woman,Right,
,,,,,,,,,,,,,,,,,542,19,Woman,Right,2,3,1,2,180,0,0,0.6596165999999357,['y'],0.7846411999998963,1.69,2235.4410583999997,,,,,542,19,Woman,Right,
,,,,,,,,,,,,,,,,,542,19,Woman,Right,2,26,0.4,1,180,-,180,0.9422113000000536,['n'],0.7205174999999144,1.158,2241.3583178999997,,,,,542,19,Woman,Right,
,,,,,,,,,,,,,,,,,542,19,Woman,Right,2,8,0.4,1,0,-,180,1.242457899999863,['n'],0.7525138999990304,1.17,2246.9074583,,,,,542,19,Woman,Right,
,,,,,,,,,,,,,,,,,542,19,Woman,Right,2,14,0.4,1,180,-,180,0.42085860000042885,['n'],1.240651699999944,1.17,2251.7249752999996,,,,,542,19,Woman,Right,
,,,,,,,,,,,,,,,,,542,19,Woman,Right,2,53,0.15,2,0,180,0,0.9221859999997832,['n'],0.744819000001371,1.17,2256.474919099999,,,,,542,19,Woman,Right,
,,,,,,,,,,,,,,,,,542,19,Woman,Right,2,34,0.4,1,180,-,180,1.101584300000468,['n'],0.9925968999996257,1.17,2262.8746895999993,,,,,542,19,Woman,Right,
,,,,,,,,,,,,,,,,,542,19,Woman,Right,2,0,1,1,0,-,0,1.9668003999995562,['n'],0.9682386999993469,1.154,2269.0910575,,,,,542,19,Woman,Right,
,,,,,,,,,,,,,,,,,542,19,Woman,Right,2,57,0.15,2,0,180,0,1.0657475999996677,['n'],1.008715600000869,1.154,2274.4073986999992,,,,,542,19,Woman,Right,
,,,,,,,,,,,,,,,,,542,19,Woman,Right,2,63,0.15,2,180,0,0,0.8711038999990706,['n'],0.9286953999999241,1.154,2279.6913416999996,,,,,542,19,Woman,Right,
,,,,,,,,,,,,,,,,,542,19,Woman,Right,2,15,0.4,2,180,0,0,1.1495407999991585,['n'],1.0008503999997629,1.154,2285.4239839,,,,,542,19,Woman,Right,
,,,,,,,,,,,,,,,,,542,19,Woman,Right,2,48,0.15,1,0,-,0,1.2742624000002252,['n'],1.4087911999995413,1.154,2291.5403678000002,,,,,542,19,Woman,Right,
,,,,,,,,,,,,,,,,,542,19,Woman,Right,2,45,0.15,2,0,180,0,0.8751133000005211,['n'],0.960870500000965,1.154,2296.6412457999995,,,,,542,19,Woman,Right,
,,,,,,,,,,,,,,,,,542,19,Woman,Right,2,70,0.15,1,180,-,180,1.821072799999456,['n'],1.2410338000008778,1.154,2302.8914595000006,,,,,542,19,Woman,Right,
,,,,,,,,,,,,,,,,,542,19,Woman,Right,2,64,0.15,1,0,-,0,0.8323416000002908,['n'],0.7522578000007343,1.174,2309.3405562999997,,,,,542,19,Woman,Right,
,,,,,,,,,,,,,,,,,542,19,Woman,Right,2,5,1,2,0,180,180,1.081433500001367,['y'],0.8808821000002354,1.6099999999999999,2316.0578172000005,,,,,542,19,Woman,Right,
,,,,,,,,,,,,,,,,,542,19,Woman,Right,2,56,0.15,1,0,-,0,0.955711099999462,['n'],1.232317800000601,1.6600000000000001,2323.4746194,,,,,542,19,Woman,Right,
,,,,,,,,,,,,,,,,,542,19,Woman,Right,2,75,0.15,2,180,0,0,0.9270912000010867,['y'],0.8970590999997512,1.698,2329.1072833,,,,,542,19,Woman,Right,
,,,,,,,,,,,,,,,,,542,19,Woman,Right,2,4,1,1,0,-,0,1.2824559999990015,['n'],1.2876823999995395,1.438,2335.6744419000006,,,,,542,19,Woman,Right,
,,,,,,,,,,,,,,,,,542,19,Woman,Right,2,22,0.4,1,180,-,0,0.45432789999904344,['n'],0.8166040999985853,1.3860000000000001,2340.458187,,,,,542,19,Woman,Right,
,,,,,,,,,,,,,,,,,542,19,Woman,Right,2,12,0.4,1,0,-,0,0.7430739999999787,['n'],1.257201200000054,1.3900000000000001,2346.0077089999995,,,,,542,19,Woman,Right,
,,,,,,,,,,,,,,,,,542,19,Woman,Right,3,74,0.15,1,180,-,0,1.397026000000551,['n'],1.2329250999991928,1.196,2369.7072659999994,60.0,82.5,32.5,,542,19,Woman,Right,
,,,,,,,,,,,,,,,,,542,19,Woman,Right,3,31,0.4,2,180,0,0,0.833539600000222,['y'],1.68892870000127,1.584,2376.4905922,,,,,542,19,Woman,Right,
,,,,,,,,,,,,,,,,,542,19,Woman,Right,3,57,0.15,2,0,180,0,1.1177358999993885,['n'],0.841367099999843,1.342,2382.8240914,,,,,542,19,Woman,Right,
,,,,,,,,,,,,,,,,,542,19,Woman,Right,3,10,0.4,1,180,-,0,1.2866263999985676,['n'],0.9367003000006662,1.328,2389.6408654999996,,,,,542,19,Woman,Right,
,,,,,,,,,,,,,,,,,542,19,Woman,Right,3,51,0.15,2,180,0,0,0.9764988999995694,['n'],0.793429000001197,1.328,2394.6243569,,,,,542,19,Woman,Right,
,,,,,,,,,,,,,,,,,542,19,Woman,Right,3,28,0.4,1,0,-,0,0.8298601999995299,['n'],2.993498899999395,1.274,2402.4402198000007,,,,,542,19,Woman,Right,
,,,,,,,,,,,,,,,,,542,19,Woman,Right,3,41,0.4,2,0,180,180,0.8702426999989257,['y'],0.8889916999996785,1.576,2408.4903656000006,,,,,542,19,Woman,Right,
,,,,,,,,,,,,,,,,,542,19,Woman,Right,3,78,0.15,1,180,-,0,0.8231374999995751,['n'],0.8809127000004082,1.63,2415.6736261000005,,,,,542,19,Woman,Right,
,,,,,,,,,,,,,,,,,542,19,Woman,Right,3,70,0.15,1,180,-,0,0.4436822999996366,['n'],1.4570112000001245,1.188,2421.9398576000003,,,,,542,19,Woman,Right,
,,,,,,,,,,,,,,,,,542,19,Woman,Right,3,36,0.4,1,0,-,0,1.020365700000184,['n'],1.8010943999997835,1.074,2428.6242158000005,,,,,542,19,Woman,Right,
,,,,,,,,,,,,,,,,,542,19,Woman,Right,3,11,0.4,2,180,0,0,0.8828357000002143,['n'],3.425415100000464,1.072,2436.6906734999993,,,,,542,19,Woman,Right,
,,,,,,,,,,,,,,,,,542,19,Woman,Right,3,64,0.15,1,0,-,0,1.890144799999689,['n'],1.3855693000004976,1.074,2444.2903812999994,,,,,542,19,Woman,Right,
,,,,,,,,,,,,,,,,,542,19,Woman,Right,3,20,0.4,1,0,-,0,1.0499796000003698,['n'],7.9777610000001005,1.074,2456.8733168,,,,,542,19,Woman,Right,
,,,,,,,,,,,,,,,,,542,19,Woman,Right,3,67,0.15,2,180,0,0,0.9324403999999049,['n'],1.275375699999131,1.8519999999999999,2465.3072245000003,,,,,542,19,Woman,Right,
,,,,,,,,,,,,,,,,,542,19,Woman,Right,3,5,1,2,0,180,180,0.47733709999920393,['y'],0.9297640000004321,1.782,2471.4234402,,,,,542,19,Woman,Right,
,,,,,,,,,,,,,,,,,542,19,Woman,Right,3,16,0.4,1,0,-,0,0.490495899999587,['n'],0.8094985999996425,1.6520000000000001,2476.9236081,,,,,542,19,Woman,Right,
,,,,,,,,,,,,,,,,,542,19,Woman,Right,3,8,0.4,1,0,-,0,1.5257499999988795,['n'],0.9694570000010572,1.6280000000000001,2483.0068699000003,,,,,542,19,Woman,Right,
,,,,,,,,,,,,,,,,,542,19,Woman,Right,3,26,0.4,1,180,-,180,0.6324082999999519,['n'],0.8116155999996408,1.37,2488.0735521000006,,,,,542,19,Woman,Right,
,,,,,,,,,,,,,,,,,542,19,Woman,Right,3,56,0.15,1,0,-,0,0.31254510000144364,['n'],0.809459699999934,1.3679999999999999,2492.4904238,,,,,542,19,Woman,Right,
,,,,,,,,,,,,,,,,,542,19,Woman,Right,3,9,0.4,2,0,180,180,1.04678530000092,['y'],0.8412525999992795,1.3860000000000001,2498.3060981,,,,,542,19,Woman,Right,
,,,,,,,,,,,,,,,,,542,19,Woman,Right,3,48,0.15,1,0,-,0,0.5973857999997563,['n'],0.7619489999997313,1.654,2503.5071523999995,,,,,542,19,Woman,Right,
,,,,,,,,,,,,,,,,,542,19,Woman,Right,3,79,0.15,2,180,0,0,0.5008240000006481,['n'],1.434115500000189,1.068,2509.6068073999995,,,,,542,19,Woman,Right,
,,,,,,,,,,,,,,,,,542,19,Woman,Right,3,72,0.15,1,0,-,0,0.37159319999955187,['n'],0.8491260000009788,1.074,2514.057070499999,,,,,542,19,Woman,Right,
,,,,,,,,,,,,,,,,,542,19,Woman,Right,3,69,0.15,2,0,180,0,1.2315381999997044,['n'],0.6818310999988171,1.074,2519.373855,,,,,542,19,Woman,Right,
,,,,,,,,,,,,,,,,,542,19,Woman,Right,3,17,0.4,2,0,180,180,0.9412462999989657,['n'],0.9696739999999409,1.078,2524.5893254000002,,,,,542,19,Woman,Right,
,,,,,,,,,,,,,,,,,542,19,Woman,Right,3,22,0.4,1,180,-,180,1.1325337999987823,['n'],1.0497083999998722,1.31,2530.8066911000005,,,,,542,19,Woman,Right,
,,,,,,,,,,,,,,,,,542,19,Woman,Right,3,25,0.4,2,0,180,180,0.851508300000205,['y'],0.7622013999989576,1.682,2536.6894649999995,,,,,542,19,Woman,Right,
,,,,,,,,,,,,,,,,,542,19,Woman,Right,3,54,0.15,1,180,-,0,0.73738400000002,['n'],1.2253874000016367,1.678,2542.3234625999994,,,,,542,19,Woman,Right,
,,,,,,,,,,,,,,,,,542,19,Woman,Right,3,62,0.15,1,180,-,0,1.0491031000001385,['y'],0.791451799999777,1.058,2548.6738535999993,,,,,542,19,Woman,Right,
,,,,,,,,,,,,,,,,,542,19,Woman,Right,3,34,0.4,1,180,-,180,0.9823222000013629,['y'],1.1459095000009256,1.562,2555.5236673,,,,,542,19,Woman,Right,
,,,,,,,,,,,,,,,,,542,19,Woman,Right,3,33,0.4,2,0,180,0,0.8270398000004207,['n'],0.8014294000004156,1.244,2560.9567934999995,,,,,542,19,Woman,Right,
,,,,,,,,,,,,,,,,,542,19,Woman,Right,3,30,0.4,1,180,-,180,0.7802000000010594,['n'],0.6581705000007787,1.244,2565.5395953000007,,,,,542,19,Woman,Right,
,,,,,,,,,,,,,,,,,542,19,Woman,Right,3,59,0.15,2,180,0,180,0.8591757000012876,['n'],1.0974108999998862,1.3860000000000001,2572.339143699999,,,,,542,19,Woman,Right,
,,,,,,,,,,,,,,,,,542,19,Woman,Right,3,23,0.4,2,180,0,0,1.2307600999993156,['y'],0.8183480000006966,1.532,2579.9068205999993,,,,,542,19,Woman,Right,
,,,,,,,,,,,,,,,,,542,19,Woman,Right,3,66,0.15,1,180,-,180,1.5755650999999489,['y'],7.322432299999491,1.072,2593.2727828999996,,,,,542,19,Woman,Right,
,,,,,,,,,,,,,,,,,542,19,Woman,Right,3,65,0.15,2,0,180,180,1.3923044999992271,['n'],0.8578357999995205,1.2,2600.6732341999996,,,,,542,19,Woman,Right,
,,,,,,,,,,,,,,,,,542,19,Woman,Right,3,63,0.15,2,180,0,0,0.8323122000001604,['n'],0.8828205000008893,1.2,2605.6899101,,,,,542,19,Woman,Right,
,,,,,,,,,,,,,,,,,542,19,Woman,Right,3,43,0.4,2,180,0,0,0.759700000000521,['y'],0.8746971000000485,1.2,2611.189280299999,,,,,542,19,Woman,Right,
,,,,,,,,,,,,,,,,,542,19,Woman,Right,3,13,0.4,2,0,180,0,1.3402894999999262,['y'],0.8185725000003004,1.2,2616.5399529000006,,,,,542,19,Woman,Right,
,,,,,,,,,,,,,,,,,542,19,Woman,Right,3,37,0.4,2,0,180,180,1.1289486999994551,['y'],0.6664966000007553,1.642,2623.6389538999993,,,,,542,19,Woman,Right,
,,,,,,,,,,,,,,,,,542,19,Woman,Right,3,19,0.4,2,180,0,0,0.6497701999996934,['y'],0.8098026999996364,1.706,2628.7390374000006,,,,,542,19,Woman,Right,
,,,,,,,,,,,,,,,,,542,19,Woman,Right,3,7,1,2,180,0,0,0.9510162999995373,['y'],0.8507601000001159,1.75,2639.4385557000005,,,,,542,19,Woman,Right,
,,,,,,,,,,,,,,,,,542,19,Woman,Right,3,18,0.4,1,180,-,180,1.1022498000002088,['y'],2.9859345000004396,1.6059999999999999,2648.0393024000005,,,,,542,19,Woman,Right,
,,,,,,,,,,,,,,,,,542,19,Woman,Right,3,68,0.15,1,0,-,0,0.8364550999995117,['n'],1.6661481000010099,1.288,2654.7065946000002,,,,,542,19,Woman,Right,
,,,,,,,,,,,,,,,,,542,19,Woman,Right,3,52,0.15,1,0,-,180,0.673484400000234,['y'],0.9224936999999045,1.1219999999999999,2660.5396829,,,,,542,19,Woman,Right,
,,,,,,,,,,,,,,,,,542,19,Woman,Right,3,50,0.15,1,180,-,0,0.5231822000005195,['n'],0.9388381999997364,1.104,2665.1735002999994,,,,,542,19,Woman,Right,
,,,,,,,,,,,,,,,,,542,19,Woman,Right,3,38,0.4,1,180,-,180,0.8066201999990881,['n'],0.7059331999989809,1.0939999999999999,2669.7240227,,,,,542,19,Woman,Right,
,,,,,,,,,,,,,,,,,542,19,Woman,Right,3,27,0.4,2,180,0,0,0.8531163999996352,['y'],0.7788884999990842,1.314,2675.1891379999997,,,,,542,19,Woman,Right,
,,,,,,,,,,,,,,,,,542,19,Woman,Right,3,47,0.15,2,180,0,0,0.627991800000018,['y'],0.834851499999786,1.6139999999999999,2680.807305099999,,,,,542,19,Woman,Right,
,,,,,,,,,,,,,,,,,542,19,Woman,Right,3,75,0.15,2,180,0,0,0.7324157000002742,['n'],0.922451500000534,1.326,2686.6719259,,,,,542,19,Woman,Right,
,,,,,,,,,,,,,,,,,542,19,Woman,Right,3,60,0.15,1,0,-,0,0.8521741999993537,['n'],2.1300185000000056,1.654,2695.8062236999995,,,,,542,19,Woman,Right,
,,,,,,,,,,,,,,,,,542,19,Woman,Right,3,3,1,2,180,0,0,0.9158000999996148,['y'],1.420404200000121,1.976,2702.1386423999993,,,,,542,19,Woman,Right,
,,,,,,,,,,,,,,,,,542,19,Woman,Right,3,12,0.4,1,0,-,180,0.8589128999992681,['y'],0.810654799999611,1.608,2708.606286099999,,,,,542,19,Woman,Right,
,,,,,,,,,,,,,,,,,542,19,Woman,Right,3,24,0.4,1,0,-,180,1.1219946000001073,['n'],0.6345660000006319,1.58,2714.505419699999,,,,,542,19,Woman,Right,
,,,,,,,,,,,,,,,,,542,19,Woman,Right,3,39,0.4,2,180,0,0,0.6392441000007238,['y'],0.8264694999998028,1.112,2720.0063202,,,,,542,19,Woman,Right,
,,,,,,,,,,,,,,,,,542,19,Woman,Right,3,55,0.15,2,180,0,0,0.5550789999997505,['n'],0.8026038999996672,1.308,2727.0060775,,,,,542,19,Woman,Right,
,,,,,,,,,,,,,,,,,542,19,Woman,Right,3,77,0.15,2,0,180,0,1.2677189000005455,['y'],0.8186397000008583,1.07,2733.0725779999993,,,,,542,19,Woman,Right,
,,,,,,,,,,,,,,,,,542,19,Woman,Right,3,0,1,1,0,-,0,0.8071982999990723,['n'],1.0990648000006331,1.384,2740.9549852,,,,,542,19,Woman,Right,
,,,,,,,,,,,,,,,,,542,19,Woman,Right,3,1,1,2,0,180,180,0.8664637000001676,['y'],0.8347737999993114,1.616,2746.8557674999993,,,,,542,19,Woman,Right,
,,,,,,,,,,,,,,,,,542,19,Woman,Right,3,61,0.15,2,0,180,0,0.7506914999994478,['n'],1.4673246999991534,1.6179999999999999,2752.4394832,,,,,542,19,Woman,Right,
,,,,,,,,,,,,,,,,,542,19,Woman,Right,3,58,0.15,1,180,-,180,0.9126793000014004,['n'],0.7871979999999894,1.6219999999999999,2757.7881306,,,,,542,19,Woman,Right,
,,,,,,,,,,,,,,,,,542,19,Woman,Right,3,49,0.15,2,0,180,180,1.015809900000022,['n'],1.1081415000007837,1.716,2764.0383297999997,,,,,542,19,Woman,Right,
,,,,,,,,,,,,,,,,,542,19,Woman,Right,3,29,0.4,2,0,180,180,0.9981543000012607,['y'],0.9073464000011882,1.744,2770.4056719,,,,,542,19,Woman,Right,
,,,,,,,,,,,,,,,,,542,19,Woman,Right,3,42,0.4,1,180,-,180,1.1436431999991328,['n'],1.5153236000005563,1.654,2777.955767899999,,,,,542,19,Woman,Right,
,,,,,,,,,,,,,,,,,542,19,Woman,Right,3,15,0.4,2,180,0,0,1.0567788999996992,['y'],0.6994360999997298,1.654,2783.1389048,,,,,542,19,Woman,Right,
,,,,,,,,,,,,,,,,,542,19,Woman,Right,3,21,0.4,2,0,180,180,1.0995815999995102,['y'],0.9458887999990111,1.654,2788.6886087000003,,,,,542,19,Woman,Right,
,,,,,,,,,,,,,,,,,542,19,Woman,Right,3,2,1,1,180,-,180,1.0879668999987189,['n'],0.6595697000011569,1.6099999999999999,2795.2554576,,,,,542,19,Woman,Right,
,,,,,,,,,,,,,,,,,542,19,Woman,Right,3,71,0.15,2,180,0,180,1.0447490000005928,['n'],1.5071350999987772,1.38,2804.9555997999996,,,,,542,19,Woman,Right,
,,,,,,,,,,,,,,,,,542,19,Woman,Right,3,45,0.15,2,0,180,0,1.2440114000000904,['n'],0.9074407999996765,1.654,2810.6556395000007,,,,,542,19,Woman,Right,
,,,,,,,,,,,,,,,,,542,19,Woman,Right,3,73,0.15,2,0,180,0,1.5675657000010688,['n'],0.8106325000007928,1.004,2817.7058254999993,,,,,542,19,Woman,Right,
,,,,,,,,,,,,,,,,,542,19,Woman,Right,3,40,0.4,1,0,-,0,0.4663464999994176,['n'],0.8566234999998414,1.616,2823.922067899999,,,,,542,19,Woman,Right,
,,,,,,,,,,,,,,,,,542,19,Woman,Right,3,32,0.4,1,0,-,0,0.32968780000010156,['n'],0.8035027000005357,1.68,2829.688445399999,,,,,542,19,Woman,Right,
,,,,,,,,,,,,,,,,,542,19,Woman,Right,3,6,1,1,180,-,180,0.6354166000000987,['n'],0.7076394999985496,1.79,2834.688524199999,,,,,542,19,Woman,Right,
,,,,,,,,,,,,,,,,,542,19,Woman,Right,3,53,0.15,2,0,180,0,0.5730909000012616,['n'],1.0914450000000215,1.71,2840.521048999999,,,,,542,19,Woman,Right,
,,,,,,,,,,,,,,,,,542,19,Woman,Right,3,14,0.4,1,180,-,0,0.7249252000001434,['y'],0.7710289999995439,1.612,2845.7726877999994,,,,,542,19,Woman,Right,
,,,,,,,,,,,,,,,,,542,19,Woman,Right,3,44,0.15,1,0,-,0,0.660033599999224,['n'],1.1474682000007306,1.662,2851.3879565999996,,,,,542,19,Woman,Right,
,,,,,,,,,,,,,,,,,542,19,Woman,Right,3,35,0.4,2,180,0,0,0.8163314000012178,['y'],0.7396871000000829,1.634,2856.4553130000004,,,,,542,19,Woman,Right,
,,,,,,,,,,,,,,,,,542,19,Woman,Right,3,76,0.15,1,0,-,180,1.4117731999995158,['y'],0.9631448999989516,1.444,2862.8724801999997,,,,,542,19,Woman,Right,
,,,,,,,,,,,,,,,,,542,19,Woman,Right,3,46,0.15,1,180,-,0,0.9099451000001864,['n'],0.9152259999991657,1.3900000000000001,2871.2221346000006,,,,,542,19,Woman,Right,
,,,,,,,,,,,,,,,,,542,19,Woman,Right,3,4,1,1,0,-,180,0.8262742000006256,['y'],0.7640305000004446,1.37,2876.6218102000003,,,,,542,19,Woman,Right,
,,,,,,,,,,,,,,,,,542,19,Woman,Right,4,47,0.15,2,180,0,180,1.0490925000012794,['n'],1.3578647000013007,1.564,2887.9714975000006,68.75,77.5,52.5,,542,19,Woman,Right,
,,,,,,,,,,,,,,,,,542,19,Woman,Right,4,3,1,2,180,0,0,0.8833424000004015,['y'],0.8036026999998285,1.6560000000000001,2893.2879845999996,,,,,542,19,Woman,Right,
,,,,,,,,,,,,,,,,,542,19,Woman,Right,4,71,0.15,2,180,0,0,1.8859195999993972,['y'],0.771807400000398,1.604,2899.5058210999996,,,,,542,19,Woman,Right,
,,,,,,,,,,,,,,,,,542,19,Woman,Right,4,10,0.4,1,180,-,0,1.8953507999995054,['n'],0.8274156000006769,1.3940000000000001,2906.1388269,,,,,542,19,Woman,Right,
,,,,,,,,,,,,,,,,,542,19,Woman,Right,4,78,0.15,1,180,-,180,2.0521733999994467,['n'],2.643702800000028,1.166,2914.2558437000007,,,,,542,19,Woman,Right,
,,,,,,,,,,,,,,,,,542,19,Woman,Right,4,68,0.15,1,0,-,0,1.5666314999998576,['n'],1.18039139999928,1.182,2922.9052788999998,,,,,542,19,Woman,Right,
,,,,,,,,,,,,,,,,,542,19,Woman,Right,4,70,0.15,1,180,-,0,1.7010339000007662,['n'],0.988417999999001,1.042,2929.505397499999,,,,,542,19,Woman,Right,
,,,,,,,,,,,,,,,,,542,19,Woman,Right,4,60,0.15,1,0,-,180,0.9397002999994584,['n'],1.3402967999991233,1.042,2934.5048274,,,,,542,19,Woman,Right,
,,,,,,,,,,,,,,,,,542,19,Woman,Right,4,73,0.15,2,0,180,0,0.8050878000012744,['n'],2.0762325000014243,1.252,2940.5718749999996,,,,,542,19,Woman,Right,
,,,,,,,,,,,,,,,,,542,19,Woman,Right,4,17,0.4,2,0,180,180,1.1963847999995778,['n'],0.9240108000012697,1.254,2945.3874873999994,,,,,542,19,Woman,Right,
,,,,,,,,,,,,,,,,,542,19,Woman,Right,4,7,1,2,180,0,0,1.1977602999995725,['y'],1.0925047000000632,1.6480000000000001,2951.0883739,,,,,542,19,Woman,Right,
,,,,,,,,,,,,,,,,,542,19,Woman,Right,4,63,0.15,2,180,0,180,1.260072900000523,['n'],1.1634055000013177,1.4060000000000001,2957.0045983,,,,,542,19,Woman,Right,
,,,,,,,,,,,,,,,,,542,19,Woman,Right,4,24,0.4,1,0,-,180,1.1363701999998739,['n'],1.8840712000001076,1.24,2963.2051142,,,,,542,19,Woman,Right,
,,,,,,,,,,,,,,,,,542,19,Woman,Right,4,36,0.4,1,0,-,180,0.7065230000007432,['n'],0.636288899999272,1.24,2967.4715103,,,,,542,19,Woman,Right,
,,,,,,,,,,,,,,,,,542,19,Woman,Right,4,56,0.15,1,0,-,180,3.191769300001397,['n'],4.212575100000322,1.006,2978.7540458000003,,,,,542,19,Woman,Right,
,,,,,,,,,,,,,,,,,542,19,Woman,Right,4,44,0.15,1,0,-,180,1.0825549999990471,['n'],5.052442199999859,1.006,2987.487935699999,,,,,542,19,Woman,Right,
,,,,,,,,,,,,,,,,,542,19,Woman,Right,4,61,0.15,2,0,180,180,1.2419454999999289,['n'],1.2284916000007797,1.006,2992.6380074999997,,,,,542,19,Woman,Right,
,,,,,,,,,,,,,,,,,542,19,Woman,Right,4,34,0.4,1,180,-,180,0.6265059999986988,['n'],0.8687525000004825,1.392,2997.3212366999996,,,,,542,19,Woman,Right,
,,,,,,,,,,,,,,,,,542,19,Woman,Right,4,74,0.15,1,180,-,180,0.668472200000906,['n'],2.1800569000006362,1.37,3003.1219736000003,,,,,542,19,Woman,Right,
,,,,,,,,,,,,,,,,,542,19,Woman,Right,4,62,0.15,1,180,-,180,0.6479247999996005,['n'],5.244603400000415,1.37,3011.8370041,,,,,542,19,Woman,Right,
,,,,,,,,,,,,,,,,,542,19,Woman,Right,4,1,1,2,0,180,0,2.8465391999998246,['y'],1.5166496999991068,1.5779999999999998,3020.3373501000005,,,,,542,19,Woman,Right,
,,,,,,,,,,,,,,,,,542,19,Woman,Right,4,39,0.4,2,180,0,0,1.119159199999558,['y'],0.8681288999996468,1.572,3025.1879972000006,,,,,542,19,Woman,Right,
,,,,,,,,,,,,,,,,,542,19,Woman,Right,4,51,0.15,2,180,0,180,0.7994089000003441,['n'],3.0248922999999195,1.4020000000000001,3032.136904499999,,,,,542,19,Woman,Right,
,,,,,,,,,,,,,,,,,542,19,Woman,Right,4,5,1,2,0,180,180,1.3600504999994882,['y'],0.7486320999996678,1.6019999999999999,3037.220148299999,,,,,542,19,Woman,Right,
,,,,,,,,,,,,,,,,,542,19,Woman,Right,4,40,0.4,1,0,-,0,1.0053608999987773,['n'],0.6359071999995649,1.5859999999999999,3041.5876621999996,,,,,542,19,Woman,Right,
,,,,,,,,,,,,,,,,,542,19,Woman,Right,4,14,0.4,1,180,-,0,1.374592100000882,['n'],0.5328900000004069,1.566,3048.5713973,,,,,542,19,Woman,Right,
,,,,,,,,,,,,,,,,,542,19,Woman,Right,4,76,0.15,1,0,-,0,2.364853999999468,['n'],1.26026020000063,1.314,3056.3709166999997,,,,,542,19,Woman,Right,
,,,,,,,,,,,,,,,,,542,19,Woman,Right,4,15,0.4,2,180,0,0,0.4159144999994169,['n'],1.1290702000005695,1.438,3061.587947599999,,,,,542,19,Woman,Right,
,,,,,,,,,,,,,,,,,542,19,Woman,Right,4,79,0.15,2,180,0,180,1.2609298000006675,['n'],0.5489811999996164,1.322,3067.054643399999,,,,,542,19,Woman,Right,
,,,,,,,,,,,,,,,,,542,19,Woman,Right,4,69,0.15,2,0,180,180,0.8034954000013386,['n'],0.4128643000003649,1.322,3071.087311899999,,,,,542,19,Woman,Right,
,,,,,,,,,,,,,,,,,542,19,Woman,Right,4,46,0.15,1,180,-,180,0.8880134999999427,['n'],0.7808383999999933,1.322,3075.5211672000005,,,,,542,19,Woman,Right,
,,,,,,,,,,,,,,,,,542,19,Woman,Right,4,22,0.4,1,180,-,180,0.41475290000016685,['n'],1.0849634000005608,1.322,3079.754428799999,,,,,542,19,Woman,Right,
,,,,,,,,,,,,,,,,,542,19,Woman,Right,4,50,0.15,1,180,-,180,0.7073227999990195,['n'],0.8363435000010213,1.3900000000000001,3085.0707411000003,,,,,542,19,Woman,Right,
,,,,,,,,,,,,,,,,,542,19,Woman,Right,4,6,1,1,180,-,180,0.6156816000002436,['n'],1.2625998000003165,1.8,3090.3874025000005,,,,,542,19,Woman,Right,
,,,,,,,,,,,,,,,,,542,19,Woman,Right,4,8,0.4,1,0,-,0,0.34140990000014426,['n'],0.7725508999992599,1.766,3094.3706901999994,,,,,542,19,Woman,Right,
,,,,,,,,,,,,,,,,,542,19,Woman,Right,4,30,0.4,1,180,-,180,0.5502311000000191,['n'],0.5009835000000749,1.62,3098.4706745999993,,,,,542,19,Woman,Right,
,,,,,,,,,,,,,,,,,542,19,Woman,Right,4,37,0.4,2,0,180,180,0.30244409999977506,['n'],0.8768503000010242,1.6640000000000001,3103.7206723,,,,,542,19,Woman,Right,
,,,,,,,,,,,,,,,,,542,19,Woman,Right,4,57,0.15,2,0,180,180,0.36706150000100024,['n'],0.5731730999996216,1.6640000000000001,3107.3371681999997,,,,,542,19,Woman,Right,
,,,,,,,,,,,,,,,,,542,19,Woman,Right,4,12,0.4,1,0,-,0,0.36147499999970023,['n'],0.9732017000005726,1.6640000000000001,3111.654168699999,,,,,542,19,Woman,Right,
,,,,,,,,,,,,,,,,,542,19,Woman,Right,4,2,1,1,180,-,0,0.40132749999975204,['y'],0.725191100000302,1.304,3116.0540518,,,,,542,19,Woman,Right,
,,,,,,,,,,,,,,,,,542,19,Woman,Right,4,20,0.4,1,0,-,0,0.1883084000000963,['n'],1.7086815000002389,1.6139999999999999,3121.9373178999995,,,,,542,19,Woman,Right,
,,,,,,,,,,,,,,,,,542,19,Woman,Right,4,31,0.4,2,180,0,0,0.4395675999985542,['n'],0.39716199999929813,1.346,3126.4711406999995,,,,,542,19,Woman,Right,
,,,,,,,,,,,,,,,,,542,19,Woman,Right,4,38,0.4,1,180,-,180,0.42074070000126085,['n'],0.4366818999988027,1.62,3130.6708892000006,,,,,542,19,Woman,Right,
,,,,,,,,,,,,,,,,,542,19,Woman,Right,4,13,0.4,2,0,180,180,1.0042651999992813,['y'],1.5006002000009175,1.226,3136.3869901,,,,,542,19,Woman,Right,
,,,,,,,,,,,,,,,,,542,19,Woman,Right,4,18,0.4,1,180,-,180,1.2795284000003448,['n'],0.9086231999990559,1.0,3141.9204480999997,,,,,542,19,Woman,Right,
,,,,,,,,,,,,,,,,,542,19,Woman,Right,4,28,0.4,1,0,-,0,0.2921953000004578,['n'],0.4451798999998573,1.5779999999999998,3146.0873217999997,,,,,542,19,Woman,Right,
,,,,,,,,,,,,,,,,,542,19,Woman,Right,4,23,0.4,2,180,0,0,0.49981230000048527,['y'],0.6118337000007159,1.5779999999999998,3150.1204806000005,,,,,542,19,Woman,Right,
,,,,,,,,,,,,,,,,,542,19,Woman,Right,4,9,0.4,2,0,180,0,1.353613100000075,['n'],0.7412748999995529,1.326,3155.3208582000007,,,,,542,19,Woman,Right,
,,,,,,,,,,,,,,,,,542,19,Woman,Right,4,19,0.4,2,180,0,0,0.5695999999988999,['n'],0.4373081999983697,1.556,3160.5539938,,,,,542,19,Woman,Right,
,,,,,,,,,,,,,,,,,542,19,Woman,Right,4,16,0.4,1,0,-,0,0.3301764000007097,['n'],0.4046402999993006,1.554,3164.3872556000006,,,,,542,19,Woman,Right,
,,,,,,,,,,,,,,,,,542,19,Woman,Right,4,21,0.4,2,0,180,180,0.7735771999996359,['y'],0.9254024999991088,1.562,3169.4862190000003,,,,,542,19,Woman,Right,
,,,,,,,,,,,,,,,,,542,19,Woman,Right,4,59,0.15,2,180,0,0,0.7390159999995376,['y'],0.4536458999991737,1.1,3173.6041251000006,,,,,542,19,Woman,Right,
,,,,,,,,,,,,,,,,,542,19,Woman,Right,4,77,0.15,2,0,180,180,1.1682500999995682,['y'],0.5494973000004393,1.1,3177.9198214999997,,,,,542,19,Woman,Right,
,,,,,,,,,,,,,,,,,542,19,Woman,Right,4,42,0.4,1,180,-,180,0.6824109999997745,['n'],0.48539569999957166,1.564,3183.1198549,,,,,542,19,Woman,Right,
,,,,,,,,,,,,,,,,,542,19,Woman,Right,4,65,0.15,2,0,180,0,0.6579273999996076,['n'],0.5572234999999637,1.564,3187.3704829,,,,,542,19,Woman,Right,
,,,,,,,,,,,,,,,,,542,19,Woman,Right,4,75,0.15,2,180,0,0,1.7513395999994827,['y'],0.4454359999999724,1.204,3192.5697297999995,,,,,542,19,Woman,Right,
,,,,,,,,,,,,,,,,,542,19,Woman,Right,4,49,0.15,2,0,180,0,0.34564250000039465,['n'],0.397558200000276,1.6219999999999999,3196.6539347,,,,,542,19,Woman,Right,
,,,,,,,,,,,,,,,,,542,19,Woman,Right,4,48,0.15,1,0,-,0,0.23839829999997164,['n'],0.8126100000008591,1.626,3201.1707121,,,,,542,19,Woman,Right,
,,,,,,,,,,,,,,,,,542,19,Woman,Right,4,45,0.15,2,0,180,0,0.40002219999951194,['n'],0.7888338000011572,1.658,3205.387479699999,,,,,542,19,Woman,Right,
,,,,,,,,,,,,,,,,,542,19,Woman,Right,4,64,0.15,1,0,-,180,3.25039359999937,['y'],1.284784600000421,1.6600000000000001,3212.553656099999,,,,,542,19,Woman,Right,
,,,,,,,,,,,,,,,,,542,19,Woman,Right,4,0,1,1,0,-,0,0.6879542999995465,['n'],2.9975357000002987,1.6600000000000001,3218.8035844999995,,,,,542,19,Woman,Right,
,,,,,,,,,,,,,,,,,542,19,Woman,Right,4,4,1,1,0,-,0,0.6217536000003747,['n'],1.3656745000007504,1.654,3223.753755399999,,,,,542,19,Woman,Right,
,,,,,,,,,,,,,,,,,542,19,Woman,Right,4,25,0.4,2,0,180,180,1.1998184000003675,['y'],1.0856889999995474,1.6520000000000001,3228.5373240999998,,,,,542,19,Woman,Right,
,,,,,,,,,,,,,,,,,542,19,Woman,Right,4,53,0.15,2,0,180,180,0.7376944000006915,['y'],0.701731799999834,1.6520000000000001,3232.819448099999,,,,,542,19,Woman,Right,
,,,,,,,,,,,,,,,,,542,19,Woman,Right,4,33,0.4,2,0,180,180,0.9807168000006641,['y'],0.38943990000007034,1.138,3237.0026013000006,,,,,542,19,Woman,Right,
,,,,,,,,,,,,,,,,,542,19,Woman,Right,4,54,0.15,1,180,-,0,0.3663971000005404,['n'],1.4530386999995244,1.25,3242.0028315,,,,,542,19,Woman,Right,
,,,,,,,,,,,,,,,,,542,19,Woman,Right,4,32,0.4,1,0,-,0,0.2021134999995411,['n'],1.83733470000152,1.5779999999999998,3247.6039645,,,,,542,19,Woman,Right,
,,,,,,,,,,,,,,,,,542,19,Woman,Right,4,72,0.15,1,0,-,0,0.33508620000066003,['n'],0.5411585000001651,1.5819999999999999,3251.0870004999997,,,,,542,19,Woman,Right,
,,,,,,,,,,,,,,,,,542,19,Woman,Right,4,52,0.15,1,0,-,0,0.32921259999966423,['n'],2.325945299999148,1.732,3256.6704855999997,,,,,542,19,Woman,Right,
,,,,,,,,,,,,,,,,,542,19,Woman,Right,4,66,0.15,1,180,-,180,1.532599800000753,['n'],1.5651818999995157,1.736,3262.6702251999995,,,,,542,19,Woman,Right,
,,,,,,,,,,,,,,,,,542,19,Woman,Right,4,67,0.15,2,180,0,180,0.44432009999945876,['n'],0.4617407000005187,1.65,3266.3362846,,,,,542,19,Woman,Right,
,,,,,,,,,,,,,,,,,542,19,Woman,Right,4,43,0.4,2,180,0,0,0.38248750000093423,['y'],0.49862649999886344,1.1280000000000001,3271.320613599999,,,,,542,19,Woman,Right,
,,,,,,,,,,,,,,,,,542,19,Woman,Right,4,55,0.15,2,180,0,0,0.37267029999929946,['n'],0.46107279999887396,1.572,3275.6531407,,,,,542,19,Woman,Right,
,,,,,,,,,,,,,,,,,542,19,Woman,Right,4,27,0.4,2,180,0,0,0.5671171999983926,['y'],0.4372297999998409,1.5779999999999998,3279.2032418,,,,,542,19,Woman,Right,
,,,,,,,,,,,,,,,,,542,19,Woman,Right,4,11,0.4,2,180,0,0,0.4478128000009747,['y'],0.5099369999988994,1.5779999999999998,3282.719830599999,,,,,542,19,Woman,Right,
,,,,,,,,,,,,,,,,,542,19,Woman,Right,4,35,0.4,2,180,0,0,0.6565602999999101,['y'],0.3581890999994357,1.5779999999999998,3286.1871094,,,,,542,19,Woman,Right,
,,,,,,,,,,,,,,,,,542,19,Woman,Right,4,58,0.15,1,180,-,0,0.4472456000003149,['n'],1.1740128000001278,1.5779999999999998,3290.4366837,,,,,542,19,Woman,Right,
,,,,,,,,,,,,,,,,,542,19,Woman,Right,4,26,0.4,1,180,-,0,4.3826773000000685,['y'],0.49410209999950894,1.1400000000000001,3298.6701541,,,,,542,19,Woman,Right,
,,,,,,,,,,,,,,,,,542,19,Woman,Right,4,41,0.4,2,0,180,0,0.4696049000012863,['n'],0.6296131999988575,1.228,3302.8523050999993,,,,,542,19,Woman,Right,
,,,,,,,,,,,,,,,,,542,19,Woman,Right,4,29,0.4,2,0,180,180,1.0057110999987344,['y'],0.4935531999999512,1.228,3307.0194685000006,,,,,542,19,Woman,Right,
,,,,,,,,,,,,,,,,,542,19,Woman,Right,5,68,0.15,1,0,-,0,1.0131092999999964,['n'],0.38139330000012706,1.288,3316.3369239000003,68.75,92.5,50.0,,542,19,Woman,Right,
,,,,,,,,,,,,,,,,,542,19,Woman,Right,5,41,0.4,2,0,180,180,2.7473964000000706,['y'],0.5254587999988871,1.3,3322.5529774999995,,,,,542,19,Woman,Right,
,,,,,,,,,,,,,,,,,542,19,Woman,Right,5,61,0.15,2,0,180,0,1.9939899000000878,['n'],0.9262251000000106,1.3,3327.9531604999993,,,,,542,19,Woman,Right,
,,,,,,,,,,,,,,,,,542,19,Woman,Right,5,8,0.4,1,0,-,0,3.102676499998779,['n'],0.9260073000004923,1.3,3334.4863437000004,,,,,542,19,Woman,Right,
,,,,,,,,,,,,,,,,,542,19,Woman,Right,5,59,0.15,2,180,0,0,0.4986994999999297,['n'],0.374212599999737,1.3,3337.8365458999997,,,,,542,19,Woman,Right,
,,,,,,,,,,,,,,,,,542,19,Woman,Right,5,62,0.15,1,180,-,0,0.31528160000016214,['n'],0.4542927000002237,1.3,3341.0533596999994,,,,,542,19,Woman,Right,
,,,,,,,,,,,,,,,,,542,19,Woman,Right,5,66,0.15,1,180,-,0,0.06797580000056769,['n'],0.4383280999991257,1.3,3344.5862947000005,,,,,542,19,Woman,Right,
,,,,,,,,,,,,,,,,,542,19,Woman,Right,5,64,0.15,1,0,-,0,1.268719300000157,['n'],1.2224779000007402,1.3,3349.6362721999994,,,,,542,19,Woman,Right,
,,,,,,,,,,,,,,,,,542,19,Woman,Right,5,55,0.15,2,180,0,0,0.5386521999989782,['n'],0.6785139000003255,1.3,3353.352782599999,,,,,542,19,Woman,Right,
,,,,,,,,,,,,,,,,,542,19,Woman,Right,5,28,0.4,1,0,-,0,1.615329299998848,['n'],0.4063132000010228,1.3,3357.7533693999994,,,,,542,19,Woman,Right,
,,,,,,,,,,,,,,,,,542,19,Woman,Right,5,67,0.15,2,180,0,0,1.6991331000008358,['n'],1.203417200000331,1.3,3363.536709099999,,,,,542,19,Woman,Right,
,,,,,,,,,,,,,,,,,542,19,Woman,Right,5,58,0.15,1,180,-,0,1.3680866999984573,['n'],0.558280699999159,1.3,3368.002321,,,,,542,19,Woman,Right,
,,,,,,,,,,,,,,,,,542,19,Woman,Right,5,40,0.4,1,0,-,0,0.40533850000065286,['n'],0.9745401999989554,1.3,3372.0364083000004,,,,,542,19,Woman,Right,
,,,,,,,,,,,,,,,,,542,19,Woman,Right,5,24,0.4,1,0,-,0,0.832768299998861,['n'],1.4784177999990789,1.3,3376.8700277999997,,,,,542,19,Woman,Right,
,,,,,,,,,,,,,,,,,542,19,Woman,Right,5,12,0.4,1,0,-,0,0.754117700000279,['n'],1.2945045999986178,1.3,3381.369183999999,,,,,542,19,Woman,Right,
,,,,,,,,,,,,,,,,,542,19,Woman,Right,5,5,1,2,0,180,180,2.208745900001304,['y'],0.9423790000000736,1.674,3388.3031833000005,,,,,542,19,Woman,Right,
,,,,,,,,,,,,,,,,,542,19,Woman,Right,5,50,0.15,1,180,-,180,1.7170623000001797,['n'],1.5659527000007074,1.658,3394.3532173999993,,,,,542,19,Woman,Right,
,,,,,,,,,,,,,,,,,542,19,Woman,Right,5,17,0.4,2,0,180,180,1.1632061999989673,['y'],0.7745944999987842,1.658,3398.720086199999,,,,,542,19,Woman,Right,
,,,,,,,,,,,,,,,,,542,19,Woman,Right,5,69,0.15,2,0,180,0,0.762781499999619,['n'],0.4225974999990285,1.298,3403.0021376000004,,,,,542,19,Woman,Right,
,,,,,,,,,,,,,,,,,542,19,Woman,Right,5,1,1,2,0,180,180,0.8234528000011778,['y'],0.6304534999999305,1.708,3407.5030726000005,,,,,542,19,Woman,Right,
,,,,,,,,,,,,,,,,,542,19,Woman,Right,5,77,0.15,2,0,180,180,1.564679699999033,['y'],0.5500427000006312,1.0939999999999999,3412.2863687999998,,,,,542,19,Woman,Right,
,,,,,,,,,,,,,,,,,542,19,Woman,Right,5,57,0.15,2,0,180,0,0.6620268000006035,['n'],0.5020578999992722,1.418,3418.3527935,,,,,542,19,Woman,Right,
,,,,,,,,,,,,,,,,,542,19,Woman,Right,5,7,1,2,180,0,0,0.3832313000002614,['y'],0.8751221999991685,1.608,3422.4184719000004,,,,,542,19,Woman,Right,
,,,,,,,,,,,,,,,,,542,19,Woman,Right,5,19,0.4,2,180,0,0,0.6561614999991434,['y'],0.37407140000141226,1.6019999999999999,3425.8524815,,,,,542,19,Woman,Right,
,,,,,,,,,,,,,,,,,542,19,Woman,Right,5,16,0.4,1,0,-,0,0.38949700000011944,['n'],0.5030052000001888,1.6019999999999999,3429.086111999999,,,,,542,19,Woman,Right,
,,,,,,,,,,,,,,,,,542,19,Woman,Right,5,18,0.4,1,180,-,180,1.178331099999923,['n'],0.790655799999513,1.6019999999999999,3433.9196931999995,,,,,542,19,Woman,Right,
,,,,,,,,,,,,,,,,,542,19,Woman,Right,5,70,0.15,1,180,-,180,0.9176000999996177,['n'],0.5820779999994556,1.6,3438.269592999999,,,,,542,19,Woman,Right,
,,,,,,,,,,,,,,,,,542,19,Woman,Right,5,44,0.15,1,0,-,0,0.43151030000080937,['n'],0.44658629999867117,1.6,3441.5198425,,,,,542,19,Woman,Right,
,,,,,,,,,,,,,,,,,542,19,Woman,Right,5,79,0.15,2,180,0,0,1.9708649000003788,['n'],0.5107779999998456,1.6,3446.5362578000004,,,,,542,19,Woman,Right,
,,,,,,,,,,,,,,,,,542,19,Woman,Right,5,20,0.4,1,0,-,0,0.5989602000008745,['n'],0.3759552999999869,1.6,3449.8021909,,,,,542,19,Woman,Right,
,,,,,,,,,,,,,,,,,542,19,Woman,Right,5,0,1,1,0,-,180,1.0951662000006763,['n'],1.1189223999990645,1.6,3454.5362363000004,,,,,542,19,Woman,Right,
,,,,,,,,,,,,,,,,,542,19,Woman,Right,5,35,0.4,2,180,0,0,1.0499407000006613,['y'],0.5428474999989703,1.6400000000000001,3459.5529222000005,,,,,542,19,Woman,Right,
,,,,,,,,,,,,,,,,,542,19,Woman,Right,5,9,0.4,2,0,180,180,0.9781770999998116,['n'],0.3422832999985985,1.6179999999999999,3463.235723599999,,,,,542,19,Woman,Right,
,,,,,,,,,,,,,,,,,542,19,Woman,Right,5,53,0.15,2,0,180,180,0.68560079999952,['n'],0.4471142999991571,1.6179999999999999,3466.6685216000005,,,,,542,19,Woman,Right,
,,,,,,,,,,,,,,,,,542,19,Woman,Right,5,54,0.15,1,180,-,0,0.5396242999995593,['n'],0.414929900000061,1.6179999999999999,3470.002739899999,,,,,542,19,Woman,Right,
,,,,,,,,,,,,,,,,,542,19,Woman,Right,5,74,0.15,1,180,-,180,0.3516636999993352,['n'],0.33498619999954826,1.6179999999999999,3473.1029254999994,,,,,542,19,Woman,Right,
,,,,,,,,,,,,,,,,,542,19,Woman,Right,5,38,0.4,1,180,-,0,0.1542399000009027,['n'],0.4071738999991794,1.6179999999999999,3476.019479299999,,,,,542,19,Woman,Right,
,,,,,,,,,,,,,,,,,542,19,Woman,Right,5,30,0.4,1,180,-,0,0.4221708999994007,['n'],0.39101189999928465,1.6179999999999999,3479.1536436000006,,,,,542,19,Woman,Right,
,,,,,,,,,,,,,,,,,542,19,Woman,Right,5,11,0.4,2,180,0,180,0.7117992999992566,['n'],0.3509183000005578,1.6179999999999999,3482.536999599999,,,,,542,19,Woman,Right,
,,,,,,,,,,,,,,,,,542,19,Woman,Right,5,71,0.15,2,180,0,0,0.4820715999994718,['n'],0.35105769999972836,1.252,3486.901998199999,,,,,542,19,Woman,Right,
,,,,,,,,,,,,,,,,,542,19,Woman,Right,5,39,0.4,2,180,0,0,1.4513136999994458,['n'],1.574995700000727,1.252,3492.2685060000003,,,,,542,19,Woman,Right,
,,,,,,,,,,,,,,,,,542,19,Woman,Right,5,60,0.15,1,0,-,0,0.171534299999621,['n'],1.2551141000003554,1.5819999999999999,3496.752854799999,,,,,542,19,Woman,Right,
,,,,,,,,,,,,,,,,,542,19,Woman,Right,5,75,0.15,2,180,0,0,0.3391068999990239,['n'],0.6465396999992663,1.3519999999999999,3500.3520857999993,,,,,542,19,Woman,Right,
,,,,,,,,,,,,,,,,,542,19,Woman,Right,5,42,0.4,1,180,-,0,0.40729749999991327,['n'],1.111013699999603,1.5819999999999999,3505.0690321,,,,,542,19,Woman,Right,
,,,,,,,,,,,,,,,,,542,19,Woman,Right,5,73,0.15,2,0,180,0,1.283460599999671,['n'],0.7294218000006367,1.5979999999999999,3509.469772999999,,,,,542,19,Woman,Right,
,,,,,,,,,,,,,,,,,542,19,Woman,Right,5,63,0.15,2,180,0,0,0.40309760000127426,['n'],0.37511520000043674,1.5979999999999999,3512.5683365999994,,,,,542,19,Woman,Right,
,,,,,,,,,,,,,,,,,542,19,Woman,Right,5,3,1,2,180,0,0,1.8164715000002616,['y'],0.5751144999994722,1.746,3518.1185616000002,,,,,542,19,Woman,Right,
,,,,,,,,,,,,,,,,,542,19,Woman,Right,5,37,0.4,2,0,180,0,0.40239780000047176,['n'],0.6865037000006851,1.748,3521.386070999999,,,,,542,19,Woman,Right,
,,,,,,,,,,,,,,,,,542,19,Woman,Right,5,72,0.15,1,0,-,0,0.46329920000061975,['n'],0.37499839999873075,1.692,3524.4859338000006,,,,,542,19,Woman,Right,
,,,,,,,,,,,,,,,,,542,19,Woman,Right,5,15,0.4,2,180,0,0,1.4084163999996235,['y'],0.31061270000100194,1.35,3530.4520513000007,,,,,542,19,Woman,Right,
,,,,,,,,,,,,,,,,,542,19,Woman,Right,5,31,0.4,2,180,0,0,1.5663871000015206,['y'],0.3826642999993055,1.1099999999999999,3535.5026966999994,,,,,542,19,Woman,Right,
,,,,,,,,,,,,,,,,,542,19,Woman,Right,5,48,0.15,1,0,-,0,0.31646680000085325,['n'],0.702573399999892,1.626,3540.7357625000004,,,,,542,19,Woman,Right,
,,,,,,,,,,,,,,,,,542,19,Woman,Right,5,32,0.4,1,0,-,0,0.23708690000057686,['n'],0.8866314999995666,1.6019999999999999,3544.3021666999994,,,,,542,19,Woman,Right,
,,,,,,,,,,,,,,,,,542,19,Woman,Right,5,25,0.4,2,0,180,180,2.2671286999993754,['y'],0.30325120000088646,1.108,3549.7025912999998,,,,,542,19,Woman,Right,
,,,,,,,,,,,,,,,,,542,19,Woman,Right,5,4,1,1,0,-,0,0.49003520000042045,['n'],0.4312982000010379,1.392,3554.218274499999,,,,,542,19,Woman,Right,
,,,,,,,,,,,,,,,,,542,19,Woman,Right,5,52,0.15,1,0,-,0,0.32795769999938784,['n'],0.4712165000000823,1.576,3558.335949799999,,,,,542,19,Woman,Right,
,,,,,,,,,,,,,,,,,542,19,Woman,Right,5,56,0.15,1,0,-,0,0.17183119999936025,['n'],0.8394618999991508,1.576,3561.768751899999,,,,,542,19,Woman,Right,
,,,,,,,,,,,,,,,,,542,19,Woman,Right,5,36,0.4,1,0,-,0,0.4164089000005333,['n'],0.38337289999981294,1.576,3564.8691314000007,,,,,542,19,Woman,Right,
,,,,,,,,,,,,,,,,,542,19,Woman,Right,5,43,0.4,2,180,0,0,0.4038366999993741,['n'],0.4393342000003031,1.576,3568.5178343999996,,,,,542,19,Woman,Right,
,,,,,,,,,,,,,,,,,542,19,Woman,Right,5,10,0.4,1,180,-,0,0.5280224999987695,['n'],0.33533279999937804,1.576,3571.7705193,,,,,542,19,Woman,Right,
,,,,,,,,,,,,,,,,,542,19,Woman,Right,5,46,0.15,1,180,-,0,0.45524809999915306,['n'],0.367479500000627,1.576,3574.885511799999,,,,,542,19,Woman,Right,
,,,,,,,,,,,,,,,,,542,19,Woman,Right,5,65,0.15,2,0,180,0,0.3624029000002338,['n'],0.3114941000003455,1.576,3577.868756599999,,,,,542,19,Woman,Right,
,,,,,,,,,,,,,,,,,542,19,Woman,Right,5,34,0.4,1,180,-,0,0.3818904999989172,['n'],0.31963659999928495,1.576,3580.8024139999998,,,,,542,19,Woman,Right,
,,,,,,,,,,,,,,,,,542,19,Woman,Right,5,45,0.15,2,0,180,0,0.39866819999951986,['n'],0.3355181000006269,1.576,3583.8027346,,,,,542,19,Woman,Right,
,,,,,,,,,,,,,,,,,542,19,Woman,Right,5,2,1,1,180,-,180,2.7689344999998866,['n'],0.6395501000006334,1.576,3589.485462999999,,,,,542,19,Woman,Right,
,,,,,,,,,,,,,,,,,542,19,Woman,Right,5,33,0.4,2,0,180,0,1.4160656000003655,['n'],1.0473664999990433,1.3559999999999999,3595.3514560000003,,,,,542,19,Woman,Right,
,,,,,,,,,,,,,,,,,542,19,Woman,Right,5,76,0.15,1,0,-,0,1.1228420000006736,['n'],1.102913599999738,1.4060000000000001,3601.218192799999,,,,,542,19,Woman,Right,
,,,,,,,,,,,,,,,,,542,19,Woman,Right,5,14,0.4,1,180,-,0,0.5535913000003347,['n'],0.5273942000003444,1.554,3604.9522042999997,,,,,542,19,Woman,Right,
,,,,,,,,,,,,,,,,,542,19,Woman,Right,5,26,0.4,1,180,-,180,1.0098856000004162,['n'],0.4956770000007964,1.554,3608.7355549000004,,,,,542,19,Woman,Right,
,,,,,,,,,,,,,,,,,542,19,Woman,Right,5,51,0.15,2,180,0,0,0.34317920000103186,['n'],0.5276120999988052,1.42,3613.2687372,,,,,542,19,Woman,Right,
,,,,,,,,,,,,,,,,,542,19,Woman,Right,5,22,0.4,1,180,-,180,0.7879357999991043,['n'],0.5437748000003921,1.42,3617.385676,,,,,542,19,Woman,Right,
,,,,,,,,,,,,,,,,,542,19,Woman,Right,5,78,0.15,1,180,-,0,0.3440726999997423,['n'],1.879790500001036,1.562,3623.1021705000003,,,,,542,19,Woman,Right,
,,,,,,,,,,,,,,,,,542,19,Woman,Right,5,29,0.4,2,0,180,0,0.3811775000012858,['n'],0.895380900001328,1.674,3627.785337699999,,,,,542,19,Woman,Right,
,,,,,,,,,,,,,,,,,542,19,Woman,Right,5,13,0.4,2,0,180,0,0.4494488000000274,['y'],2.3923806000002514,1.676,3633.0518546000003,,,,,542,19,Woman,Right,
,,,,,,,,,,,,,,,,,542,19,Woman,Right,5,27,0.4,2,180,0,0,1.183538999999655,['y'],0.5359669999998005,1.6019999999999999,3637.7517988,,,,,542,19,Woman,Right,
,,,,,,,,,,,,,,,,,542,19,Woman,Right,5,23,0.4,2,180,0,0,1.3778973999997106,['y'],0.6800172000002931,1.268,3642.701134499999,,,,,542,19,Woman,Right,
,,,,,,,,,,,,,,,,,542,19,Woman,Right,5,47,0.15,2,180,0,0,0.35457189999942784,['n'],0.4561235000001034,1.612,3647.9520863,,,,,542,19,Woman,Right,
,,,,,,,,,,,,,,,,,542,19,Woman,Right,5,6,1,1,180,-,180,0.6122278000002552,['n'],0.5360137999996368,1.612,3652.251456,,,,,542,19,Woman,Right,
,,,,,,,,,,,,,,,,,542,19,Woman,Right,5,49,0.15,2,0,180,0,0.34012409999922966,['n'],0.4878614999997808,1.612,3655.5517005,,,,,542,19,Woman,Right,
,,,,,,,,,,,,,,,,,542,19,Woman,Right,5,21,0.4,2,0,180,180,0.7540359000013268,['y'],0.4399252000002889,1.4140000000000001,3660.6682526000004,,,,,542,19,Woman,Right,
,,,,,,,,,,,,,,,,,,,,,,,,,,,,,,,,,68.75,100.0,40.0,3054.9533272999997,,,,,
