p_block,p_section,p_coherence,p_direction1,p_direction2,p_direction_response,p_direction_RT,p_change_response,p_change_RT,p_confidence,p_full_correct,p_without5_correct,p_full_total,p_without5_total,p_full_avg,p_witout5_avg,p_total_time,sub,age,sex,handedness,loop,trial randomization,coherence,condition,direction1,direction2,direction_response,direction_RT,change_response,change_RT,change_confidence,change_confidence_RT,block_direction_avg,block_stable_avg,block_change_avg,total_time,sub,age,sex,handedness,
1,1,1.0,180,-,180,0.23268850000022212,-,-,-,,,,,,,,561,18,Woman,Right,,,,,,,,,,,,,,,,,561,18,Woman,Right,
1,1,1.0,0,-,0,2.3169851999991806,-,-,-,,,,,,,,561,18,Woman,Right,,,,,,,,,,,,,,,,,561,18,Woman,Right,
1,1,1.0,180,-,180,0.016669099997670855,-,-,-,,,,,,,,561,18,Woman,Right,,,,,,,,,,,,,,,,,561,18,Woman,Right,
1,1,1.0,180,-,180,1.209761999998591,-,-,-,,,,,,,,561,18,Woman,Right,,,,,,,,,,,,,,,,,561,18,Woman,Right,
1,1,1.0,0,-,0,0.016760900001827395,-,-,-,,,,,,,,561,18,Woman,Right,,,,,,,,,,,,,,,,,561,18,Woman,Right,
1,1,1.0,180,-,180,0.3336782999977004,-,-,-,,,,,,,,561,18,Woman,Right,,,,,,,,,,,,,,,,,561,18,Woman,Right,
1,1,1.0,0,-,0,0.01676180000140448,-,-,-,,,,,,,,561,18,Woman,Right,,,,,,,,,,,,,,,,,561,18,Woman,Right,
1,1,1.0,180,-,180,0.016748599999118596,-,-,-,,,,,,,,561,18,Woman,Right,,,,,,,,,,,,,,,,,561,18,Woman,Right,
1,1,1.0,0,-,0,0.01654169999892474,-,-,-,,,,,,,,561,18,Woman,Right,,,,,,,,,,,,,,,,,561,18,Woman,Right,
1,1,1.0,0,-,0,0.01670200000080513,-,-,-,10,10,10,10,1.0,1.0,,561,18,Woman,Right,,,,,,,,,,,,,,,,,561,18,Woman,Right,
2,1,0.15,0,-,0,0.016417300001194235,-,-,-,,,,,,,,561,18,Woman,Right,,,,,,,,,,,,,,,,,561,18,Woman,Right,
2,1,0.15,180,-,180,0.332968400001846,-,-,-,,,,,,,,561,18,Woman,Right,,,,,,,,,,,,,,,,,561,18,Woman,Right,
2,1,0.15,0,-,0,0.01676189999852795,-,-,-,,,,,,,,561,18,Woman,Right,,,,,,,,,,,,,,,,,561,18,Woman,Right,
2,1,0.15,0,-,0,0.0757039000018267,-,-,-,,,,,,,,561,18,Woman,Right,,,,,,,,,,,,,,,,,561,18,Woman,Right,
2,1,0.4,180,-,180,0.3400261999995564,-,-,-,,,,,,,,561,18,Woman,Right,,,,,,,,,,,,,,,,,561,18,Woman,Right,
2,1,0.4,0,-,180,0.19241329999931622,-,-,-,,,,,,,,561,18,Woman,Right,,,,,,,,,,,,,,,,,561,18,Woman,Right,
2,1,0.15,180,-,0,0.016647600001306273,-,-,-,,,,,,,,561,18,Woman,Right,,,,,,,,,,,,,,,,,561,18,Woman,Right,
2,1,0.15,180,-,180,0.01666309999927762,-,-,-,,,,,,,,561,18,Woman,Right,,,,,,,,,,,,,,,,,561,18,Woman,Right,
2,1,0.15,180,-,0,0.06295459999819286,-,-,-,,,,,,,,561,18,Woman,Right,,,,,,,,,,,,,,,,,561,18,Woman,Right,
2,1,0.4,0,-,180,0.14382900000055088,-,-,-,,,,,,,,561,18,Woman,Right,,,,,,,,,,,,,,,,,561,18,Woman,Right,
2,1,0.4,180,-,0,0.14036169999963022,-,-,-,,,,,,,,561,18,Woman,Right,,,,,,,,,,,,,,,,,561,18,Woman,Right,
2,1,0.15,0,-,180,0.04138489999968442,-,-,-,,,,,,,,561,18,Woman,Right,,,,,,,,,,,,,,,,,561,18,Woman,Right,
2,1,0.15,180,-,0,0.016613100000540726,-,-,-,,,,,,,,561,18,Woman,Right,,,,,,,,,,,,,,,,,561,18,Woman,Right,
2,1,0.4,180,-,180,0.01650100000188104,-,-,-,,,,,,,,561,18,Woman,Right,,,,,,,,,,,,,,,,,561,18,Woman,Right,
2,1,0.4,0,-,0,0.04605010000159382,-,-,-,,,,,,,,561,18,Woman,Right,,,,,,,,,,,,,,,,,561,18,Woman,Right,
2,1,0.4,0,-,0,0.016700300002412405,-,-,-,,,,,,,,561,18,Woman,Right,,,,,,,,,,,,,,,,,561,18,Woman,Right,
2,1,0.4,180,-,180,0.016747000001487322,-,-,-,,,,,,,,561,18,Woman,Right,,,,,,,,,,,,,,,,,561,18,Woman,Right,
2,1,0.15,180,-,180,0.026469699998415308,-,-,-,,,,,,,,561,18,Woman,Right,,,,,,,,,,,,,,,,,561,18,Woman,Right,
2,1,0.15,0,-,0,0.2524338999974134,-,-,-,,,,,,,,561,18,Woman,Right,,,,,,,,,,,,,,,,,561,18,Woman,Right,
2,1,0.15,180,-,0,0.01689489999989746,-,-,-,6,4,10,5,0.6,0.8,,561,18,Woman,Right,,,,,,,,,,,,,,,,,561,18,Woman,Right,
3,2,1.0,0,180,180,1.0588901999981317,['n'],3.4642750000020897,1.6600000000000001,,,,,,,,561,18,Woman,Right,,,,,,,,,,,,,,,,,561,18,Woman,Right,
3,2,1.0,180,0,0,0.7312493999997969,['y'],0.9477517999985139,1.8860000000000001,,,,,,,,561,18,Woman,Right,,,,,,,,,,,,,,,,,561,18,Woman,Right,
3,2,1.0,0,180,0,0.6413862000008521,['y'],1.5646204999975453,1.6520000000000001,,,,,,,,561,18,Woman,Right,,,,,,,,,,,,,,,,,561,18,Woman,Right,
3,2,1.0,180,0,0,1.1780017999990378,['y'],1.0471480000014708,1.734,,,,,,,,561,18,Woman,Right,,,,,,,,,,,,,,,,,561,18,Woman,Right,
3,2,1.0,0,180,180,0.8801440000024741,['y'],0.8863920000003418,1.72,,,,,,,,561,18,Woman,Right,,,,,,,,,,,,,,,,,561,18,Woman,Right,
3,2,1.0,0,180,180,0.86445310000272,['y'],0.6311128000015742,1.638,,,,,,,,561,18,Woman,Right,,,,,,,,,,,,,,,,,561,18,Woman,Right,
3,2,1.0,180,0,0,1.4069417000027897,['y'],0.3754162000004726,1.978,,,,,,,,561,18,Woman,Right,,,,,,,,,,,,,,,,,561,18,Woman,Right,
3,2,1.0,180,0,0,0.5196599999981117,['y'],0.17808460000014747,1.638,,,,,,,,561,18,Woman,Right,,,,,,,,,,,,,,,,,561,18,Woman,Right,
3,2,1.0,0,180,180,0.5798682999993616,['y'],0.7781823999976041,2.0,,,,,,,,561,18,Woman,Right,,,,,,,,,,,,,,,,,561,18,Woman,Right,
3,2,1.0,0,180,180,0.5148001000015938,['y'],0.38788339999882737,1.828,9,9,10,10,0.9,0.9,,561,18,Woman,Right,,,,,,,,,,,,,,,,,561,18,Woman,Right,
4,2,0.15,180,0,0,1.070262899997033,['y'],1.7093763000011677,1.814,,,,,,,,561,18,Woman,Right,,,,,,,,,,,,,,,,,561,18,Woman,Right,
4,2,0.15,0,180,0,0.7839071999987937,['y'],1.1639314999993076,1.68,,,,,,,,561,18,Woman,Right,,,,,,,,,,,,,,,,,561,18,Woman,Right,
4,2,0.4,180,0,0,0.5738481000007596,['y'],0.3754097000019101,1.768,,,,,,,,561,18,Woman,Right,,,,,,,,,,,,,,,,,561,18,Woman,Right,
4,2,0.4,180,0,0,0.6863870000015595,['y'],2.306990900000528,1.8679999999999999,,,,,,,,561,18,Woman,Right,,,,,,,,,,,,,,,,,561,18,Woman,Right,
4,2,0.4,180,0,0,0.3717953999985184,['y'],0.2821178999984113,1.69,,,,,,,,561,18,Woman,Right,,,,,,,,,,,,,,,,,561,18,Woman,Right,
4,2,0.15,0,180,180,1.286709799998789,['y'],0.2563661000021966,1.6,,,,,,,,561,18,Woman,Right,,,,,,,,,,,,,,,,,561,18,Woman,Right,
4,2,0.15,0,180,180,0.5954295000010461,['y'],0.22369160000016564,1.608,,,,,,,,561,18,Woman,Right,,,,,,,,,,,,,,,,,561,18,Woman,Right,
4,2,0.4,180,0,0,0.5071552999979758,['y'],1.2661229999976058,1.624,,,,,,,,561,18,Woman,Right,,,,,,,,,,,,,,,,,561,18,Woman,Right,
4,2,0.15,0,180,180,0.5039789000002202,['y'],0.4792267999982869,1.55,,,,,,,,561,18,Woman,Right,,,,,,,,,,,,,,,,,561,18,Woman,Right,
4,2,0.4,0,180,180,0.4442199000004621,['y'],0.08449639999889769,1.588,9,5,10,5,0.9,1.0,,561,18,Woman,Right,,,,,,,,,,,,,,,,,561,18,Woman,Right,
5,3,0.4,0,-,0,1.033067000000301,['y'],0.8138934000016889,1.362,,,,,,,,561,18,Woman,Right,,,,,,,,,,,,,,,,,561,18,Woman,Right,
5,3,0.4,180,-,0,0.6482901999988826,['y'],1.5637744000014209,1.416,,,,,,,,561,18,Woman,Right,,,,,,,,,,,,,,,,,561,18,Woman,Right,
5,3,0.4,180,-,0,0.8131191000029503,['n'],1.5296538000002329,1.616,,,,,,,,561,18,Woman,Right,,,,,,,,,,,,,,,,,561,18,Woman,Right,
5,3,1.0,180,-,180,0.6986488000002282,['n'],0.362775600002351,1.742,,,,,,,,561,18,Woman,Right,,,,,,,,,,,,,,,,,561,18,Woman,Right,
5,3,1.0,180,0,0,0.9672234999998182,['y'],0.338375499999529,1.842,,,,,,,,561,18,Woman,Right,,,,,,,,,,,,,,,,,561,18,Woman,Right,
5,3,0.15,0,-,0,0.6845898999999918,['y'],0.5872767000000749,1.6280000000000001,,,,,,,,561,18,Woman,Right,,,,,,,,,,,,,,,,,561,18,Woman,Right,
5,3,0.4,180,0,0,0.5079468000003544,['y'],0.3031788999978744,1.72,,,,,,,,561,18,Woman,Right,,,,,,,,,,,,,,,,,561,18,Woman,Right,
5,3,0.15,0,-,0,0.5570013000033214,['n'],0.9112733000001754,1.65,,,,,,,,561,18,Woman,Right,,,,,,,,,,,,,,,,,561,18,Woman,Right,
5,3,1.0,180,-,180,0.9707785999999032,['n'],0.26603700000123354,1.714,,,,,,,,561,18,Woman,Right,,,,,,,,,,,,,,,,,561,18,Woman,Right,
5,3,0.4,180,0,0,0.35012210000058985,['y'],0.30779169999732403,1.6640000000000001,,,,,,,,561,18,Woman,Right,,,,,,,,,,,,,,,,,561,18,Woman,Right,
5,3,0.4,180,-,0,1.031164300002274,['n'],0.23545039999953588,1.558,,,,,,,,561,18,Woman,Right,,,,,,,,,,,,,,,,,561,18,Woman,Right,
5,3,1.0,180,0,0,0.27268289999847184,['y'],0.3053108999993128,1.612,,,,,,,,561,18,Woman,Right,,,,,,,,,,,,,,,,,561,18,Woman,Right,
5,3,1.0,180,0,0,0.3553933999974106,['y'],0.07230429999981425,1.604,,,,,,,,561,18,Woman,Right,,,,,,,,,,,,,,,,,561,18,Woman,Right,
5,3,1.0,180,0,0,0.44516850000218255,['y'],0.2699269999975513,1.576,,,,,,,,561,18,Woman,Right,,,,,,,,,,,,,,,,,561,18,Woman,Right,
5,3,1.0,180,-,180,0.977393099998153,['n'],0.29206469999917317,1.998,,,,,,,,561,18,Woman,Right,,,,,,,,,,,,,,,,,561,18,Woman,Right,
5,3,0.4,0,180,180,0.7093893000019307,['y'],0.2660902999996324,1.922,,,,,,,,561,18,Woman,Right,,,,,,,,,,,,,,,,,561,18,Woman,Right,
5,3,0.4,180,0,0,0.5525954000004276,['y'],0.3298051999991003,1.654,,,,,,,,561,18,Woman,Right,,,,,,,,,,,,,,,,,561,18,Woman,Right,
5,3,1.0,180,-,180,0.8025532999999996,['n'],0.3848725999996532,1.822,,,,,,,,561,18,Woman,Right,,,,,,,,,,,,,,,,,561,18,Woman,Right,
5,3,1.0,180,-,180,0.7543661999989126,['n'],0.24220010000135517,1.816,,,,,,,,561,18,Woman,Right,,,,,,,,,,,,,,,,,561,18,Woman,Right,
5,3,0.4,0,180,0,1.114386099998228,['n'],0.8114665999964927,1.38,8,8,10,10,0.8,0.8,,561,18,Woman,Right,,,,,,,,,,,,,,,,,561,18,Woman,Right,
,,,,,,,,,,,,,,,,5.599998985417187e-06,561,18,Woman,Right,,,,,,,,,,,,,,,,,561,18,Woman,Right,
,,,,,,,,,,,,,,,,,561,18,Woman,Right,0,68,0.15,1,0,-,0,0.266744499997003,['y'],3.731816700001218,1.5739999999999998,361.75082029999976,,,,,561,18,Woman,Right,
,,,,,,,,,,,,,,,,,561,18,Woman,Right,0,19,0.4,2,180,0,0,1.1917524999989837,['y'],1.7026549000001978,1.568,367.60083849999864,,,,,561,18,Woman,Right,
,,,,,,,,,,,,,,,,,561,18,Woman,Right,0,13,0.4,2,0,180,180,2.3754542999995465,['y'],1.0935241999977734,1.572,373.85091399999874,,,,,561,18,Woman,Right,
,,,,,,,,,,,,,,,,,561,18,Woman,Right,0,15,0.4,2,180,0,0,1.7301385999999184,['y'],1.2125539000007848,1.564,379.9674755999986,,,,,561,18,Woman,Right,
,,,,,,,,,,,,,,,,,561,18,Woman,Right,0,2,1,1,180,-,180,1.293413799998234,['n'],1.1641506999985722,1.77,385.8845121999984,,,,,561,18,Woman,Right,
,,,,,,,,,,,,,,,,,561,18,Woman,Right,0,8,0.4,1,0,-,0,0.8961726000015915,['n'],0.9717027000006055,1.976,391.9675418000006,,,,,561,18,Woman,Right,
,,,,,,,,,,,,,,,,,561,18,Woman,Right,0,35,0.4,2,180,0,0,1.6602572000010696,['y'],0.8506674999989627,1.626,397.8675693999976,,,,,561,18,Woman,Right,
,,,,,,,,,,,,,,,,,561,18,Woman,Right,0,45,0.15,2,0,180,0,0.910009600000194,['n'],1.122073200000159,1.624,402.33443089999855,,,,,561,18,Woman,Right,
,,,,,,,,,,,,,,,,,561,18,Woman,Right,0,28,0.4,1,0,-,0,0.7500633999989077,['n'],1.7514144999986456,1.754,407.9176488999983,,,,,561,18,Woman,Right,
,,,,,,,,,,,,,,,,,561,18,Woman,Right,0,20,0.4,1,0,-,0,0.646983899998304,['n'],1.2804691000019375,1.702,412.4676331999981,,,,,561,18,Woman,Right,
,,,,,,,,,,,,,,,,,561,18,Woman,Right,0,6,1,1,180,-,180,0.2552386999996088,['n'],1.9602465000025404,1.774,417.7675004999983,,,,,561,18,Woman,Right,
,,,,,,,,,,,,,,,,,561,18,Woman,Right,0,25,0.4,2,0,180,180,0.9220529000012903,['y'],0.7433878999981971,1.74,422.00092550000045,,,,,561,18,Woman,Right,
,,,,,,,,,,,,,,,,,561,18,Woman,Right,0,34,0.4,1,180,-,180,0.6281516000017291,['n'],0.927022300002136,1.712,426.23424850000083,,,,,561,18,Woman,Right,
,,,,,,,,,,,,,,,,,561,18,Woman,Right,0,0,1,1,0,-,0,0.5874278000010236,['n'],2.4625769999984186,1.712,431.73430050000024,,,,,561,18,Woman,Right,
,,,,,,,,,,,,,,,,,561,18,Woman,Right,0,70,0.15,1,180,-,180,0.7467121000008774,['n'],1.1493532999993477,1.712,436.1678236000007,,,,,561,18,Woman,Right,
,,,,,,,,,,,,,,,,,561,18,Woman,Right,0,38,0.4,1,180,-,180,1.3595791999978246,['n'],1.3570639000026858,1.708,441.6842742999979,,,,,561,18,Woman,Right,
,,,,,,,,,,,,,,,,,561,18,Woman,Right,0,50,0.15,1,180,-,180,0.28341659999932745,['n'],1.0493520999989414,1.708,445.8842807000001,,,,,561,18,Woman,Right,
,,,,,,,,,,,,,,,,,561,18,Woman,Right,0,27,0.4,2,180,0,0,0.6341367999993963,['y'],0.9158440999999584,1.69,450.13421820000076,,,,,561,18,Woman,Right,
,,,,,,,,,,,,,,,,,561,18,Woman,Right,0,39,0.4,2,180,0,0,0.5257934999972349,['y'],1.1315442000013718,1.5819999999999999,454.55099789999804,,,,,561,18,Woman,Right,
,,,,,,,,,,,,,,,,,561,18,Woman,Right,0,31,0.4,2,180,0,0,0.7683375000015076,['y'],1.1152808999977424,1.3559999999999999,459.51772150000033,,,,,561,18,Woman,Right,
,,,,,,,,,,,,,,,,,561,18,Woman,Right,0,12,0.4,1,0,-,0,0.8122163999978511,['n'],0.5538747999999032,1.8940000000000001,464.73461739999766,,,,,561,18,Woman,Right,
,,,,,,,,,,,,,,,,,561,18,Woman,Right,0,16,0.4,1,0,-,0,0.7597277999993821,['n'],0.9536078000019188,1.828,469.10100239999883,,,,,561,18,Woman,Right,
,,,,,,,,,,,,,,,,,561,18,Woman,Right,0,60,0.15,1,0,-,0,1.070331000002625,['n'],2.601045100000192,1.832,476.1176532999998,,,,,561,18,Woman,Right,
,,,,,,,,,,,,,,,,,561,18,Woman,Right,0,49,0.15,2,0,180,0,2.141889300000912,['y'],2.1759779999993043,1.834,482.8510161999984,,,,,561,18,Woman,Right,
,,,,,,,,,,,,,,,,,561,18,Woman,Right,0,74,0.15,1,180,-,180,2.7035980000000563,['n'],0.9192153999974835,1.1139999999999999,490.5343826999997,,,,,561,18,Woman,Right,
,,,,,,,,,,,,,,,,,561,18,Woman,Right,0,48,0.15,1,0,-,0,0.9231894999975339,['n'],1.0300038999994285,1.696,496.1010581999981,,,,,561,18,Woman,Right,
,,,,,,,,,,,,,,,,,561,18,Woman,Right,0,1,1,2,0,180,180,1.1509235999983503,['y'],0.7657023000028857,1.7,501.41767809999874,,,,,561,18,Woman,Right,
,,,,,,,,,,,,,,,,,561,18,Woman,Right,0,42,0.4,1,180,-,180,0.866817500002071,['n'],0.5609583000004932,1.666,505.1343793999986,,,,,561,18,Woman,Right,
,,,,,,,,,,,,,,,,,561,18,Woman,Right,0,44,0.15,1,0,-,0,0.5806869000007282,['n'],1.2364761999997427,1.686,509.8344216000005,,,,,561,18,Woman,Right,
,,,,,,,,,,,,,,,,,561,18,Woman,Right,0,46,0.15,1,180,-,0,1.7327035999987856,['n'],1.5318910999994841,1.682,515.5343119999998,,,,,561,18,Woman,Right,
,,,,,,,,,,,,,,,,,561,18,Woman,Right,0,53,0.15,2,0,180,0,1.3555899999992107,['n'],3.042788599999767,1.8559999999999999,524.0010782999998,,,,,561,18,Woman,Right,
,,,,,,,,,,,,,,,,,561,18,Woman,Right,0,69,0.15,2,0,180,0,0.7950545999992755,['n'],1.585278599999583,1.6019999999999999,531.3019308000003,,,,,561,18,Woman,Right,
,,,,,,,,,,,,,,,,,561,18,Woman,Right,0,22,0.4,1,180,-,180,0.6271823000024597,['n'],1.609498199999507,1.612,536.2512263999997,,,,,561,18,Woman,Right,
,,,,,,,,,,,,,,,,,561,18,Woman,Right,0,5,1,2,0,180,180,0.8035892999978387,['y'],0.9685839999983727,1.682,541.267686799998,,,,,561,18,Woman,Right,
,,,,,,,,,,,,,,,,,561,18,Woman,Right,0,52,0.15,1,0,-,0,1.251144599998952,['n'],3.2805215999978827,1.84,549.9180758000002,,,,,561,18,Woman,Right,
,,,,,,,,,,,,,,,,,561,18,Woman,Right,0,4,1,1,0,-,0,0.9668703999996069,['n'],1.3827023999983794,1.78,555.8011312999988,,,,,561,18,Woman,Right,
,,,,,,,,,,,,,,,,,561,18,Woman,Right,0,3,1,2,180,0,0,0.6216985999999451,['y'],0.9264468000001216,1.714,559.9511095999987,,,,,561,18,Woman,Right,
,,,,,,,,,,,,,,,,,561,18,Woman,Right,0,62,0.15,1,180,-,180,0.3853874000014912,['n'],1.1737174999980198,1.714,564.051300799998,,,,,561,18,Woman,Right,
,,,,,,,,,,,,,,,,,561,18,Woman,Right,0,59,0.15,2,180,0,0,1.1633674000004248,['n'],1.4531243999990693,1.342,570.8511512999976,,,,,561,18,Woman,Right,
,,,,,,,,,,,,,,,,,561,18,Woman,Right,0,61,0.15,2,0,180,180,1.2581658999988576,['n'],1.4203207999998995,1.342,570.8511512999976,,,,,561,18,Woman,Right,
,,,,,,,,,,,,,,,,,561,18,Woman,Right,0,71,0.15,2,180,0,0,1.7917167999985395,['n'],1.955271900002117,1.1360000000000001,583.9520487000009,,,,,561,18,Woman,Right,
,,,,,,,,,,,,,,,,,561,18,Woman,Right,0,40,0.4,1,0,-,0,0.45395669999925303,['n'],1.0022103000010247,1.972,588.8510930000011,,,,,561,18,Woman,Right,
,,,,,,,,,,,,,,,,,561,18,Woman,Right,0,43,0.4,2,180,0,0,0.7111561000019719,['y'],1.1219390999976895,1.7,593.3178369999987,,,,,561,18,Woman,Right,
,,,,,,,,,,,,,,,,,561,18,Woman,Right,0,32,0.4,1,0,-,0,0.5545443999981217,['n'],0.9771070999995572,1.692,597.5512797999982,,,,,561,18,Woman,Right,
,,,,,,,,,,,,,,,,,561,18,Woman,Right,0,57,0.15,2,0,180,0,0.6460150000020803,['n'],1.1294252000006963,1.696,602.1011393999979,,,,,561,18,Woman,Right,
,,,,,,,,,,,,,,,,,561,18,Woman,Right,0,24,0.4,1,0,-,0,0.4358747000005678,['n'],1.080524199998763,1.6440000000000001,606.4678314999983,,,,,561,18,Woman,Right,
,,,,,,,,,,,,,,,,,561,18,Woman,Right,0,41,0.4,2,0,180,180,0.5050941000008606,['y'],1.9278701000002911,1.5899999999999999,611.3845532999985,,,,,561,18,Woman,Right,
,,,,,,,,,,,,,,,,,561,18,Woman,Right,0,10,0.4,1,180,-,0,0.7423976999998558,['n'],1.639333399998577,1.408,617.9847986999994,,,,,561,18,Woman,Right,
,,,,,,,,,,,,,,,,,561,18,Woman,Right,0,7,1,2,180,0,0,0.47670880000077887,['y'],0.9582054999991669,1.71,622.051189400001,,,,,561,18,Woman,Right,
,,,,,,,,,,,,,,,,,561,18,Woman,Right,0,23,0.4,2,180,0,0,0.4820350999980292,['y'],1.1820610999966448,1.6680000000000001,626.3521192000007,,,,,561,18,Woman,Right,
,,,,,,,,,,,,,,,,,561,18,Woman,Right,0,29,0.4,2,0,180,180,0.9415773000000627,['n'],1.509352500001114,1.662,631.4012660999979,,,,,561,18,Woman,Right,
,,,,,,,,,,,,,,,,,561,18,Woman,Right,0,33,0.4,2,0,180,180,0.6242424999982177,['y'],1.036640599999373,1.654,635.9179269999986,,,,,561,18,Woman,Right,
,,,,,,,,,,,,,,,,,561,18,Woman,Right,0,55,0.15,2,180,0,0,0.6688716999997268,['y'],0.852148699999816,1.746,640.3848042999998,,,,,561,18,Woman,Right,
,,,,,,,,,,,,,,,,,561,18,Woman,Right,0,63,0.15,2,180,0,0,1.0789608000013686,['y'],1.2195941000027233,1.166,646.6679368999976,,,,,561,18,Woman,Right,
,,,,,,,,,,,,,,,,,561,18,Woman,Right,0,67,0.15,2,180,0,0,0.6133298000022478,['y'],1.1467596000002231,1.166,646.6679368999976,,,,,561,18,Woman,Right,
,,,,,,,,,,,,,,,,,561,18,Woman,Right,0,47,0.15,2,180,0,0,0.3356855000020005,['y'],0.9547626999992644,1.624,655.5679228000008,,,,,561,18,Woman,Right,
,,,,,,,,,,,,,,,,,561,18,Woman,Right,0,65,0.15,2,0,180,0,0.7799186000011105,['y'],1.538083600000391,1.5779999999999998,660.3179655999993,,,,,561,18,Woman,Right,
,,,,,,,,,,,,,,,,,561,18,Woman,Right,0,78,0.15,1,180,-,180,1.3990437000029488,['y'],1.0330043000030855,1.5739999999999998,665.6346621000012,,,,,561,18,Woman,Right,
,,,,,,,,,,,,,,,,,561,18,Woman,Right,0,54,0.15,1,180,-,0,0.5561018000007607,['n'],0.8320521999994526,1.244,670.6682555999978,,,,,561,18,Woman,Right,
,,,,,,,,,,,,,,,,,561,18,Woman,Right,0,77,0.15,2,0,180,0,0.5590952999991714,['n'],1.7597250999970129,1.334,676.9013358999982,,,,,561,18,Woman,Right,
,,,,,,,,,,,,,,,,,561,18,Woman,Right,0,17,0.4,2,0,180,180,2.0550530000000435,['y'],2.054946399999608,1.5979999999999999,687.6346869999979,,,,,561,18,Woman,Right,
,,,,,,,,,,,,,,,,,561,18,Woman,Right,0,51,0.15,2,180,0,0,0.21012879999761935,['y'],1.9417422999977134,1.5819999999999999,692.7180497000008,,,,,561,18,Woman,Right,
,,,,,,,,,,,,,,,,,561,18,Woman,Right,0,75,0.15,2,180,0,0,0.392070000001695,['n'],1.1007451000004949,1.5819999999999999,697.3513495000007,,,,,561,18,Woman,Right,
,,,,,,,,,,,,,,,,,561,18,Woman,Right,0,37,0.4,2,0,180,180,0.3622074999984761,['y'],0.8206447999982629,1.784,701.9513933999988,,,,,561,18,Woman,Right,
,,,,,,,,,,,,,,,,,561,18,Woman,Right,0,26,0.4,1,180,-,180,0.5334890999984054,['n'],0.9145803999999771,1.736,706.2846982999981,,,,,561,18,Woman,Right,
,,,,,,,,,,,,,,,,,561,18,Woman,Right,0,30,0.4,1,180,-,180,0.9620578999965801,['n'],0.819691699998657,1.85,711.4180572999976,,,,,561,18,Woman,Right,
,,,,,,,,,,,,,,,,,561,18,Woman,Right,0,9,0.4,2,0,180,180,0.439910899996903,['y'],0.8106455999986792,1.85,711.4180572999976,,,,,561,18,Woman,Right,
,,,,,,,,,,,,,,,,,561,18,Woman,Right,0,79,0.15,2,180,0,0,0.3294314000013401,['y'],0.7138282000014442,1.642,720.1513507999989,,,,,561,18,Woman,Right,
,,,,,,,,,,,,,,,,,561,18,Woman,Right,0,66,0.15,1,180,-,180,0.2877327999995032,['y'],0.7534685999999056,1.28,727.2681370999999,,,,,561,18,Woman,Right,
,,,,,,,,,,,,,,,,,561,18,Woman,Right,0,21,0.4,2,0,180,180,0.2953531999992265,['y'],0.6649498000006133,1.728,732.5014617999987,,,,,561,18,Woman,Right,
,,,,,,,,,,,,,,,,,561,18,Woman,Right,0,56,0.15,1,0,-,180,0.807829600002151,['n'],1.3441371000008075,1.728,732.5014617999987,,,,,561,18,Woman,Right,
,,,,,,,,,,,,,,,,,561,18,Woman,Right,0,58,0.15,1,180,-,180,0.39548480000303243,['n'],0.791072100000747,1.966,742.0514471999995,,,,,561,18,Woman,Right,
,,,,,,,,,,,,,,,,,561,18,Woman,Right,0,73,0.15,2,0,180,180,1.3002348000009079,['n'],1.6328936999998405,1.204,748.5181617999988,,,,,561,18,Woman,Right,
,,,,,,,,,,,,,,,,,561,18,Woman,Right,0,18,0.4,1,180,-,180,0.562912100001995,['n'],0.7976964000008593,1.784,752.8682159999989,,,,,561,18,Woman,Right,
,,,,,,,,,,,,,,,,,561,18,Woman,Right,0,64,0.15,1,0,-,0,0.38260749999972177,['n'],1.9092970000019704,1.676,757.7348598999997,,,,,561,18,Woman,Right,
,,,,,,,,,,,,,,,,,561,18,Woman,Right,0,14,0.4,1,180,-,180,0.6320383999991463,['n'],1.8368375999998534,1.914,763.5347756999981,,,,,561,18,Woman,Right,
,,,,,,,,,,,,,,,,,561,18,Woman,Right,0,76,0.15,1,0,-,0,0.4638245000023744,['n'],1.5081102000003739,1.7,768.151471000001,,,,,561,18,Woman,Right,
,,,,,,,,,,,,,,,,,561,18,Woman,Right,0,11,0.4,2,180,0,0,0.4567003999982262,['y'],1.5152175000002899,1.796,772.7515600999977,,,,,561,18,Woman,Right,
,,,,,,,,,,,,,,,,,561,18,Woman,Right,0,72,0.15,1,0,-,0,0.709696800000529,['n'],1.4988094000000274,1.784,777.4515353999996,,,,,561,18,Woman,Right,
,,,,,,,,,,,,,,,,,561,18,Woman,Right,0,36,0.4,1,0,-,0,0.32282499999928405,['n'],0.7782598000012513,2.0,781.9848755999992,,,,,561,18,Woman,Right,
,,,,,,,,,,,,,,,,,561,18,Woman,Right,1,54,0.15,1,180,-,0,0.33177530000102706,['n'],1.9666477999999188,1.712,810.0184043000008,86.25,92.5,72.5,,561,18,Woman,Right,
,,,,,,,,,,,,,,,,,561,18,Woman,Right,1,15,0.4,2,180,0,0,0.32725639999989653,['y'],1.3658371999990777,1.672,816.6348975000001,,,,,561,18,Woman,Right,
,,,,,,,,,,,,,,,,,561,18,Woman,Right,1,20,0.4,1,0,-,0,0.3017924999985553,['n'],6.28541789999872,1.67,826.1182530999977,,,,,561,18,Woman,Right,
,,,,,,,,,,,,,,,,,561,18,Woman,Right,1,62,0.15,1,180,-,180,3.1626399000015226,['n'],1.9239553000006708,1.67,833.5849603999995,,,,,561,18,Woman,Right,
,,,,,,,,,,,,,,,,,561,18,Woman,Right,1,36,0.4,1,0,-,0,0.2383570999991207,['n'],1.3394350000016857,1.67,837.5849448999979,,,,,561,18,Woman,Right,
,,,,,,,,,,,,,,,,,561,18,Woman,Right,1,7,1,2,180,0,180,0.01690489999964484,['y'],2.919467799998529,1.782,843.5515780999995,,,,,561,18,Woman,Right,
,,,,,,,,,,,,,,,,,561,18,Woman,Right,1,18,0.4,1,180,-,180,0.9538764000026276,['n'],0.6021031000018411,1.736,847.4516680999986,,,,,561,18,Woman,Right,
,,,,,,,,,,,,,,,,,561,18,Woman,Right,1,66,0.15,1,180,-,180,0.6469467000024451,['n'],0.84937219999847,1.7,851.6691480000009,,,,,561,18,Woman,Right,
,,,,,,,,,,,,,,,,,561,18,Woman,Right,1,57,0.15,2,0,180,0,2.0051125999998476,['n'],1.3930325000001176,1.65,857.9357335999994,,,,,561,18,Woman,Right,
,,,,,,,,,,,,,,,,,561,18,Woman,Right,1,61,0.15,2,0,180,180,0.8347542000010435,['y'],0.9200761000029161,1.638,862.2353440999977,,,,,561,18,Woman,Right,
,,,,,,,,,,,,,,,,,561,18,Woman,Right,1,34,0.4,1,180,-,180,0.3877978999989864,['n'],0.7036475999993854,2.0,866.4016525000006,,,,,561,18,Woman,Right,
,,,,,,,,,,,,,,,,,561,18,Woman,Right,1,0,1,1,0,-,0,0.47325460000138264,['n'],1.0630564000020968,2.0,870.7850007999987,,,,,561,18,Woman,Right,
,,,,,,,,,,,,,,,,,561,18,Woman,Right,1,65,0.15,2,0,180,0,0.3649473000004946,['n'],0.9905713000007381,1.84,875.0183913000001,,,,,561,18,Woman,Right,
,,,,,,,,,,,,,,,,,561,18,Woman,Right,1,50,0.15,1,180,-,180,0.6817622999988089,['n'],0.9499452999989444,1.666,880.0516951999998,,,,,561,18,Woman,Right,
,,,,,,,,,,,,,,,,,561,18,Woman,Right,1,71,0.15,2,180,0,180,0.6062994999992952,['n'],0.8453313000027265,1.658,884.2184849999976,,,,,561,18,Woman,Right,
,,,,,,,,,,,,,,,,,561,18,Woman,Right,1,43,0.4,2,180,0,0,0.7137321000009251,['y'],1.5485813999985112,1.658,889.201712099999,,,,,561,18,Woman,Right,
,,,,,,,,,,,,,,,,,561,18,Woman,Right,1,40,0.4,1,0,-,0,0.7641927999975451,['n'],1.5241294000006747,1.6640000000000001,894.0686153999995,,,,,561,18,Woman,Right,
,,,,,,,,,,,,,,,,,561,18,Woman,Right,1,59,0.15,2,180,0,0,1.308782699998119,['y'],1.0829217999998946,1.68,899.085102099998,,,,,561,18,Woman,Right,
,,,,,,,,,,,,,,,,,561,18,Woman,Right,1,27,0.4,2,180,0,0,0.9786028999988048,['y'],0.8588235999995959,1.684,903.7183569000008,,,,,561,18,Woman,Right,
,,,,,,,,,,,,,,,,,561,18,Woman,Right,1,76,0.15,1,0,-,180,1.3724433000024874,['y'],3.697767699999531,1.0,913.2017178999995,,,,,561,18,Woman,Right,
,,,,,,,,,,,,,,,,,561,18,Woman,Right,1,37,0.4,2,0,180,0,0.5753163000008499,['y'],5.233524299997953,1.0,913.2017178999995,,,,,561,18,Woman,Right,
,,,,,,,,,,,,,,,,,561,18,Woman,Right,1,72,0.15,1,0,-,0,0.5365676000001258,['n'],1.200104299998202,1.634,926.9017710000007,,,,,561,18,Woman,Right,
,,,,,,,,,,,,,,,,,561,18,Woman,Right,1,44,0.15,1,0,-,0,0.4445290000003297,['n'],3.2475521999986086,1.626,932.9851672999976,,,,,561,18,Woman,Right,
,,,,,,,,,,,,,,,,,561,18,Woman,Right,1,70,0.15,1,180,-,0,0.4846780999978364,['n'],0.7666868000014802,1.5819999999999999,936.7851413999997,,,,,561,18,Woman,Right,
,,,,,,,,,,,,,,,,,561,18,Woman,Right,1,12,0.4,1,0,-,0,0.1231380999997782,['n'],1.398327099999733,2.0,941.2684665999986,,,,,561,18,Woman,Right,
,,,,,,,,,,,,,,,,,561,18,Woman,Right,1,6,1,1,180,-,180,0.33046720000129426,['n'],0.8055910000002768,2.0,945.3023264000003,,,,,561,18,Woman,Right,
,,,,,,,,,,,,,,,,,561,18,Woman,Right,1,31,0.4,2,180,0,0,0.35396010000113165,['y'],0.7008896000006644,1.874,949.3185716000007,,,,,561,18,Woman,Right,
,,,,,,,,,,,,,,,,,561,18,Woman,Right,1,41,0.4,2,0,180,180,0.5981209999990824,['y'],1.028507899998658,1.76,953.7184813999993,,,,,561,18,Woman,Right,
,,,,,,,,,,,,,,,,,561,18,Woman,Right,1,1,1,2,0,180,180,0.4488782000007632,['y'],1.8038129999986268,1.748,958.8353719999977,,,,,561,18,Woman,Right,
,,,,,,,,,,,,,,,,,561,18,Woman,Right,1,52,0.15,1,0,-,0,0.4029964999972435,['n'],2.8676931999980297,1.684,964.8185518999999,,,,,561,18,Woman,Right,
,,,,,,,,,,,,,,,,,561,18,Woman,Right,1,63,0.15,2,180,0,0,0.48071799999888754,['n'],2.0585855999997875,1.68,970.285157899998,,,,,561,18,Woman,Right,
,,,,,,,,,,,,,,,,,561,18,Woman,Right,1,75,0.15,2,180,0,180,1.0332936999984668,['n'],0.6742727999990166,1.638,974.6517940999984,,,,,561,18,Woman,Right,
,,,,,,,,,,,,,,,,,561,18,Woman,Right,1,73,0.15,2,0,180,180,0.7777900000000955,['y'],0.753464299999905,1.5939999999999999,978.8853130999996,,,,,561,18,Woman,Right,
,,,,,,,,,,,,,,,,,561,18,Woman,Right,1,3,1,2,180,0,0,0.7723121999988507,['y'],0.39318719999937457,2.0,982.9019000999979,,,,,561,18,Woman,Right,
,,,,,,,,,,,,,,,,,561,18,Woman,Right,1,77,0.15,2,0,180,0,0.7982167999980447,['y'],1.3763878000027034,1.0,988.0519024999994,,,,,561,18,Woman,Right,
,,,,,,,,,,,,,,,,,561,18,Woman,Right,1,74,0.15,1,180,-,0,1.5946902999967278,['y'],1.527440400001069,1.3860000000000001,993.752303199999,,,,,561,18,Woman,Right,
,,,,,,,,,,,,,,,,,561,18,Woman,Right,1,10,0.4,1,180,-,0,1.923124299999472,['y'],1.5347533999993175,1.306,1000.418517099999,,,,,561,18,Woman,Right,
,,,,,,,,,,,,,,,,,561,18,Woman,Right,1,16,0.4,1,0,-,0,0.48489770000014687,['y'],2.6702955000000657,1.796,1006.5020125999981,,,,,561,18,Woman,Right,
,,,,,,,,,,,,,,,,,561,18,Woman,Right,1,69,0.15,2,0,180,180,0.8616887999996834,['y'],0.965765900000406,1.4,1011.5686760999997,,,,,561,18,Woman,Right,
,,,,,,,,,,,,,,,,,561,18,Woman,Right,1,79,0.15,2,180,0,0,0.400227599999198,['n'],1.092943199997535,1.738,1016.102050999998,,,,,561,18,Woman,Right,
,,,,,,,,,,,,,,,,,561,18,Woman,Right,1,60,0.15,1,0,-,0,0.3448543999984395,['n'],1.4052360999994562,1.63,1020.9020113000006,,,,,561,18,Woman,Right,
,,,,,,,,,,,,,,,,,561,18,Woman,Right,1,42,0.4,1,180,-,180,0.21816770000077668,['n'],0.595617899998615,1.84,1024.8361272000002,,,,,561,18,Woman,Right,
,,,,,,,,,,,,,,,,,561,18,Woman,Right,1,51,0.15,2,180,0,0,0.6426809000004141,['n'],1.7309735999988334,1.768,1029.6519771999992,,,,,561,18,Woman,Right,
,,,,,,,,,,,,,,,,,561,18,Woman,Right,1,17,0.4,2,0,180,0,0.5792933999982779,['n'],2.2186332999990555,1.698,1035.118589400001,,,,,561,18,Woman,Right,
,,,,,,,,,,,,,,,,,561,18,Woman,Right,1,58,0.15,1,180,-,0,0.6369159999994736,['n'],1.425999299997784,1.79,1039.6186818999995,,,,,561,18,Woman,Right,
,,,,,,,,,,,,,,,,,561,18,Woman,Right,1,67,0.15,2,180,0,180,0.4018852000008337,['n'],2.0170714000014414,1.79,1039.6186818999995,,,,,561,18,Woman,Right,
,,,,,,,,,,,,,,,,,561,18,Woman,Right,1,64,0.15,1,0,-,0,0.29116699999940465,['n'],0.9126982999987376,1.6360000000000001,1049.1685904000005,,,,,561,18,Woman,Right,
,,,,,,,,,,,,,,,,,561,18,Woman,Right,1,32,0.4,1,0,-,0,0.20881759999974747,['n'],1.6885411000002932,1.634,1053.553092099999,,,,,561,18,Woman,Right,
,,,,,,,,,,,,,,,,,561,18,Woman,Right,1,46,0.15,1,180,-,180,0.14084860000002664,['n'],0.8239740999997593,1.3980000000000001,1057.7189134,,,,,561,18,Woman,Right,
,,,,,,,,,,,,,,,,,561,18,Woman,Right,1,53,0.15,2,0,180,0,1.5823083000032057,['y'],0.8469145999988541,1.316,1063.3687238999992,,,,,561,18,Woman,Right,
,,,,,,,,,,,,,,,,,561,18,Woman,Right,1,38,0.4,1,180,-,180,0.6064117999994778,['y'],1.3587078000018664,1.6,1068.3687869999994,,,,,561,18,Woman,Right,
,,,,,,,,,,,,,,,,,561,18,Woman,Right,1,5,1,2,0,180,180,0.7539496999997937,['n'],0.9183908999984851,1.634,1073.3022712999991,,,,,561,18,Woman,Right,
,,,,,,,,,,,,,,,,,561,18,Woman,Right,1,29,0.4,2,0,180,180,0.8497081999994407,['y'],0.8927765000007639,1.778,1077.8519994999988,,,,,561,18,Woman,Right,
,,,,,,,,,,,,,,,,,561,18,Woman,Right,1,45,0.15,2,0,180,180,1.5200485000023036,['y'],0.6841405000013765,1.692,1082.8356445999998,,,,,561,18,Woman,Right,
,,,,,,,,,,,,,,,,,561,18,Woman,Right,1,28,0.4,1,0,-,0,0.6038331999989168,['n'],0.5877501000031771,1.692,1086.4353760999984,,,,,561,18,Woman,Right,
,,,,,,,,,,,,,,,,,561,18,Woman,Right,1,4,1,1,0,-,0,0.355526600000303,['n'],1.5155057000010856,2.0,1091.019012599998,,,,,561,18,Woman,Right,
,,,,,,,,,,,,,,,,,561,18,Woman,Right,1,56,0.15,1,0,-,0,0.8184240000009595,['n'],0.7952196999976877,1.984,1095.1022150999997,,,,,561,18,Woman,Right,
,,,,,,,,,,,,,,,,,561,18,Woman,Right,1,11,0.4,2,180,0,0,0.5530375999987882,['y'],0.6663017999999283,1.82,1099.1187873999988,,,,,561,18,Woman,Right,
,,,,,,,,,,,,,,,,,561,18,Woman,Right,1,39,0.4,2,180,0,0,0.48300120000203606,['y'],1.5941110999992816,1.634,1104.1022033000008,,,,,561,18,Woman,Right,
,,,,,,,,,,,,,,,,,561,18,Woman,Right,1,14,0.4,1,180,-,180,0.5001422999994247,['n'],2.3095920999985537,1.634,1109.4854841999986,,,,,561,18,Woman,Right,
,,,,,,,,,,,,,,,,,561,18,Woman,Right,1,30,0.4,1,180,-,180,0.579245599998103,['n'],1.0962889999973413,1.704,1114.152126099998,,,,,561,18,Woman,Right,
,,,,,,,,,,,,,,,,,561,18,Woman,Right,1,22,0.4,1,180,-,180,0.6926514999977371,['n'],0.9114311999983329,1.696,1118.8020150000011,,,,,561,18,Woman,Right,
,,,,,,,,,,,,,,,,,561,18,Woman,Right,1,9,0.4,2,0,180,180,0.48075840000092285,['y'],1.0632196000005933,1.696,1118.8020150000011,,,,,561,18,Woman,Right,
,,,,,,,,,,,,,,,,,561,18,Woman,Right,1,68,0.15,1,0,-,180,0.7851640999979281,['n'],0.7102985999990779,1.5939999999999999,1128.0354518999993,,,,,561,18,Woman,Right,
,,,,,,,,,,,,,,,,,561,18,Woman,Right,1,35,0.4,2,180,0,0,0.4158715999983542,['y'],0.5981312000003527,1.5939999999999999,1131.4696569999978,,,,,561,18,Woman,Right,
,,,,,,,,,,,,,,,,,561,18,Woman,Right,1,78,0.15,1,180,-,0,0.7437544000022172,['y'],2.2141579000017373,1.0,1137.8188527999991,,,,,561,18,Woman,Right,
,,,,,,,,,,,,,,,,,561,18,Woman,Right,1,33,0.4,2,0,180,180,0.6159454000007827,['y'],0.8129962000020896,1.78,1142.002455599999,,,,,561,18,Woman,Right,
,,,,,,,,,,,,,,,,,561,18,Woman,Right,1,19,0.4,2,180,0,0,0.9105804999999236,['y'],0.5162612999993144,1.5,1145.6959640999994,,,,,561,18,Woman,Right,
,,,,,,,,,,,,,,,,,561,18,Woman,Right,1,23,0.4,2,180,0,0,0.46130429999902844,['y'],0.843427799998608,1.8780000000000001,1150.2858983999977,,,,,561,18,Woman,Right,
,,,,,,,,,,,,,,,,,561,18,Woman,Right,1,2,1,1,180,-,180,0.3816384999990987,['n'],1.131276699998125,2.0,1154.9359497000005,,,,,561,18,Woman,Right,
,,,,,,,,,,,,,,,,,561,18,Woman,Right,1,26,0.4,1,180,-,180,1.1545339000003878,['n'],1.4741538999987824,2.0,1160.0188720999977,,,,,561,18,Woman,Right,
,,,,,,,,,,,,,,,,,561,18,Woman,Right,1,8,0.4,1,0,-,0,0.9645379000030516,['n'],1.025998699999036,2.0,1164.6855302000004,,,,,561,18,Woman,Right,
,,,,,,,,,,,,,,,,,561,18,Woman,Right,1,24,0.4,1,0,-,0,0.8213189999987662,['n'],1.417491099997278,1.784,1169.9354727999998,,,,,561,18,Woman,Right,
,,,,,,,,,,,,,,,,,561,18,Woman,Right,1,13,0.4,2,0,180,180,0.5465794000010646,['y'],0.8488635000030627,1.782,1173.7522419999987,,,,,561,18,Woman,Right,
,,,,,,,,,,,,,,,,,561,18,Woman,Right,1,48,0.15,1,0,-,0,0.8068579999999201,['n'],0.30459609999888926,1.782,1177.4523019000007,,,,,561,18,Woman,Right,
,,,,,,,,,,,,,,,,,561,18,Woman,Right,1,47,0.15,2,180,0,180,0.7260419000012917,['n'],0.7842224999985774,1.71,1181.702461099998,,,,,561,18,Woman,Right,
,,,,,,,,,,,,,,,,,561,18,Woman,Right,1,25,0.4,2,0,180,180,0.3669298000022536,['y'],0.6386807999988378,1.71,1185.1526201999986,,,,,561,18,Woman,Right,
,,,,,,,,,,,,,,,,,561,18,Woman,Right,1,49,0.15,2,0,180,180,0.46429450000141514,['y'],1.3513815999976941,1.6179999999999999,1189.7522772000011,,,,,561,18,Woman,Right,
,,,,,,,,,,,,,,,,,561,18,Woman,Right,1,55,0.15,2,180,0,0,0.6281483999991906,['n'],1.4385199999996985,1.646,1194.4021721999998,,,,,561,18,Woman,Right,
,,,,,,,,,,,,,,,,,561,18,Woman,Right,1,21,0.4,2,0,180,180,0.3926971000000776,['y'],0.7097733000009612,1.65,1198.302309499999,,,,,561,18,Woman,Right,
,,,,,,,,,,,,,,,,,561,18,Woman,Right,2,46,0.15,1,180,-,180,0.5656271000007109,['n'],0.884331100001873,1.672,1210.0688695999997,76.25,85.0,70.0,,561,18,Woman,Right,
,,,,,,,,,,,,,,,,,561,18,Woman,Right,2,36,0.4,1,0,-,0,0.4440111000003526,['n'],0.9873972000023059,1.6600000000000001,1214.2022853999988,,,,,561,18,Woman,Right,
,,,,,,,,,,,,,,,,,561,18,Woman,Right,2,23,0.4,2,180,0,0,0.4661803000017244,['y'],0.7712600000013481,1.626,1218.2189593000003,,,,,561,18,Woman,Right,
,,,,,,,,,,,,,,,,,561,18,Woman,Right,2,67,0.15,2,180,0,0,0.4602440000016941,['n'],0.8431805000000168,1.626,1222.3189743000003,,,,,561,18,Woman,Right,
,,,,,,,,,,,,,,,,,561,18,Woman,Right,2,61,0.15,2,0,180,180,0.6047880000005534,['n'],0.6978807000014058,1.5859999999999999,1227.0689208000003,,,,,561,18,Woman,Right,
,,,,,,,,,,,,,,,,,561,18,Woman,Right,2,50,0.15,1,180,-,180,0.7404528000006394,['n'],1.0252198000016506,1.316,1231.8522865999985,,,,,561,18,Woman,Right,
,,,,,,,,,,,,,,,,,561,18,Woman,Right,2,21,0.4,2,0,180,180,0.7101670000010927,['y'],0.8413899000006495,1.782,1236.636196899999,,,,,561,18,Woman,Right,
,,,,,,,,,,,,,,,,,561,18,Woman,Right,2,51,0.15,2,180,0,0,0.7706994000000122,['n'],1.7044883000016853,1.58,1242.7858753,,,,,561,18,Woman,Right,
,,,,,,,,,,,,,,,,,561,18,Woman,Right,2,57,0.15,2,0,180,0,0.5726493999973172,['n'],1.0638123999997333,1.592,1247.6857151000004,,,,,561,18,Woman,Right,
,,,,,,,,,,,,,,,,,561,18,Woman,Right,2,35,0.4,2,180,0,0,0.45999010000014096,['y'],0.6550293000000238,1.93,1251.5525624000002,,,,,561,18,Woman,Right,
,,,,,,,,,,,,,,,,,561,18,Woman,Right,2,48,0.15,1,0,-,0,1.4031906999989587,['n'],0.590818799999397,1.57,1256.2023693999981,,,,,561,18,Woman,Right,
,,,,,,,,,,,,,,,,,561,18,Woman,Right,2,31,0.4,2,180,0,0,0.4841003000001365,['y'],0.5578112000002875,1.834,1259.852708899998,,,,,561,18,Woman,Right,
,,,,,,,,,,,,,,,,,561,18,Woman,Right,2,1,1,2,0,180,180,0.4876671999991231,['y'],0.5894330999981321,1.752,1263.769216599998,,,,,561,18,Woman,Right,
,,,,,,,,,,,,,,,,,561,18,Woman,Right,2,39,0.4,2,180,0,0,0.42630110000027344,['y'],0.6290461999997206,1.75,1267.9023345999994,,,,,561,18,Woman,Right,
,,,,,,,,,,,,,,,,,561,18,Woman,Right,2,27,0.4,2,180,0,0,0.31522380000023986,['y'],0.5005782999978692,1.75,1271.8356915000004,,,,,561,18,Woman,Right,
,,,,,,,,,,,,,,,,,561,18,Woman,Right,2,26,0.4,1,180,-,180,0.6743948000003002,['n'],0.6042557999971905,1.77,1275.7358065000008,,,,,561,18,Woman,Right,
,,,,,,,,,,,,,,,,,561,18,Woman,Right,2,12,0.4,1,0,-,0,0.4579388000020117,['y'],0.6036242000009224,1.1099999999999999,1280.3358431999986,,,,,561,18,Woman,Right,
,,,,,,,,,,,,,,,,,561,18,Woman,Right,2,8,0.4,1,0,-,0,0.2975146999997378,['n'],0.9071777000026486,1.97,1284.1689984999975,,,,,561,18,Woman,Right,
,,,,,,,,,,,,,,,,,561,18,Woman,Right,2,76,0.15,1,0,-,0,0.4648077999991074,['n'],0.5788558999993256,1.696,1288.719307200001,,,,,561,18,Woman,Right,
,,,,,,,,,,,,,,,,,561,18,Woman,Right,2,47,0.15,2,180,0,180,0.5651763999994728,['n'],0.8019476000008581,1.716,1292.3690795000002,,,,,561,18,Woman,Right,
,,,,,,,,,,,,,,,,,561,18,Woman,Right,2,42,0.4,1,180,-,180,0.5960223999973095,['n'],0.5214900999999372,1.716,1297.4193159999995,,,,,561,18,Woman,Right,
,,,,,,,,,,,,,,,,,561,18,Woman,Right,2,62,0.15,1,180,-,0,0.48749099999986356,['n'],0.52883379999912,1.716,1300.9032208999997,,,,,561,18,Woman,Right,
,,,,,,,,,,,,,,,,,561,18,Woman,Right,2,56,0.15,1,0,-,0,0.23871900000085589,['n'],0.9846235000004526,1.63,1305.9358224999996,,,,,561,18,Woman,Right,
,,,,,,,,,,,,,,,,,561,18,Woman,Right,2,13,0.4,2,0,180,180,0.4402183000020159,['y'],0.7754354999997304,1.62,1310.3025033999984,,,,,561,18,Woman,Right,
,,,,,,,,,,,,,,,,,561,18,Woman,Right,2,38,0.4,1,180,-,180,0.4603949000011198,['n'],0.9991878000000725,1.62,1314.102514099999,,,,,561,18,Woman,Right,
,,,,,,,,,,,,,,,,,561,18,Woman,Right,2,78,0.15,1,180,-,0,1.0676573999990069,['n'],0.7829997999979241,1.62,1318.3359003999976,,,,,561,18,Woman,Right,
,,,,,,,,,,,,,,,,,561,18,Woman,Right,2,28,0.4,1,0,-,0,0.35472870000012335,['n'],2.0702697000015178,1.608,1323.4025103999993,,,,,561,18,Woman,Right,
,,,,,,,,,,,,,,,,,561,18,Woman,Right,2,33,0.4,2,0,180,180,0.5173814999980095,['y'],1.1977498000014748,1.608,1327.8526612999995,,,,,561,18,Woman,Right,
,,,,,,,,,,,,,,,,,561,18,Woman,Right,2,43,0.4,2,180,0,0,0.42906390000280226,['y'],0.6850937000017439,1.576,1331.8701464999976,,,,,561,18,Woman,Right,
,,,,,,,,,,,,,,,,,561,18,Woman,Right,2,44,0.15,1,0,-,0,0.4229639999975916,['n'],0.6126354000007268,1.6480000000000001,1335.2691764999981,,,,,561,18,Woman,Right,
,,,,,,,,,,,,,,,,,561,18,Woman,Right,2,64,0.15,1,0,-,0,0.16811500000039814,['n'],1.3881940999999642,1.6480000000000001,1339.2690831,,,,,561,18,Woman,Right,
,,,,,,,,,,,,,,,,,561,18,Woman,Right,2,9,0.4,2,0,180,180,0.3980899000016507,['y'],0.7157723999989685,1.366,1344.7200346999998,,,,,561,18,Woman,Right,
,,,,,,,,,,,,,,,,,561,18,Woman,Right,2,22,0.4,1,180,-,180,0.4166052000000491,['y'],0.7461906999997154,1.638,1349.969197899998,,,,,561,18,Woman,Right,
,,,,,,,,,,,,,,,,,561,18,Woman,Right,2,2,1,1,180,-,180,0.6754929999988235,['n'],0.4820639999998093,2.0,1354.1858633999982,,,,,561,18,Woman,Right,
,,,,,,,,,,,,,,,,,561,18,Woman,Right,2,0,1,1,0,-,0,0.4712072000002081,['n'],0.7936150999994425,2.0,1357.9861528000001,,,,,561,18,Woman,Right,
,,,,,,,,,,,,,,,,,561,18,Woman,Right,2,10,0.4,1,180,-,0,0.6322872999990068,['n'],1.9532255999984045,1.702,1363.5861275999996,,,,,561,18,Woman,Right,
,,,,,,,,,,,,,,,,,561,18,Woman,Right,2,19,0.4,2,180,0,0,0.3469748999996227,['y'],0.6486397000007855,1.732,1366.9692982999986,,,,,561,18,Woman,Right,
,,,,,,,,,,,,,,,,,561,18,Woman,Right,2,41,0.4,2,0,180,180,0.5802188000016031,['y'],0.688325299997814,1.732,1370.836011200001,,,,,561,18,Woman,Right,
,,,,,,,,,,,,,,,,,561,18,Woman,Right,2,7,1,2,180,0,0,1.062693500000023,['y'],0.879486599998927,1.732,1375.652846699999,,,,,561,18,Woman,Right,
,,,,,,,,,,,,,,,,,561,18,Woman,Right,2,5,1,2,0,180,180,0.5057404999970458,['y'],0.638396800000919,1.73,1379.969398000001,,,,,561,18,Woman,Right,
,,,,,,,,,,,,,,,,,561,18,Woman,Right,2,34,0.4,1,180,-,0,0.3256776999987778,['n'],0.6304051999977673,1.73,1383.8192473999989,,,,,561,18,Woman,Right,
,,,,,,,,,,,,,,,,,561,18,Woman,Right,2,59,0.15,2,180,0,180,0.3126211000017065,['n'],1.6860889999989013,1.5739999999999998,1388.9693005000008,,,,,561,18,Woman,Right,
,,,,,,,,,,,,,,,,,561,18,Woman,Right,2,66,0.15,1,180,-,180,1.0014053000013519,['n'],0.9740643000004638,1.3860000000000001,1393.6193457000008,,,,,561,18,Woman,Right,
,,,,,,,,,,,,,,,,,561,18,Woman,Right,2,70,0.15,1,180,-,0,1.5736662000017532,['n'],1.0685416999986046,1.23,1399.3359867,,,,,561,18,Woman,Right,
,,,,,,,,,,,,,,,,,561,18,Woman,Right,2,25,0.4,2,0,180,180,1.2874338999972679,['y'],0.6043114999993122,1.21,1404.7695327000001,,,,,561,18,Woman,Right,
,,,,,,,,,,,,,,,,,561,18,Woman,Right,2,45,0.15,2,0,180,0,0.7479005999994115,['n'],0.6272897999988345,1.68,1409.0859498999998,,,,,561,18,Woman,Right,
,,,,,,,,,,,,,,,,,561,18,Woman,Right,2,54,0.15,1,180,-,180,0.8982456999983697,['n'],0.794584200000827,1.286,1413.9026320000012,,,,,561,18,Woman,Right,
,,,,,,,,,,,,,,,,,561,18,Woman,Right,2,58,0.15,1,180,-,180,0.48874780000187457,['n'],0.7541309000007459,1.32,1417.869329000001,,,,,561,18,Woman,Right,
,,,,,,,,,,,,,,,,,561,18,Woman,Right,2,17,0.4,2,0,180,0,0.6821371999976691,['n'],0.9934666999979527,1.748,1422.019328800001,,,,,561,18,Woman,Right,
,,,,,,,,,,,,,,,,,561,18,Woman,Right,2,15,0.4,2,180,0,0,0.3835322000013548,['y'],1.2819022000003315,1.6099999999999999,1426.6526957999995,,,,,561,18,Woman,Right,
,,,,,,,,,,,,,,,,,561,18,Woman,Right,2,30,0.4,1,180,-,0,0.5055012000011629,['n'],0.7525556000000506,1.6099999999999999,1430.636022999999,,,,,561,18,Woman,Right,
,,,,,,,,,,,,,,,,,561,18,Woman,Right,2,72,0.15,1,0,-,0,0.16756490000261692,['n'],0.7357178999991447,1.6179999999999999,1434.2530559999977,,,,,561,18,Woman,Right,
,,,,,,,,,,,,,,,,,561,18,Woman,Right,2,14,0.4,1,180,-,180,0.3334852000007231,['n'],1.5597242000003462,1.62,1438.553172,,,,,561,18,Woman,Right,
,,,,,,,,,,,,,,,,,561,18,Woman,Right,2,75,0.15,2,180,0,0,0.2336141999985557,['n'],0.8393875000001572,1.6400000000000001,1444.4027750999994,,,,,561,18,Woman,Right,
,,,,,,,,,,,,,,,,,561,18,Woman,Right,2,52,0.15,1,0,-,0,0.795058899999276,['n'],0.6301416999995126,1.6400000000000001,1448.1859915999994,,,,,561,18,Woman,Right,
,,,,,,,,,,,,,,,,,561,18,Woman,Right,2,24,0.4,1,0,-,0,0.18472990000009304,['n'],1.3261828000031528,1.638,1452.086339900001,,,,,561,18,Woman,Right,
,,,,,,,,,,,,,,,,,561,18,Woman,Right,2,6,1,1,180,-,180,0.3324885000001814,['n'],1.1094731999983196,2.0,1456.152930799999,,,,,561,18,Woman,Right,
,,,,,,,,,,,,,,,,,561,18,Woman,Right,2,55,0.15,2,180,0,0,0.46758389999740757,['n'],0.7887540000010631,2.0,1456.152930799999,,,,,561,18,Woman,Right,
,,,,,,,,,,,,,,,,,561,18,Woman,Right,2,69,0.15,2,0,180,0,2.074546799998643,['n'],1.0280146000004606,1.638,1465.8696420999986,,,,,561,18,Woman,Right,
,,,,,,,,,,,,,,,,,561,18,Woman,Right,2,16,0.4,1,0,-,0,0.33354659999895375,['n'],1.0742372999993677,1.6400000000000001,1469.5360684000007,,,,,561,18,Woman,Right,
,,,,,,,,,,,,,,,,,561,18,Woman,Right,2,40,0.4,1,0,-,0,0.1756110999995144,['y'],1.4512211000001116,1.096,1475.0360899000007,,,,,561,18,Woman,Right,
,,,,,,,,,,,,,,,,,561,18,Woman,Right,2,49,0.15,2,0,180,0,0.764813800000411,['n'],1.1704847000000882,1.638,1479.7026573000003,,,,,561,18,Woman,Right,
,,,,,,,,,,,,,,,,,561,18,Woman,Right,2,73,0.15,2,0,180,0,0.2910679999986314,['n'],1.0736800000013318,1.282,1484.3027350000011,,,,,561,18,Woman,Right,
,,,,,,,,,,,,,,,,,561,18,Woman,Right,2,20,0.4,1,0,-,0,0.5356281999993371,['n'],1.432948599998781,1.608,1489.4861343999983,,,,,561,18,Woman,Right,
,,,,,,,,,,,,,,,,,561,18,Woman,Right,2,53,0.15,2,0,180,0,0.030097499999101274,['n'],1.2323967999982415,1.608,1493.9196797000004,,,,,561,18,Woman,Right,
,,,,,,,,,,,,,,,,,561,18,Woman,Right,2,68,0.15,1,0,-,0,0.31347180000011576,['n'],1.2401202000000922,1.6640000000000001,1498.0530342999991,,,,,561,18,Woman,Right,
,,,,,,,,,,,,,,,,,561,18,Woman,Right,2,77,0.15,2,0,180,180,1.3103212000023632,['y'],0.6637809999992896,1.308,1503.2360919999992,,,,,561,18,Woman,Right,
,,,,,,,,,,,,,,,,,561,18,Woman,Right,2,65,0.15,2,0,180,0,0.5126821000012569,['y'],0.927068799999688,1.412,1507.2528784999995,,,,,561,18,Woman,Right,
,,,,,,,,,,,,,,,,,561,18,Woman,Right,2,71,0.15,2,180,0,0,0.6386886000000231,['n'],1.1025406000007933,1.272,1512.5196241999984,,,,,561,18,Woman,Right,
,,,,,,,,,,,,,,,,,561,18,Woman,Right,2,60,0.15,1,0,-,0,0.9033880999995745,['n'],1.0057166000005964,1.334,1517.352814400001,,,,,561,18,Woman,Right,
,,,,,,,,,,,,,,,,,561,18,Woman,Right,2,74,0.15,1,180,-,0,0.9839154999972379,['n'],0.9892475999986345,1.694,1521.9363458000007,,,,,561,18,Woman,Right,
,,,,,,,,,,,,,,,,,561,18,Woman,Right,2,3,1,2,180,0,0,0.6577572999995027,['y'],0.7805011999989802,1.806,1526.5195372999988,,,,,561,18,Woman,Right,
,,,,,,,,,,,,,,,,,561,18,Woman,Right,2,32,0.4,1,0,-,0,0.9503790999988269,['n'],0.666797800000495,1.6400000000000001,1531.1194880000003,,,,,561,18,Woman,Right,
,,,,,,,,,,,,,,,,,561,18,Woman,Right,2,4,1,1,0,-,0,0.37901549999878625,['n'],0.8833840000006603,2.0,1535.7528724000003,,,,,561,18,Woman,Right,
,,,,,,,,,,,,,,,,,561,18,Woman,Right,2,18,0.4,1,180,-,180,0.5452245000014955,['n'],0.5704948000020522,1.812,1539.3862074999997,,,,,561,18,Woman,Right,
,,,,,,,,,,,,,,,,,561,18,Woman,Right,2,29,0.4,2,0,180,180,0.5935567000014998,['y'],0.6427227000021958,1.808,1543.7195260000008,,,,,561,18,Woman,Right,
,,,,,,,,,,,,,,,,,561,18,Woman,Right,2,11,0.4,2,180,0,0,0.4088040999995428,['y'],0.5458963000019139,1.806,1547.2698971999998,,,,,561,18,Woman,Right,
,,,,,,,,,,,,,,,,,561,18,Woman,Right,2,37,0.4,2,0,180,180,0.6448898000016925,['y'],0.6737709999979415,1.806,1551.0864488999978,,,,,561,18,Woman,Right,
,,,,,,,,,,,,,,,,,561,18,Woman,Right,2,79,0.15,2,180,0,0,0.46153269999922486,['y'],0.7132524000007834,1.6640000000000001,1554.9031402,,,,,561,18,Woman,Right,
,,,,,,,,,,,,,,,,,561,18,Woman,Right,2,63,0.15,2,180,0,180,1.9336781000019982,['n'],0.984016899998096,1.67,1560.3029414999983,,,,,561,18,Woman,Right,
,,,,,,,,,,,,,,,,,561,18,Woman,Right,3,10,0.4,1,180,-,180,1.0865305000006629,['n'],0.9104483999981312,1.876,1574.9861373999993,77.5,92.5,60.0,,561,18,Woman,Right,
,,,,,,,,,,,,,,,,,561,18,Woman,Right,3,32,0.4,1,0,-,0,0.2546433999996225,['n'],1.2702190000018163,1.876,1574.9861373999993,,,,,561,18,Woman,Right,
,,,,,,,,,,,,,,,,,561,18,Woman,Right,3,34,0.4,1,180,-,180,0.3132779000006849,['n'],0.6534895000004326,1.85,1582.1529149999988,,,,,561,18,Woman,Right,
,,,,,,,,,,,,,,,,,561,18,Woman,Right,3,69,0.15,2,0,180,0,0.48921900000277674,['n'],0.6930503000003227,1.6600000000000001,1586.6862460000011,,,,,561,18,Woman,Right,
,,,,,,,,,,,,,,,,,561,18,Woman,Right,3,36,0.4,1,0,-,0,0.5501494000018283,['n'],0.6083101000003808,1.6600000000000001,1586.6862460000011,,,,,561,18,Woman,Right,
,,,,,,,,,,,,,,,,,561,18,Woman,Right,3,64,0.15,1,0,-,180,1.0181747000024188,['n'],2.755762400000094,1.6600000000000001,1596.9698323999983,,,,,561,18,Woman,Right,
,,,,,,,,,,,,,,,,,561,18,Woman,Right,3,68,0.15,1,0,-,0,0.435561799997231,['y'],1.0273172999986855,1.65,1600.870507399999,,,,,561,18,Woman,Right,
,,,,,,,,,,,,,,,,,561,18,Woman,Right,3,3,1,2,180,0,0,0.39754420000099344,['y'],1.7068041000020457,1.934,1605.9529664000002,,,,,561,18,Woman,Right,
,,,,,,,,,,,,,,,,,561,18,Woman,Right,3,17,0.4,2,0,180,180,0.5057827999989968,['y'],0.7857308999991801,1.87,1609.9863020000012,,,,,561,18,Woman,Right,
,,,,,,,,,,,,,,,,,561,18,Woman,Right,3,37,0.4,2,0,180,180,0.3015656999996281,['y'],0.4978463000006741,1.866,1613.2029876999986,,,,,561,18,Woman,Right,
,,,,,,,,,,,,,,,,,561,18,Woman,Right,3,66,0.15,1,180,-,0,0.30957820000185166,['n'],0.6814216000020679,1.6680000000000001,1616.969578199998,,,,,561,18,Woman,Right,
,,,,,,,,,,,,,,,,,561,18,Woman,Right,3,57,0.15,2,0,180,0,1.552588200000173,['n'],0.6802950000019337,1.686,1621.5530048,,,,,561,18,Woman,Right,
,,,,,,,,,,,,,,,,,561,18,Woman,Right,3,6,1,1,180,-,180,0.3473755000013625,['n'],0.9364310000019032,2.0,1625.269902199998,,,,,561,18,Woman,Right,
,,,,,,,,,,,,,,,,,561,18,Woman,Right,3,2,1,1,180,-,180,0.5797996000001149,['n'],0.7919330000004265,1.996,1629.3697470000006,,,,,561,18,Woman,Right,
,,,,,,,,,,,,,,,,,561,18,Woman,Right,3,61,0.15,2,0,180,0,0.246928200002003,['n'],0.799167999997735,1.7,1633.1364195999995,,,,,561,18,Woman,Right,
,,,,,,,,,,,,,,,,,561,18,Woman,Right,3,50,0.15,1,180,-,0,0.2375904000000446,['y'],1.2945984999969369,1.31,1637.8533099999986,,,,,561,18,Woman,Right,
,,,,,,,,,,,,,,,,,561,18,Woman,Right,3,70,0.15,1,180,-,180,0.34207859999878565,['n'],1.1660951000012574,1.6019999999999999,1642.2866087000002,,,,,561,18,Woman,Right,
,,,,,,,,,,,,,,,,,561,18,Woman,Right,3,15,0.4,2,180,0,0,0.5040736999981164,['y'],0.5733316000005289,1.6640000000000001,1646.0697163000004,,,,,561,18,Woman,Right,
,,,,,,,,,,,,,,,,,561,18,Woman,Right,3,7,1,2,180,0,0,0.3085739000016474,['y'],0.7888726999990467,1.6640000000000001,1649.7038799000002,,,,,561,18,Woman,Right,
,,,,,,,,,,,,,,,,,561,18,Woman,Right,3,63,0.15,2,180,0,0,0.4648622999993677,['n'],0.8851169000008667,1.6640000000000001,1653.3866028000011,,,,,561,18,Woman,Right,
,,,,,,,,,,,,,,,,,561,18,Woman,Right,3,76,0.15,1,0,-,180,0.5547858999998425,['n'],0.7081025000006775,1.662,1657.0699588999996,,,,,561,18,Woman,Right,
,,,,,,,,,,,,,,,,,561,18,Woman,Right,3,19,0.4,2,180,0,0,0.505723800000851,['y'],0.5078558999994129,1.662,1660.5373407999978,,,,,561,18,Woman,Right,
,,,,,,,,,,,,,,,,,561,18,Woman,Right,3,25,0.4,2,0,180,180,0.3526687000012316,['y'],0.9953179000003729,1.88,1664.2530866999987,,,,,561,18,Woman,Right,
,,,,,,,,,,,,,,,,,561,18,Woman,Right,3,35,0.4,2,180,0,0,0.24188910000157193,['y'],0.5706371000014769,1.752,1667.6696598999988,,,,,561,18,Woman,Right,
,,,,,,,,,,,,,,,,,561,18,Woman,Right,3,79,0.15,2,180,0,0,1.5238348000020778,['n'],0.8101822999997239,1.6219999999999999,1672.403033999999,,,,,561,18,Woman,Right,
,,,,,,,,,,,,,,,,,561,18,Woman,Right,3,45,0.15,2,0,180,0,0.457574799998838,['n'],1.0656546999998682,1.874,1676.8530374000002,,,,,561,18,Woman,Right,
,,,,,,,,,,,,,,,,,561,18,Woman,Right,3,5,1,2,0,180,180,0.37750969999979134,['y'],0.4011490999982925,1.97,1680.3530318999983,,,,,561,18,Woman,Right,
,,,,,,,,,,,,,,,,,561,18,Woman,Right,3,22,0.4,1,180,-,180,0.6179522999991605,['n'],0.8404760000012175,1.6480000000000001,1684.5867217999985,,,,,561,18,Woman,Right,
,,,,,,,,,,,,,,,,,561,18,Woman,Right,3,20,0.4,1,0,-,0,0.3929729999981646,['n'],1.079684800002724,1.862,1688.5364365999994,,,,,561,18,Woman,Right,
,,,,,,,,,,,,,,,,,561,18,Woman,Right,3,43,0.4,2,180,0,0,0.433899299998302,['y'],0.4635426999993797,1.84,1691.9867292999988,,,,,561,18,Woman,Right,
,,,,,,,,,,,,,,,,,561,18,Woman,Right,3,8,0.4,1,0,-,0,0.6883207999999286,['n'],0.5430737999995472,1.798,1695.753104200001,,,,,561,18,Woman,Right,
,,,,,,,,,,,,,,,,,561,18,Woman,Right,3,28,0.4,1,0,-,0,0.400002599999425,['n'],0.6706274999996822,1.77,1699.186434299998,,,,,561,18,Woman,Right,
,,,,,,,,,,,,,,,,,561,18,Woman,Right,3,77,0.15,2,0,180,0,0.6419725000014296,['n'],0.5820343000013963,1.6560000000000001,1703.0865015999989,,,,,561,18,Woman,Right,
,,,,,,,,,,,,,,,,,561,18,Woman,Right,3,41,0.4,2,0,180,180,0.43623460000162595,['y'],0.5096225999986927,1.596,1707.1031494999988,,,,,561,18,Woman,Right,
,,,,,,,,,,,,,,,,,561,18,Woman,Right,3,42,0.4,1,180,-,180,0.5275884000002407,['n'],1.397383899999113,1.626,1711.8031701,,,,,561,18,Woman,Right,
,,,,,,,,,,,,,,,,,561,18,Woman,Right,3,48,0.15,1,0,-,0,0.10062459999971907,['n'],0.7729613999981666,1.626,1715.8865602000005,,,,,561,18,Woman,Right,
,,,,,,,,,,,,,,,,,561,18,Woman,Right,3,58,0.15,1,180,-,0,0.13676240000131656,['n'],0.9723554999982298,1.626,1719.2533425000001,,,,,561,18,Woman,Right,
,,,,,,,,,,,,,,,,,561,18,Woman,Right,3,75,0.15,2,180,0,180,0.7628997000028903,['n'],0.8998864999994112,1.626,1723.287347999998,,,,,561,18,Woman,Right,
,,,,,,,,,,,,,,,,,561,18,Woman,Right,3,78,0.15,1,180,-,0,0.26658669999960694,['n'],1.9267165999990539,1.75,1728.1699129000008,,,,,561,18,Woman,Right,
,,,,,,,,,,,,,,,,,561,18,Woman,Right,3,56,0.15,1,0,-,0,0.14381180000054883,['n'],0.6270811000031244,1.732,1731.7031138999992,,,,,561,18,Woman,Right,
,,,,,,,,,,,,,,,,,561,18,Woman,Right,3,29,0.4,2,0,180,180,0.42630819999976666,['y'],1.0907536999984586,1.726,1735.6034508999983,,,,,561,18,Woman,Right,
,,,,,,,,,,,,,,,,,561,18,Woman,Right,3,39,0.4,2,180,0,0,0.4526893999973254,['y'],0.9056676000000152,1.712,1739.2532030000002,,,,,561,18,Woman,Right,
,,,,,,,,,,,,,,,,,561,18,Woman,Right,3,67,0.15,2,180,0,0,0.1445482000017364,['n'],0.8571975000013481,1.6219999999999999,1743.1865139000001,,,,,561,18,Woman,Right,
,,,,,,,,,,,,,,,,,561,18,Woman,Right,3,40,0.4,1,0,-,0,0.8051823000023433,['n'],0.6488797000019986,1.8900000000000001,1748.4368985,,,,,561,18,Woman,Right,
,,,,,,,,,,,,,,,,,561,18,Woman,Right,3,14,0.4,1,180,-,180,0.44911190000129864,['n'],0.776574299998174,1.9060000000000001,1752.703338299998,,,,,561,18,Woman,Right,
,,,,,,,,,,,,,,,,,561,18,Woman,Right,3,49,0.15,2,0,180,180,0.7109058000023651,['y'],0.37593899999774294,1.272,1756.8035057999987,,,,,561,18,Woman,Right,
,,,,,,,,,,,,,,,,,561,18,Woman,Right,3,9,0.4,2,0,180,180,0.41598660000090604,['y'],0.5749873999993724,1.6099999999999999,1760.4698710999983,,,,,561,18,Woman,Right,
,,,,,,,,,,,,,,,,,561,18,Woman,Right,3,11,0.4,2,180,0,0,0.3948234000017692,['y'],0.7503948000012315,1.762,1764.7367575999997,,,,,561,18,Woman,Right,
,,,,,,,,,,,,,,,,,561,18,Woman,Right,3,54,0.15,1,180,-,180,0.5304722000000766,['n'],0.4138356000003114,1.6320000000000001,1768.4366168999986,,,,,561,18,Woman,Right,
,,,,,,,,,,,,,,,,,561,18,Woman,Right,3,38,0.4,1,180,-,180,0.404322599999432,['n'],0.6615266999979212,1.918,1772.1199147999978,,,,,561,18,Woman,Right,
,,,,,,,,,,,,,,,,,561,18,Woman,Right,3,72,0.15,1,0,-,0,0.2060922999989998,['n'],0.7570777000000817,1.8,1775.4200533000003,,,,,561,18,Woman,Right,
,,,,,,,,,,,,,,,,,561,18,Woman,Right,3,59,0.15,2,180,0,0,1.3384518000020762,['y'],0.6606664999999339,1.13,1780.9532567999995,,,,,561,18,Woman,Right,
,,,,,,,,,,,,,,,,,561,18,Woman,Right,3,18,0.4,1,180,-,180,0.3032893999989028,['n'],1.33978610000122,1.682,1785.2032699999982,,,,,561,18,Woman,Right,
,,,,,,,,,,,,,,,,,561,18,Woman,Right,3,55,0.15,2,180,0,180,1.3975953000008303,['n'],0.5793015999988711,1.282,1790.2370343000002,,,,,561,18,Woman,Right,
,,,,,,,,,,,,,,,,,561,18,Woman,Right,3,30,0.4,1,180,-,180,0.4449476000008872,['n'],0.7787552999980107,1.684,1793.8866702999985,,,,,561,18,Woman,Right,
,,,,,,,,,,,,,,,,,561,18,Woman,Right,3,1,1,2,0,180,180,0.6000106000028609,['y'],0.6742517000020598,1.684,1793.8866702999985,,,,,561,18,Woman,Right,
,,,,,,,,,,,,,,,,,561,18,Woman,Right,3,27,0.4,2,180,0,0,0.3917050999989442,['y'],0.6178627000008419,2.0,1801.0534741999982,,,,,561,18,Woman,Right,
,,,,,,,,,,,,,,,,,561,18,Woman,Right,3,52,0.15,1,0,-,0,0.6314806000009412,['n'],0.8094236999968416,1.5859999999999999,1805.3366146999979,,,,,561,18,Woman,Right,
,,,,,,,,,,,,,,,,,561,18,Woman,Right,3,73,0.15,2,0,180,0,0.7429983000001812,['n'],0.816797299998143,1.584,1809.2033353999977,,,,,561,18,Woman,Right,
,,,,,,,,,,,,,,,,,561,18,Woman,Right,3,44,0.15,1,0,-,0,0.9834014999978535,['y'],0.6163162999982887,1.174,1814.170022899998,,,,,561,18,Woman,Right,
,,,,,,,,,,,,,,,,,561,18,Woman,Right,3,71,0.15,2,180,0,0,0.14287870000043768,['n'],0.768019600000116,1.5979999999999999,1817.7868978000006,,,,,561,18,Woman,Right,
,,,,,,,,,,,,,,,,,561,18,Woman,Right,3,24,0.4,1,0,-,0,0.2523639000028197,['n'],0.8076196000001801,1.712,1821.6368417999984,,,,,561,18,Woman,Right,
,,,,,,,,,,,,,,,,,561,18,Woman,Right,3,51,0.15,2,180,0,0,0.2623335999996925,['y'],0.9029296000007889,1.298,1826.4033471000002,,,,,561,18,Woman,Right,
,,,,,,,,,,,,,,,,,561,18,Woman,Right,3,74,0.15,1,180,-,0,0.25734920000104466,['n'],0.8222190000014962,1.612,1830.5033736000005,,,,,561,18,Woman,Right,
,,,,,,,,,,,,,,,,,561,18,Woman,Right,3,47,0.15,2,180,0,0,0.3170868999986851,['y'],0.797709999998915,1.302,1834.3200331999979,,,,,561,18,Woman,Right,
,,,,,,,,,,,,,,,,,561,18,Woman,Right,3,23,0.4,2,180,0,0,0.41760140000042156,['y'],0.661318399997981,1.6560000000000001,1838.2032508999982,,,,,561,18,Woman,Right,
,,,,,,,,,,,,,,,,,561,18,Woman,Right,3,46,0.15,1,180,-,180,0.6860782999974617,['n'],0.8047245999987354,1.646,1842.7201583999995,,,,,561,18,Woman,Right,
,,,,,,,,,,,,,,,,,561,18,Woman,Right,3,13,0.4,2,0,180,180,0.6552187999986927,['y'],0.9484002999997756,1.528,1847.2366871999984,,,,,561,18,Woman,Right,
,,,,,,,,,,,,,,,,,561,18,Woman,Right,3,16,0.4,1,0,-,0,1.165968100001919,['n'],0.9560120000023744,1.666,1852.2536373000003,,,,,561,18,Woman,Right,
,,,,,,,,,,,,,,,,,561,18,Woman,Right,3,62,0.15,1,180,-,180,0.5796484999991662,['n'],1.1231173999985913,1.208,1856.6366552,,,,,561,18,Woman,Right,
,,,,,,,,,,,,,,,,,561,18,Woman,Right,3,53,0.15,2,0,180,180,0.3877040000006673,['n'],0.7704847999993945,1.242,1860.6368102999986,,,,,561,18,Woman,Right,
,,,,,,,,,,,,,,,,,561,18,Woman,Right,3,26,0.4,1,180,-,180,0.4428903000007267,['n'],0.5779736999975285,1.888,1864.503637400001,,,,,561,18,Woman,Right,
,,,,,,,,,,,,,,,,,561,18,Woman,Right,3,60,0.15,1,0,-,180,0.43858890000046813,['n'],0.6975705000004382,1.134,1869.070175500001,,,,,561,18,Woman,Right,
,,,,,,,,,,,,,,,,,561,18,Woman,Right,3,65,0.15,2,0,180,0,0.2937420000016573,['n'],1.3770795000018552,1.71,1873.536804299998,,,,,561,18,Woman,Right,
,,,,,,,,,,,,,,,,,561,18,Woman,Right,3,0,1,1,0,-,0,0.6438822999989497,['n'],0.56035619999966,1.874,1877.6367422000003,,,,,561,18,Woman,Right,
,,,,,,,,,,,,,,,,,561,18,Woman,Right,3,12,0.4,1,0,-,0,0.664295000002312,['n'],0.8156348999982583,1.87,1881.4369281,,,,,561,18,Woman,Right,
,,,,,,,,,,,,,,,,,561,18,Woman,Right,3,4,1,1,0,-,0,0.4060649999992165,['n'],0.5595810999984678,1.862,1884.9868669999996,,,,,561,18,Woman,Right,
,,,,,,,,,,,,,,,,,561,18,Woman,Right,3,31,0.4,2,180,0,0,0.5037397999985842,['y'],0.4788960000005318,1.854,1888.4034461999981,,,,,561,18,Woman,Right,
,,,,,,,,,,,,,,,,,561,18,Woman,Right,3,33,0.4,2,0,180,180,0.40013989999715704,['y'],0.830495999998675,1.922,1892.054539599998,,,,,561,18,Woman,Right,
,,,,,,,,,,,,,,,,,561,18,Woman,Right,3,21,0.4,2,0,180,180,0.5192502000027162,['y'],1.206093900000269,1.732,1896.1536276000006,,,,,561,18,Woman,Right,
,,,,,,,,,,,,,,,,,561,18,Woman,Right,4,75,0.15,2,180,0,0,0.5896103000013682,['n'],0.8516453000011097,1.732,1896.1536276000006,78.75,92.5,65.0,,561,18,Woman,Right,
,,,,,,,,,,,,,,,,,561,18,Woman,Right,4,54,0.15,1,180,-,180,0.3178819000022486,['n'],1.0357471000024816,1.5979999999999999,1917.1037804999978,,,,,561,18,Woman,Right,
,,,,,,,,,,,,,,,,,561,18,Woman,Right,4,50,0.15,1,180,-,180,0.34934529999736696,['n'],0.5786535000006552,1.324,1921.2368805999977,,,,,561,18,Woman,Right,
,,,,,,,,,,,,,,,,,561,18,Woman,Right,4,26,0.4,1,180,-,180,0.6203955999990285,['n'],0.9462414999979956,1.324,1921.2368805999977,,,,,561,18,Woman,Right,
,,,,,,,,,,,,,,,,,561,18,Woman,Right,4,16,0.4,1,0,-,180,0.9995651000026555,['y'],0.6978633000035188,1.392,1929.3710729999984,,,,,561,18,Woman,Right,
,,,,,,,,,,,,,,,,,561,18,Woman,Right,4,8,0.4,1,0,-,0,0.6500555999991775,['n'],0.9132606999992277,1.392,1929.3710729999984,,,,,561,18,Woman,Right,
,,,,,,,,,,,,,,,,,561,18,Woman,Right,4,64,0.15,1,0,-,0,1.4382665000011912,['n'],1.1765320000013162,1.762,1939.2537664999982,,,,,561,18,Woman,Right,
,,,,,,,,,,,,,,,,,561,18,Woman,Right,4,21,0.4,2,0,180,180,0.3992207999981474,['y'],0.6079979999994976,1.758,1943.1035365999996,,,,,561,18,Woman,Right,
,,,,,,,,,,,,,,,,,561,18,Woman,Right,4,30,0.4,1,180,-,180,0.41347010000026785,['n'],0.5436302999987674,1.934,1946.7702301999998,,,,,561,18,Woman,Right,
,,,,,,,,,,,,,,,,,561,18,Woman,Right,4,12,0.4,1,0,-,0,0.4342751000003773,['n'],0.9509212999982992,1.69,1950.7037014999987,,,,,561,18,Woman,Right,
,,,,,,,,,,,,,,,,,561,18,Woman,Right,4,65,0.15,2,0,180,0,0.4832644000016444,['n'],0.9746897000004537,1.266,1954.7205370999982,,,,,561,18,Woman,Right,
,,,,,,,,,,,,,,,,,561,18,Woman,Right,4,58,0.15,1,180,-,180,0.4381314999991446,['n'],0.8620876999993925,1.728,1958.8203341000008,,,,,561,18,Woman,Right,
,,,,,,,,,,,,,,,,,561,18,Woman,Right,4,34,0.4,1,180,-,180,0.747581600000558,['n'],0.6535459000006085,1.684,1962.8039394000007,,,,,561,18,Woman,Right,
,,,,,,,,,,,,,,,,,561,18,Woman,Right,4,63,0.15,2,180,0,0,0.4789414000006218,['n'],1.3570605999993859,1.712,1967.0539731999997,,,,,561,18,Woman,Right,
,,,,,,,,,,,,,,,,,561,18,Woman,Right,4,0,1,1,0,-,0,0.2806192000025476,['n'],0.8767852999990282,2.0,1970.6537960999995,,,,,561,18,Woman,Right,
,,,,,,,,,,,,,,,,,561,18,Woman,Right,4,67,0.15,2,180,0,0,0.41444419999970705,['y'],0.6042558000008285,1.6280000000000001,1974.4370990999996,,,,,561,18,Woman,Right,
,,,,,,,,,,,,,,,,,561,18,Woman,Right,4,59,0.15,2,180,0,0,0.31906359999993583,['n'],0.635494900001504,1.63,1978.2536105,,,,,561,18,Woman,Right,
,,,,,,,,,,,,,,,,,561,18,Woman,Right,4,14,0.4,1,180,-,180,0.3928446999998414,['n'],2.9394171999992977,1.634,1984.553856399998,,,,,561,18,Woman,Right,
,,,,,,,,,,,,,,,,,561,18,Woman,Right,4,38,0.4,1,180,-,180,0.23880020000069635,['n'],1.5223745000002964,1.672,1988.7372289999985,,,,,561,18,Woman,Right,
,,,,,,,,,,,,,,,,,561,18,Woman,Right,4,17,0.4,2,0,180,180,0.4321032000007108,['y'],0.43387369999982184,1.828,1992.1203391999989,,,,,561,18,Woman,Right,
,,,,,,,,,,,,,,,,,561,18,Woman,Right,4,78,0.15,1,180,-,180,0.6562094999972032,['n'],1.7375692999994499,1.764,1997.2369608000008,,,,,561,18,Woman,Right,
,,,,,,,,,,,,,,,,,561,18,Woman,Right,4,41,0.4,2,0,180,180,0.36140660000091884,['y'],0.464633399999002,1.756,2000.470343500001,,,,,561,18,Woman,Right,
,,,,,,,,,,,,,,,,,561,18,Woman,Right,4,10,0.4,1,180,-,180,0.624981500001013,['n'],0.4642106999999669,1.756,2004.3370499000011,,,,,561,18,Woman,Right,
,,,,,,,,,,,,,,,,,561,18,Woman,Right,4,32,0.4,1,0,-,0,0.4679778999998234,['n'],0.640048499997647,1.666,2008.0369844999987,,,,,561,18,Woman,Right,
,,,,,,,,,,,,,,,,,561,18,Woman,Right,4,40,0.4,1,0,-,0,0.36723349999738275,['n'],2.008102699997835,1.282,2013.2036518999994,,,,,561,18,Woman,Right,
,,,,,,,,,,,,,,,,,561,18,Woman,Right,4,9,0.4,2,0,180,180,0.4723372999978892,['y'],0.6144801000009465,1.376,2017.2203776999995,,,,,561,18,Woman,Right,
,,,,,,,,,,,,,,,,,561,18,Woman,Right,4,37,0.4,2,0,180,180,0.4487264999988838,['y'],0.5982031999992614,1.684,2021.5212565000002,,,,,561,18,Woman,Right,
,,,,,,,,,,,,,,,,,561,18,Woman,Right,4,53,0.15,2,0,180,0,0.15022099999987404,['n'],0.7460466000011365,1.634,2025.5037363999982,,,,,561,18,Woman,Right,
,,,,,,,,,,,,,,,,,561,18,Woman,Right,4,70,0.15,1,180,-,0,0.4439481000008527,['n'],0.6451376999975764,1.3399999999999999,2029.353970799999,,,,,561,18,Woman,Right,
,,,,,,,,,,,,,,,,,561,18,Woman,Right,4,20,0.4,1,0,-,0,0.5089368000008108,['y'],0.6926425999990897,1.3639999999999999,2033.0540508999984,,,,,561,18,Woman,Right,
,,,,,,,,,,,,,,,,,561,18,Woman,Right,4,55,0.15,2,180,0,0,1.5036388000007719,['y'],1.14795310000045,1.6400000000000001,2038.2374773999982,,,,,561,18,Woman,Right,
,,,,,,,,,,,,,,,,,561,18,Woman,Right,4,3,1,2,180,0,0,0.4267980999975407,['y'],0.9798770999987028,1.6320000000000001,2042.3204138,,,,,561,18,Woman,Right,
,,,,,,,,,,,,,,,,,561,18,Woman,Right,4,74,0.15,1,180,-,180,1.2427734000011696,['n'],1.08297169999787,1.624,2047.320392499998,,,,,561,18,Woman,Right,
,,,,,,,,,,,,,,,,,561,18,Woman,Right,4,46,0.15,1,180,-,0,0.28638730000238866,['n'],0.770517100001598,1.6400000000000001,2051.1704286999993,,,,,561,18,Woman,Right,
,,,,,,,,,,,,,,,,,561,18,Woman,Right,4,4,1,1,0,-,0,0.6279718000005232,['n'],0.7616375999969023,1.994,2055.3204054999987,,,,,561,18,Woman,Right,
,,,,,,,,,,,,,,,,,561,18,Woman,Right,4,13,0.4,2,0,180,180,0.4374743000007584,['y'],0.6015565000016068,1.646,2059.0538271999976,,,,,561,18,Woman,Right,
,,,,,,,,,,,,,,,,,561,18,Woman,Right,4,22,0.4,1,180,-,180,0.3304859999989276,['n'],0.433056799996848,1.892,2062.3875230999984,,,,,561,18,Woman,Right,
,,,,,,,,,,,,,,,,,561,18,Woman,Right,4,77,0.15,2,0,180,0,0.20595909999974538,['y'],1.4083793999998306,1.38,2066.954044899998,,,,,561,18,Woman,Right,
,,,,,,,,,,,,,,,,,561,18,Woman,Right,4,60,0.15,1,0,-,0,0.4486264000006486,['n'],0.5676977000002807,1.626,2070.553751700001,,,,,561,18,Woman,Right,
,,,,,,,,,,,,,,,,,561,18,Woman,Right,4,73,0.15,2,0,180,180,0.5942763999992167,['y'],0.8396023000022979,1.638,2074.2370746999986,,,,,561,18,Woman,Right,
,,,,,,,,,,,,,,,,,561,18,Woman,Right,4,24,0.4,1,0,-,0,0.22191190000012284,['n'],1.1512036999993143,2.0,2078.1040181999997,,,,,561,18,Woman,Right,
,,,,,,,,,,,,,,,,,561,18,Woman,Right,4,29,0.4,2,0,180,180,0.46261410000079195,['y'],0.42232399999920744,2.0,2081.603775200001,,,,,561,18,Woman,Right,
,,,,,,,,,,,,,,,,,561,18,Woman,Right,4,71,0.15,2,180,0,0,0.3107170999974187,['n'],0.9501448999981221,1.584,2085.7036946000007,,,,,561,18,Woman,Right,
,,,,,,,,,,,,,,,,,561,18,Woman,Right,4,19,0.4,2,180,0,0,0.5957568000012543,['y'],0.8859191999981704,1.904,2089.9037881000004,,,,,561,18,Woman,Right,
,,,,,,,,,,,,,,,,,561,18,Woman,Right,4,5,1,2,0,180,180,0.41544409999914933,['y'],0.6608291999982612,1.8780000000000001,2093.437230399999,,,,,561,18,Woman,Right,
,,,,,,,,,,,,,,,,,561,18,Woman,Right,4,18,0.4,1,180,-,180,0.4169723000013619,['n'],0.46849640000073123,1.734,2097.0538033999983,,,,,561,18,Woman,Right,
,,,,,,,,,,,,,,,,,561,18,Woman,Right,4,47,0.15,2,180,0,180,0.38122110000040266,['n'],1.3804280000003928,1.728,2101.220509999999,,,,,561,18,Woman,Right,
,,,,,,,,,,,,,,,,,561,18,Woman,Right,4,57,0.15,2,0,180,180,0.3630955000007816,['n'],0.7237768999984837,1.73,2104.603769199999,,,,,561,18,Woman,Right,
,,,,,,,,,,,,,,,,,561,18,Woman,Right,4,52,0.15,1,0,-,0,0.4241509999992559,['n'],0.6673249000014039,1.732,2108.0207263999982,,,,,561,18,Woman,Right,
,,,,,,,,,,,,,,,,,561,18,Woman,Right,4,36,0.4,1,0,-,0,0.17124619999958668,['n'],0.5311820999995689,1.732,2111.4038991999987,,,,,561,18,Woman,Right,
,,,,,,,,,,,,,,,,,561,18,Woman,Right,4,45,0.15,2,0,180,0,0.7790420999990602,['n'],1.5864277000000584,1.33,2116.253843999999,,,,,561,18,Woman,Right,
,,,,,,,,,,,,,,,,,561,18,Woman,Right,4,28,0.4,1,0,-,0,0.40002110000204993,['n'],0.5774609000000055,1.588,2119.6375813999985,,,,,561,18,Woman,Right,
,,,,,,,,,,,,,,,,,561,18,Woman,Right,4,79,0.15,2,180,0,0,0.3260821000003489,['n'],0.9533327000026475,1.604,2123.4705555,,,,,561,18,Woman,Right,
,,,,,,,,,,,,,,,,,561,18,Woman,Right,4,56,0.15,1,0,-,0,0.21163399999932153,['n'],1.0730332000021008,1.604,2123.4705555,,,,,561,18,Woman,Right,
,,,,,,,,,,,,,,,,,561,18,Woman,Right,4,33,0.4,2,0,180,180,0.4284784999981639,['y'],0.42431589999978314,1.6059999999999999,2130.253972499999,,,,,561,18,Woman,Right,
,,,,,,,,,,,,,,,,,561,18,Woman,Right,4,76,0.15,1,0,-,0,0.18320870000025025,['n'],0.7207353999983752,1.07,2135.0872186999986,,,,,561,18,Woman,Right,
,,,,,,,,,,,,,,,,,561,18,Woman,Right,4,15,0.4,2,180,0,0,0.7386865000007674,['y'],0.6714014000026509,1.758,2139.853895,,,,,561,18,Woman,Right,
,,,,,,,,,,,,,,,,,561,18,Woman,Right,4,1,1,2,0,180,180,0.6687490000003891,['y'],0.638866199999029,1.926,2144.603915399999,,,,,561,18,Woman,Right,
,,,,,,,,,,,,,,,,,561,18,Woman,Right,4,61,0.15,2,0,180,0,0.06438640000123996,['y'],1.0461561000010988,1.248,2148.620651699999,,,,,561,18,Woman,Right,
,,,,,,,,,,,,,,,,,561,18,Woman,Right,4,69,0.15,2,0,180,0,0.6009349000014481,['n'],1.1022047000005841,1.54,2152.7872494000003,,,,,561,18,Woman,Right,
,,,,,,,,,,,,,,,,,561,18,Woman,Right,4,48,0.15,1,0,-,0,0.3673856999994314,['n'],0.7893215000003693,1.54,2152.7872494000003,,,,,561,18,Woman,Right,
,,,,,,,,,,,,,,,,,561,18,Woman,Right,4,2,1,1,180,-,180,0.2667942000007315,['n'],0.9241306000003533,1.5,2159.4954384999983,,,,,561,18,Woman,Right,
,,,,,,,,,,,,,,,,,561,18,Woman,Right,4,62,0.15,1,180,-,0,0.426744399999734,['n'],0.5721808000016608,1.302,2163.7541859999983,,,,,561,18,Woman,Right,
,,,,,,,,,,,,,,,,,561,18,Woman,Right,4,39,0.4,2,180,0,0,0.4274595999995654,['n'],2.9479801999987103,1.728,2169.8872564999983,,,,,561,18,Woman,Right,
,,,,,,,,,,,,,,,,,561,18,Woman,Right,4,72,0.15,1,0,-,0,0.15765939999982947,['n'],0.7150613000012527,1.7,2173.6372252,,,,,561,18,Woman,Right,
,,,,,,,,,,,,,,,,,561,18,Woman,Right,4,7,1,2,180,0,0,0.55610230000093,['y'],0.5064070000007632,1.7,2173.6372252,,,,,561,18,Woman,Right,
,,,,,,,,,,,,,,,,,561,18,Woman,Right,4,49,0.15,2,0,180,0,0.09825119999732124,['n'],0.6426520999993954,1.698,2179.8705530000007,,,,,561,18,Woman,Right,
,,,,,,,,,,,,,,,,,561,18,Woman,Right,4,27,0.4,2,180,0,0,0.3949745999998413,['y'],0.45813230000203475,1.698,2179.8705530000007,,,,,561,18,Woman,Right,
,,,,,,,,,,,,,,,,,561,18,Woman,Right,4,66,0.15,1,180,-,180,0.647290000000794,['n'],1.2973369999999704,1.5,2186.5989869999976,,,,,561,18,Woman,Right,
,,,,,,,,,,,,,,,,,561,18,Woman,Right,4,6,1,1,180,-,180,0.3940670999982103,['n'],1.017139200001111,2.0,2190.953953199998,,,,,561,18,Woman,Right,
,,,,,,,,,,,,,,,,,561,18,Woman,Right,4,68,0.15,1,0,-,0,0.48077139999804785,['n'],1.128364899999724,2.0,2194.8206777999985,,,,,561,18,Woman,Right,
,,,,,,,,,,,,,,,,,561,18,Woman,Right,4,11,0.4,2,180,0,0,0.39520679999986896,['y'],0.5439718999987235,1.676,2198.5706850999995,,,,,561,18,Woman,Right,
,,,,,,,,,,,,,,,,,561,18,Woman,Right,4,31,0.4,2,180,0,0,1.7768178000005719,['y'],0.8632367999998678,1.698,2203.4042311999983,,,,,561,18,Woman,Right,
,,,,,,,,,,,,,,,,,561,18,Woman,Right,4,44,0.15,1,0,-,0,0.1028440000009141,['n'],0.8949685000006866,1.724,2206.671579099999,,,,,561,18,Woman,Right,
,,,,,,,,,,,,,,,,,561,18,Woman,Right,4,35,0.4,2,180,0,0,0.3718360999992001,['y'],0.49444239999866113,1.252,2210.287561500001,,,,,561,18,Woman,Right,
,,,,,,,,,,,,,,,,,561,18,Woman,Right,4,43,0.4,2,180,0,0,0.33898450000197045,['y'],0.5735071000017342,1.3479999999999999,2214.020639800001,,,,,561,18,Woman,Right,
,,,,,,,,,,,,,,,,,561,18,Woman,Right,4,51,0.15,2,180,0,180,0.32701470000029076,['n'],0.949495000000752,1.646,2217.8706605000007,,,,,561,18,Woman,Right,
,,,,,,,,,,,,,,,,,561,18,Woman,Right,4,25,0.4,2,0,180,180,0.38764179999998305,['y'],0.46894850000171573,1.6219999999999999,2221.137571799998,,,,,561,18,Woman,Right,
,,,,,,,,,,,,,,,,,561,18,Woman,Right,4,42,0.4,1,180,-,180,0.5766404000023613,['n'],0.444725200002722,2.0,2225.6541278000004,,,,,561,18,Woman,Right,
,,,,,,,,,,,,,,,,,561,18,Woman,Right,4,23,0.4,2,180,0,0,0.34708559999853605,['y'],0.5080119999984163,1.6440000000000001,2229.7874505,,,,,561,18,Woman,Right,
,,,,,,,,,,,,,,,,,561,18,Woman,Right,5,77,0.15,2,0,180,0,0.1703144000020984,['n'],0.5541191999982402,1.6219999999999999,2244.020928099999,83.75,95.0,65.0,,561,18,Woman,Right,
,,,,,,,,,,,,,,,,,561,18,Woman,Right,5,51,0.15,2,180,0,0,0.21766019999995478,['n'],0.553478300000279,1.726,2247.4875661000005,,,,,561,18,Woman,Right,
,,,,,,,,,,,,,,,,,561,18,Woman,Right,5,7,1,2,180,0,0,0.2837964999998803,['y'],0.425591400002304,1.728,2250.437700899998,,,,,561,18,Woman,Right,
,,,,,,,,,,,,,,,,,561,18,Woman,Right,5,70,0.15,1,180,-,0,0.25368019999950775,['n'],0.7293640999996569,1.814,2253.587735099998,,,,,561,18,Woman,Right,
,,,,,,,,,,,,,,,,,561,18,Woman,Right,5,4,1,1,0,-,0,0.2607972999976482,['y'],0.3603179999990971,1.0,2257.604129399999,,,,,561,18,Woman,Right,
,,,,,,,,,,,,,,,,,561,18,Woman,Right,5,76,0.15,1,0,-,0,0.48660240000026533,['n'],1.0640805999973963,2.0,2261.637610900001,,,,,561,18,Woman,Right,
,,,,,,,,,,,,,,,,,561,18,Woman,Right,5,27,0.4,2,180,0,0,2.0178374999995867,['y'],0.8522164999994857,1.798,2266.737520399998,,,,,561,18,Woman,Right,
,,,,,,,,,,,,,,,,,561,18,Woman,Right,5,26,0.4,1,180,-,180,0.34353420000115875,['n'],0.7672425999990082,1.786,2270.1541959999995,,,,,561,18,Woman,Right,
,,,,,,,,,,,,,,,,,561,18,Woman,Right,5,15,0.4,2,180,0,0,0.7716598000006343,['y'],0.422227600000042,1.6520000000000001,2273.6374362999995,,,,,561,18,Woman,Right,
,,,,,,,,,,,,,,,,,561,18,Woman,Right,5,14,0.4,1,180,-,180,0.4413213999978325,['n'],0.4699828000011621,1.6480000000000001,2276.937434399999,,,,,561,18,Woman,Right,
,,,,,,,,,,,,,,,,,561,18,Woman,Right,5,6,1,1,180,-,180,0.5394492000013997,['n'],0.6219103000003088,1.6480000000000001,2276.937434399999,,,,,561,18,Woman,Right,
,,,,,,,,,,,,,,,,,561,18,Woman,Right,5,54,0.15,1,180,-,180,0.5578337000006286,['n'],0.9650042000030226,1.588,2285.537451199998,,,,,561,18,Woman,Right,
,,,,,,,,,,,,,,,,,561,18,Woman,Right,5,47,0.15,2,180,0,0,0.4793226000001596,['y'],0.6123836000006122,1.212,2289.3041873,,,,,561,18,Woman,Right,
,,,,,,,,,,,,,,,,,561,18,Woman,Right,5,73,0.15,2,0,180,180,0.41080540000257315,['n'],0.5641400000022259,1.3399999999999999,2292.9208218999993,,,,,561,18,Woman,Right,
,,,,,,,,,,,,,,,,,561,18,Woman,Right,5,25,0.4,2,0,180,180,1.435972600000241,['y'],0.5870810000014899,1.678,2298.104408799998,,,,,561,18,Woman,Right,
,,,,,,,,,,,,,,,,,561,18,Woman,Right,5,71,0.15,2,180,0,0,0.2529897999993409,['n'],0.7309867000003578,1.206,2301.737703999999,,,,,561,18,Woman,Right,
,,,,,,,,,,,,,,,,,561,18,Woman,Right,5,2,1,1,180,-,180,0.4865119999994931,['n'],0.9544181999990542,1.87,2305.6541313999987,,,,,561,18,Woman,Right,
,,,,,,,,,,,,,,,,,561,18,Woman,Right,5,9,0.4,2,0,180,180,0.39669710000089253,['y'],0.7461022000024968,1.87,2305.6541313999987,,,,,561,18,Woman,Right,
,,,,,,,,,,,,,,,,,561,18,Woman,Right,5,39,0.4,2,180,0,0,0.46704379999937373,['y'],0.5734706999974151,1.68,2312.9708395999987,,,,,561,18,Woman,Right,
,,,,,,,,,,,,,,,,,561,18,Woman,Right,5,72,0.15,1,0,-,0,0.38698400000066613,['n'],0.48065240000141785,1.588,2316.187753800001,,,,,561,18,Woman,Right,
,,,,,,,,,,,,,,,,,561,18,Woman,Right,5,74,0.15,1,180,-,0,0.23737709999841172,['n'],0.9928111999979592,1.5979999999999999,2320.205326899999,,,,,561,18,Woman,Right,
,,,,,,,,,,,,,,,,,561,18,Woman,Right,5,36,0.4,1,0,-,0,0.23155279999991762,['n'],1.1920530000024883,1.662,2324.020867899999,,,,,561,18,Woman,Right,
,,,,,,,,,,,,,,,,,561,18,Woman,Right,5,62,0.15,1,180,-,180,0.6403251999981876,['n'],0.5596743999994942,1.6400000000000001,2327.820944700001,,,,,561,18,Woman,Right,
,,,,,,,,,,,,,,,,,561,18,Woman,Right,5,18,0.4,1,180,-,180,0.2692480000005162,['n'],0.4713415000005625,1.638,2331.2043846999986,,,,,561,18,Woman,Right,
,,,,,,,,,,,,,,,,,561,18,Woman,Right,5,52,0.15,1,0,-,0,0.3741343000001507,['n'],0.47072380000099656,1.638,2334.888071900001,,,,,561,18,Woman,Right,
,,,,,,,,,,,,,,,,,561,18,Woman,Right,5,60,0.15,1,0,-,180,0.5048919000000751,['n'],2.2222180999997363,1.836,2340.0375662999977,,,,,561,18,Woman,Right,
,,,,,,,,,,,,,,,,,561,18,Woman,Right,5,22,0.4,1,180,-,180,0.38466369999878225,['n'],0.10154759999932139,1.75,2342.487565299998,,,,,561,18,Woman,Right,
,,,,,,,,,,,,,,,,,561,18,Woman,Right,5,5,1,2,0,180,180,0.7632858999968448,['y'],0.7011896999974851,1.846,2348.0877691999995,,,,,561,18,Woman,Right,
,,,,,,,,,,,,,,,,,561,18,Woman,Right,5,42,0.4,1,180,-,180,0.4780189999983122,['n'],0.5246573000003991,1.762,2351.4875866,,,,,561,18,Woman,Right,
,,,,,,,,,,,,,,,,,561,18,Woman,Right,5,55,0.15,2,180,0,0,0.6243224999998347,['n'],0.5639119000006758,1.5939999999999999,2355.1708603999978,,,,,561,18,Woman,Right,
,,,,,,,,,,,,,,,,,561,18,Woman,Right,5,65,0.15,2,0,180,180,1.1787211000009847,['y'],0.8594264000021212,1.374,2359.7878214999982,,,,,561,18,Woman,Right,
,,,,,,,,,,,,,,,,,561,18,Woman,Right,5,31,0.4,2,180,0,0,0.45285189999776776,['y'],0.9389123000000836,1.62,2364.2378395999986,,,,,561,18,Woman,Right,
,,,,,,,,,,,,,,,,,561,18,Woman,Right,5,0,1,1,0,-,0,0.3664576000010129,['n'],1.0345353000011528,2.0,2368.3042465,,,,,561,18,Woman,Right,
,,,,,,,,,,,,,,,,,561,18,Woman,Right,5,37,0.4,2,0,180,180,1.2639727999994648,['y'],1.8980640000008862,1.816,2373.8043216999977,,,,,561,18,Woman,Right,
,,,,,,,,,,,,,,,,,561,18,Woman,Right,5,67,0.15,2,180,0,180,0.5814388000035251,['y'],0.8572815000006813,1.616,2377.6875900999985,,,,,561,18,Woman,Right,
,,,,,,,,,,,,,,,,,561,18,Woman,Right,5,44,0.15,1,0,-,0,0.5407472000006237,['n'],0.8811709000001429,1.556,2381.5545146000004,,,,,561,18,Woman,Right,
,,,,,,,,,,,,,,,,,561,18,Woman,Right,5,48,0.15,1,0,-,0,0.5674471000020276,['n'],0.4640341000012995,1.572,2384.937844799999,,,,,561,18,Woman,Right,
,,,,,,,,,,,,,,,,,561,18,Woman,Right,5,28,0.4,1,0,-,0,0.2723463999973319,['n'],0.5436190000000352,1.8519999999999999,2388.5042216,,,,,561,18,Woman,Right,
,,,,,,,,,,,,,,,,,561,18,Woman,Right,5,45,0.15,2,0,180,0,0.6765285000001313,['n'],1.4152610000019195,1.6320000000000001,2393.2543946999976,,,,,561,18,Woman,Right,
,,,,,,,,,,,,,,,,,561,18,Woman,Right,5,53,0.15,2,0,180,0,0.34652700000151526,['n'],0.7110385999985738,1.612,2396.6209825999977,,,,,561,18,Woman,Right,
,,,,,,,,,,,,,,,,,561,18,Woman,Right,5,29,0.4,2,0,180,180,0.6362628000024415,['y'],0.5589193000014347,1.604,2400.1877026,,,,,561,18,Woman,Right,
,,,,,,,,,,,,,,,,,561,18,Woman,Right,5,69,0.15,2,0,180,180,0.6568296000004921,['y'],1.7418595000017376,1.6019999999999999,2404.9043929,,,,,561,18,Woman,Right,
,,,,,,,,,,,,,,,,,561,18,Woman,Right,5,10,0.4,1,180,-,180,0.3890788999997312,['n'],0.6373687000013888,1.792,2408.371028900001,,,,,561,18,Woman,Right,
,,,,,,,,,,,,,,,,,561,18,Woman,Right,5,66,0.15,1,180,-,180,0.4655925000006391,['n'],0.7490897999996378,1.318,2412.3881409999995,,,,,561,18,Woman,Right,
,,,,,,,,,,,,,,,,,561,18,Woman,Right,5,11,0.4,2,180,0,0,0.7540764000004856,['n'],0.8370748999986972,1.416,2417.154393099998,,,,,561,18,Woman,Right,
,,,,,,,,,,,,,,,,,561,18,Woman,Right,5,49,0.15,2,0,180,180,0.47198220000063884,['n'],0.5079960999973991,1.54,2420.804452299999,,,,,561,18,Woman,Right,
,,,,,,,,,,,,,,,,,561,18,Woman,Right,5,23,0.4,2,180,0,0,0.33582489999753307,['y'],0.45153249999930267,1.5859999999999999,2424.287707899999,,,,,561,18,Woman,Right,
,,,,,,,,,,,,,,,,,561,18,Woman,Right,5,61,0.15,2,0,180,0,0.11081579999881797,['n'],0.8672119000002567,1.5819999999999999,2427.487674799999,,,,,561,18,Woman,Right,
,,,,,,,,,,,,,,,,,561,18,Woman,Right,5,57,0.15,2,0,180,0,0.2719143000031181,['n'],1.7307865000002494,1.744,2431.9377337000005,,,,,561,18,Woman,Right,
,,,,,,,,,,,,,,,,,561,18,Woman,Right,5,35,0.4,2,180,0,180,0.5763602000006358,['n'],0.7294918999978108,1.734,2435.671287699999,,,,,561,18,Woman,Right,
,,,,,,,,,,,,,,,,,561,18,Woman,Right,5,21,0.4,2,0,180,180,0.3962056999989727,['y'],0.5615478999970946,1.722,2438.821211800001,,,,,561,18,Woman,Right,
,,,,,,,,,,,,,,,,,561,18,Woman,Right,5,79,0.15,2,180,0,180,0.9573880999996618,['n'],0.6491768999985652,1.792,2442.6876911,,,,,561,18,Woman,Right,
,,,,,,,,,,,,,,,,,561,18,Woman,Right,5,63,0.15,2,180,0,0,0.6036706999984744,['n'],1.1372541000018828,1.334,2446.9044054999977,,,,,561,18,Woman,Right,
,,,,,,,,,,,,,,,,,561,18,Woman,Right,5,78,0.15,1,180,-,180,1.048784299997351,['n'],0.7598847999979625,1.31,2451.2543926,,,,,561,18,Woman,Right,
,,,,,,,,,,,,,,,,,561,18,Woman,Right,5,1,1,2,0,180,180,0.6745338000000629,['y'],0.9354343000013614,1.786,2455.3545197999993,,,,,561,18,Woman,Right,
,,,,,,,,,,,,,,,,,561,18,Woman,Right,5,3,1,2,180,0,0,0.4408731000003172,['y'],0.5589354999974603,1.736,2458.987773099998,,,,,561,18,Woman,Right,
,,,,,,,,,,,,,,,,,561,18,Woman,Right,5,40,0.4,1,0,-,0,0.40790719999858993,['n'],0.8385463999984495,1.8519999999999999,2462.871119299998,,,,,561,18,Woman,Right,
,,,,,,,,,,,,,,,,,561,18,Woman,Right,5,20,0.4,1,0,-,0,0.42809399999896414,['n'],0.5099804000019503,1.814,2466.2378591999986,,,,,561,18,Woman,Right,
,,,,,,,,,,,,,,,,,561,18,Woman,Right,5,75,0.15,2,180,0,0,0.1933502000028966,['n'],0.556657000000996,1.814,2466.2378591999986,,,,,561,18,Woman,Right,
,,,,,,,,,,,,,,,,,561,18,Woman,Right,5,13,0.4,2,0,180,180,0.51995910000187,['y'],0.6457510000000184,1.5,2472.2871360999998,,,,,561,18,Woman,Right,
,,,,,,,,,,,,,,,,,561,18,Woman,Right,5,43,0.4,2,180,0,0,0.43470430000161286,['y'],0.5245633000013186,1.57,2476.3211284999998,,,,,561,18,Woman,Right,
,,,,,,,,,,,,,,,,,561,18,Woman,Right,5,33,0.4,2,0,180,180,0.3639279000017268,['y'],0.5248976000002585,1.6480000000000001,2479.804820999998,,,,,561,18,Woman,Right,
,,,,,,,,,,,,,,,,,561,18,Woman,Right,5,30,0.4,1,180,-,180,0.3203577000022051,['n'],0.5565420999992057,1.722,2483.7877119000004,,,,,561,18,Woman,Right,
,,,,,,,,,,,,,,,,,561,18,Woman,Right,5,8,0.4,1,0,-,0,0.2551501999987522,['n'],0.8274774000019534,1.72,2487.6378265999992,,,,,561,18,Woman,Right,
,,,,,,,,,,,,,,,,,561,18,Woman,Right,5,56,0.15,1,0,-,0,0.17000430000189226,['n'],0.6673226000020804,1.72,2490.821220599999,,,,,561,18,Woman,Right,
,,,,,,,,,,,,,,,,,561,18,Woman,Right,5,50,0.15,1,180,-,180,0.28340580000076443,['n'],0.4921705999986443,1.72,2493.837853199999,,,,,561,18,Woman,Right,
,,,,,,,,,,,,,,,,,561,18,Woman,Right,5,16,0.4,1,0,-,0,0.29818149999846355,['n'],0.554433400000562,1.706,2496.971114600001,,,,,561,18,Woman,Right,
,,,,,,,,,,,,,,,,,561,18,Woman,Right,5,19,0.4,2,180,0,0,0.43844929999977467,['y'],0.4663087999979325,1.278,2500.4710715,,,,,561,18,Woman,Right,
,,,,,,,,,,,,,,,,,561,18,Woman,Right,5,38,0.4,1,180,-,180,0.2820242000016151,['n'],0.4336600999995426,1.714,2504.3381284999996,,,,,561,18,Woman,Right,
,,,,,,,,,,,,,,,,,561,18,Woman,Right,5,24,0.4,1,0,-,0,0.1414141000022937,['n'],1.3852409999999509,1.91,2508.688107099999,,,,,561,18,Woman,Right,
,,,,,,,,,,,,,,,,,561,18,Woman,Right,5,32,0.4,1,0,-,0,0.36830489999920246,['n'],0.44040339999992284,1.846,2511.8381504999998,,,,,561,18,Woman,Right,
,,,,,,,,,,,,,,,,,561,18,Woman,Right,5,64,0.15,1,0,-,180,0.2270691000012448,['n'],0.6640162000003329,1.63,2516.6212737999995,,,,,561,18,Woman,Right,
,,,,,,,,,,,,,,,,,561,18,Woman,Right,5,34,0.4,1,180,-,180,0.13319469999987632,['n'],0.5431714999976975,1.726,2520.054816699998,,,,,561,18,Woman,Right,
,,,,,,,,,,,,,,,,,561,18,Woman,Right,5,17,0.4,2,0,180,180,0.43128839999917545,['y'],0.37573880000127247,1.71,2523.304524799998,,,,,561,18,Woman,Right,
,,,,,,,,,,,,,,,,,561,18,Woman,Right,5,46,0.15,1,180,-,180,0.6250392000001739,['n'],0.822591599997395,1.604,2527.221359299998,,,,,561,18,Woman,Right,
,,,,,,,,,,,,,,,,,561,18,Woman,Right,5,59,0.15,2,180,0,180,0.5899886000006518,['n'],0.34198699999979,1.63,2531.054753299999,,,,,561,18,Woman,Right,
,,,,,,,,,,,,,,,,,561,18,Woman,Right,5,68,0.15,1,0,-,0,0.2466835999985051,['n'],0.9897104000010586,1.626,2534.6712823999987,,,,,561,18,Woman,Right,
,,,,,,,,,,,,,,,,,561,18,Woman,Right,5,41,0.4,2,0,180,180,0.6269995000002382,['y'],0.2769619999999122,1.424,2539.1046126,,,,,561,18,Woman,Right,
,,,,,,,,,,,,,,,,,561,18,Woman,Right,5,12,0.4,1,0,-,0,0.6543306999992637,['n'],0.380683899998985,1.992,2542.7718607999996,,,,,561,18,Woman,Right,
,,,,,,,,,,,,,,,,,561,18,Woman,Right,5,58,0.15,1,180,-,180,0.7143552000015916,['n'],0.4841004999980214,1.862,2546.2378701999987,,,,,561,18,Woman,Right,
,,,,,,,,,,,,,,,,,,,,,,,,,,,,,,,,,83.75,97.5,60.0,2200.141958699998,,,,,
