p_block,p_section,p_coherence,p_direction1,p_direction2,p_direction_response,p_direction_RT,p_change_response,p_change_RT,p_confidence,p_full_correct,p_without5_correct,p_full_total,p_without5_total,p_full_avg,p_witout5_avg,p_total_time,sub,age,sex,handedness,loop,trial randomization,coherence,condition,direction1,direction2,direction_response,direction_RT,change_response,change_RT,change_confidence,change_confidence_RT,block_direction_avg,block_stable_avg,block_change_avg,total_time,sub,age,sex,handedness,
1,1,1.0,180,-,180,2.2391059000001405,-,-,-,,,,,,,,514,18,Woman,Right,,,,,,,,,,,,,,,,,514,18,Woman,Right,
1,1,1.0,180,-,180,0.06355090000579366,-,-,-,,,,,,,,514,18,Woman,Right,,,,,,,,,,,,,,,,,514,18,Woman,Right,
1,1,1.0,0,-,0,0.4637594999949215,-,-,-,,,,,,,,514,18,Woman,Right,,,,,,,,,,,,,,,,,514,18,Woman,Right,
1,1,1.0,0,-,0,0.3594186999980593,-,-,-,,,,,,,,514,18,Woman,Right,,,,,,,,,,,,,,,,,514,18,Woman,Right,
1,1,1.0,0,-,0,0.803675100003602,-,-,-,,,,,,,,514,18,Woman,Right,,,,,,,,,,,,,,,,,514,18,Woman,Right,
1,1,1.0,180,-,180,0.10274510000454029,-,-,-,,,,,,,,514,18,Woman,Right,,,,,,,,,,,,,,,,,514,18,Woman,Right,
1,1,1.0,180,-,180,0.09264199999597622,-,-,-,,,,,,,,514,18,Woman,Right,,,,,,,,,,,,,,,,,514,18,Woman,Right,
1,1,1.0,180,-,180,0.1963980000000447,-,-,-,,,,,,,,514,18,Woman,Right,,,,,,,,,,,,,,,,,514,18,Woman,Right,
1,1,1.0,180,-,180,0.01689230000192765,-,-,-,,,,,,,,514,18,Woman,Right,,,,,,,,,,,,,,,,,514,18,Woman,Right,
1,1,1.0,0,-,0,0.016759099999035243,-,-,-,10,10,10,10,1.0,1.0,,514,18,Woman,Right,,,,,,,,,,,,,,,,,514,18,Woman,Right,
2,1,0.15,0,-,0,0.8952297999931034,-,-,-,,,,,,,,514,18,Woman,Right,,,,,,,,,,,,,,,,,514,18,Woman,Right,
2,1,0.4,0,-,0,0.30191629999899305,-,-,-,,,,,,,,514,18,Woman,Right,,,,,,,,,,,,,,,,,514,18,Woman,Right,
2,1,0.15,0,-,180,0.8119847999987542,-,-,-,,,,,,,,514,18,Woman,Right,,,,,,,,,,,,,,,,,514,18,Woman,Right,
2,1,0.4,180,-,180,0.29475339999771677,-,-,-,,,,,,,,514,18,Woman,Right,,,,,,,,,,,,,,,,,514,18,Woman,Right,
2,1,0.4,0,-,0,0.22205709999980172,-,-,-,,,,,,,,514,18,Woman,Right,,,,,,,,,,,,,,,,,514,18,Woman,Right,
2,1,0.15,0,-,0,0.5353739000056521,-,-,-,,,,,,,,514,18,Woman,Right,,,,,,,,,,,,,,,,,514,18,Woman,Right,
2,1,0.15,180,-,180,0.3561219000039273,-,-,-,,,,,,,,514,18,Woman,Right,,,,,,,,,,,,,,,,,514,18,Woman,Right,
2,1,0.4,0,-,0,0.37600669999665115,-,-,-,,,,,,,,514,18,Woman,Right,,,,,,,,,,,,,,,,,514,18,Woman,Right,
2,1,0.4,180,-,180,0.051618199999211356,-,-,-,,,,,,,,514,18,Woman,Right,,,,,,,,,,,,,,,,,514,18,Woman,Right,
2,1,0.4,0,-,0,1.2592550000044866,-,-,-,9,6,10,6,0.9,1.0,,514,18,Woman,Right,,,,,,,,,,,,,,,,,514,18,Woman,Right,
3,2,1.0,0,180,180,2.7670746999938274,['y'],2.4720061999978498,2,,,,,,,,514,18,Woman,Right,,,,,,,,,,,,,,,,,514,18,Woman,Right,
3,2,1.0,0,180,180,0.7268442000058712,['y'],1.9005232999988948,2.0,,,,,,,,514,18,Woman,Right,,,,,,,,,,,,,,,,,514,18,Woman,Right,
3,2,1.0,0,180,180,0.7596795000063139,['y'],1.3640413000030094,2.0,,,,,,,,514,18,Woman,Right,,,,,,,,,,,,,,,,,514,18,Woman,Right,
3,2,1.0,180,0,0,1.4334098999970593,['y'],0.5666237999976147,2.0,,,,,,,,514,18,Woman,Right,,,,,,,,,,,,,,,,,514,18,Woman,Right,
3,2,1.0,0,180,180,1.0870727999936207,['y'],0.5297417000037967,2.0,,,,,,,,514,18,Woman,Right,,,,,,,,,,,,,,,,,514,18,Woman,Right,
3,2,1.0,0,180,180,1.03742069999862,['y'],0.5148281000001589,2.0,,,,,,,,514,18,Woman,Right,,,,,,,,,,,,,,,,,514,18,Woman,Right,
3,2,1.0,180,0,0,0.738545600004727,['y'],0.588022900003125,2.0,,,,,,,,514,18,Woman,Right,,,,,,,,,,,,,,,,,514,18,Woman,Right,
3,2,1.0,0,180,180,0.5511687999969581,['y'],0.7059185999969486,2.0,,,,,,,,514,18,Woman,Right,,,,,,,,,,,,,,,,,514,18,Woman,Right,
3,2,1.0,180,0,0,0.6056335000030231,['y'],0.42272349999984726,2.0,,,,,,,,514,18,Woman,Right,,,,,,,,,,,,,,,,,514,18,Woman,Right,
3,2,1.0,180,0,0,0.5028941000055056,['y'],0.4205091999974684,2.0,10,10,10,10,1.0,1.0,,514,18,Woman,Right,,,,,,,,,,,,,,,,,514,18,Woman,Right,
4,2,0.15,0,180,180,1.842735400001402,['n'],3.445336500000849,1.0,,,,,,,,514,18,Woman,Right,,,,,,,,,,,,,,,,,514,18,Woman,Right,
4,2,0.15,180,0,0,1.7055593999975827,['y'],2.3146431000059238,1.33,,,,,,,,514,18,Woman,Right,,,,,,,,,,,,,,,,,514,18,Woman,Right,
4,2,0.15,180,0,0,1.7862519999980577,['y'],0.6659796000021743,2.0,,,,,,,,514,18,Woman,Right,,,,,,,,,,,,,,,,,514,18,Woman,Right,
4,2,0.4,180,0,0,1.4571656999978586,['y'],0.3518802000035066,2.0,,,,,,,,514,18,Woman,Right,,,,,,,,,,,,,,,,,514,18,Woman,Right,
4,2,0.4,0,180,180,0.7925484000006691,['y'],0.6910611999992398,2.0,,,,,,,,514,18,Woman,Right,,,,,,,,,,,,,,,,,514,18,Woman,Right,
4,2,0.4,180,0,0,0.5434211000028881,['y'],0.9719464000008884,2.0,,,,,,,,514,18,Woman,Right,,,,,,,,,,,,,,,,,514,18,Woman,Right,
4,2,0.15,180,0,0,0.6412662000002456,['y'],0.38682889999472536,2.0,,,,,,,,514,18,Woman,Right,,,,,,,,,,,,,,,,,514,18,Woman,Right,
4,2,0.4,180,0,0,0.4096300000019255,['y'],0.3809830999962287,2.0,,,,,,,,514,18,Woman,Right,,,,,,,,,,,,,,,,,514,18,Woman,Right,
4,2,0.4,180,0,0,0.3706372000015108,['y'],0.4169045000016922,2.0,,,,,,,,514,18,Woman,Right,,,,,,,,,,,,,,,,,514,18,Woman,Right,
4,2,0.15,0,180,180,3.6261192000019946,['n'],1.4555267000032472,1.362,10,5,10,5,1.0,1.0,,514,18,Woman,Right,,,,,,,,,,,,,,,,,514,18,Woman,Right,
5,3,0.15,0,-,180,0.6763683999961358,['y'],1.6835659999997006,1.7,,,,,,,,514,18,Woman,Right,,,,,,,,,,,,,,,,,514,18,Woman,Right,
5,3,1.0,180,-,180,1.1670988999976544,['n'],0.9957970000032219,2.0,,,,,,,,514,18,Woman,Right,,,,,,,,,,,,,,,,,514,18,Woman,Right,
5,3,0.4,0,-,0,2.371300600003451,['n'],1.761586199994781,1.808,,,,,,,,514,18,Woman,Right,,,,,,,,,,,,,,,,,514,18,Woman,Right,
5,3,0.15,0,180,180,0.7010932999983197,['y'],0.769865900001605,2.0,,,,,,,,514,18,Woman,Right,,,,,,,,,,,,,,,,,514,18,Woman,Right,
5,3,0.4,180,-,0,0.684872699996049,['n'],2.3770080999966012,1.798,,,,,,,,514,18,Woman,Right,,,,,,,,,,,,,,,,,514,18,Woman,Right,
5,3,0.15,0,180,180,0.6616727000000537,['n'],1.7790150000000722,1.0,,,,,,,,514,18,Woman,Right,,,,,,,,,,,,,,,,,514,18,Woman,Right,
5,3,0.4,0,180,180,0.7588947999975062,['y'],1.1465631000028225,2.0,,,,,,,,514,18,Woman,Right,,,,,,,,,,,,,,,,,514,18,Woman,Right,
5,3,0.4,180,0,0,0.5527025000046706,['y'],0.7331371000036597,2.0,,,,,,,,514,18,Woman,Right,,,,,,,,,,,,,,,,,514,18,Woman,Right,
5,3,0.15,180,0,0,0.7910985999988043,['n'],0.9697094000002835,1.35,,,,,,,,514,18,Woman,Right,,,,,,,,,,,,,,,,,514,18,Woman,Right,
5,3,1.0,0,180,180,0.7488428999931784,['y'],0.4680335999946692,2.0,8,5,10,6,0.8,0.8333333333333334,,514,18,Woman,Right,,,,,,,,,,,,,,,,,514,18,Woman,Right,
,,,,,,,,,,,,,,,,5.000001692678779e-06,514,18,Woman,Right,,,,,,,,,,,,,,,,,514,18,Woman,Right,
,,,,,,,,,,,,,,,,,514,18,Woman,Right,0,64,0.15,1,0,-,0,2.2759975000008126,['y'],3.967125000002852,1.396,342.11366989999806,,,,,514,18,Woman,Right,
,,,,,,,,,,,,,,,,,514,18,Woman,Right,0,3,1,2,180,0,0,0.6563405999986571,['y'],1.45698199999606,2.0,347.69685619999655,,,,,514,18,Woman,Right,
,,,,,,,,,,,,,,,,,514,18,Woman,Right,0,24,0.4,1,0,-,0,0.8903660000069067,['n'],1.360068299996783,1.6560000000000001,353.8467109999983,,,,,514,18,Woman,Right,
,,,,,,,,,,,,,,,,,514,18,Woman,Right,0,60,0.15,1,0,-,180,2.7508126000029733,['y'],1.049861300001794,1.212,363.53020309999556,,,,,514,18,Woman,Right,
,,,,,,,,,,,,,,,,,514,18,Woman,Right,0,68,0.15,1,0,-,0,0.8017155000052298,['n'],1.7306908999962616,1.3780000000000001,370.8798390000011,,,,,514,18,Woman,Right,
,,,,,,,,,,,,,,,,,514,18,Woman,Right,0,2,1,1,180,-,180,0.689307300002838,['n'],1.3638082000034046,2.0,376.0130938000002,,,,,514,18,Woman,Right,
,,,,,,,,,,,,,,,,,514,18,Woman,Right,0,33,0.4,2,0,180,180,0.8370314999992843,['y'],1.0038331000032485,2.0,381.39644709999993,,,,,514,18,Woman,Right,
,,,,,,,,,,,,,,,,,514,18,Woman,Right,0,37,0.4,2,0,180,180,0.6172463000038988,['y'],0.7966740999981994,2.0,385.96397309999884,,,,,514,18,Woman,Right,
,,,,,,,,,,,,,,,,,514,18,Woman,Right,0,28,0.4,1,0,-,180,1.4831701000002795,['y'],1.5172310000052676,1.808,393.3629234999971,,,,,514,18,Woman,Right,
,,,,,,,,,,,,,,,,,514,18,Woman,Right,0,4,1,1,0,-,0,0.5087691000007908,['n'],0.9823609000013676,1.924,399.32952300000034,,,,,514,18,Woman,Right,
,,,,,,,,,,,,,,,,,514,18,Woman,Right,0,77,0.15,2,0,180,180,2.009414400003152,['y'],2.415616400001454,1.286,409.0304885000005,,,,,514,18,Woman,Right,
,,,,,,,,,,,,,,,,,514,18,Woman,Right,0,69,0.15,2,0,180,0,2.3912910999933956,['n'],2.560867899999721,1.192,419.0792977999954,,,,,514,18,Woman,Right,
,,,,,,,,,,,,,,,,,514,18,Woman,Right,0,11,0.4,2,180,0,0,0.7423370000033174,['y'],0.8735620000006747,2.0,424.5459402999986,,,,,514,18,Woman,Right,
,,,,,,,,,,,,,,,,,514,18,Woman,Right,0,0,1,1,0,-,0,0.8845034000041778,['n'],1.033720599996741,2.0,429.6133680999992,,,,,514,18,Woman,Right,
,,,,,,,,,,,,,,,,,514,18,Woman,Right,0,16,0.4,1,0,-,180,2.6131013999984134,['n'],1.7391194000010728,1.5819999999999999,437.5300606999954,,,,,514,18,Woman,Right,
,,,,,,,,,,,,,,,,,514,18,Woman,Right,0,5,1,2,0,180,180,0.6140947999956552,['y'],0.9391964000024018,2.0,442.32924569999886,,,,,514,18,Woman,Right,
,,,,,,,,,,,,,,,,,514,18,Woman,Right,0,27,0.4,2,180,0,0,0.6359168999988469,['y'],1.0199690000008559,2.0,446.96237149999797,,,,,514,18,Woman,Right,
,,,,,,,,,,,,,,,,,514,18,Woman,Right,0,25,0.4,2,0,180,180,0.4381898999999976,['y'],0.8366993000017828,2.0,451.34602989999985,,,,,514,18,Woman,Right,
,,,,,,,,,,,,,,,,,514,18,Woman,Right,0,7,1,2,180,0,0,0.5124561999982689,['y'],0.5729747000004863,2.0,455.2965066999968,,,,,514,18,Woman,Right,
,,,,,,,,,,,,,,,,,514,18,Woman,Right,0,15,0.4,2,180,0,0,0.7299667999977828,['y'],1.3497891000006348,2.0,460.1290011999954,,,,,514,18,Woman,Right,
,,,,,,,,,,,,,,,,,514,18,Woman,Right,0,13,0.4,2,0,180,180,0.7186798999973689,['y'],0.7348559000020032,2.0,464.36290480000025,,,,,514,18,Woman,Right,
,,,,,,,,,,,,,,,,,514,18,Woman,Right,0,6,1,1,180,-,180,0.6124052000013762,['n'],1.0550417000049492,2.0,469.0458046999993,,,,,514,18,Woman,Right,
,,,,,,,,,,,,,,,,,514,18,Woman,Right,0,12,0.4,1,0,-,0,1.6793825999993715,['y'],3.207174600000144,1.684,477.67889699999796,,,,,514,18,Woman,Right,
,,,,,,,,,,,,,,,,,514,18,Woman,Right,0,78,0.15,1,180,-,180,0.8006953000003705,['n'],0.9595569000011892,1.6139999999999999,482.56218409999565,,,,,514,18,Woman,Right,
,,,,,,,,,,,,,,,,,514,18,Woman,Right,0,40,0.4,1,0,-,0,7.532458900001075,['y'],1.4583001999999397,1.0,495.86267009999574,,,,,514,18,Woman,Right,
,,,,,,,,,,,,,,,,,514,18,Woman,Right,0,65,0.15,2,0,180,180,1.168230899995251,['y'],1.090242500002205,1.728,502.91254599999957,,,,,514,18,Woman,Right,
,,,,,,,,,,,,,,,,,514,18,Woman,Right,0,42,0.4,1,180,-,180,2.738447499999893,['n'],1.8997411000018474,1.396,512.3291215999998,,,,,514,18,Woman,Right,
,,,,,,,,,,,,,,,,,514,18,Woman,Right,0,59,0.15,2,180,0,0,0.8097263000017847,['y'],1.9724084999979823,1.3439999999999999,519.3783465000015,,,,,514,18,Woman,Right,
,,,,,,,,,,,,,,,,,514,18,Woman,Right,0,18,0.4,1,180,-,0,0.6866275000065798,['y'],0.9819458000056329,1.822,524.2115963999968,,,,,514,18,Woman,Right,
,,,,,,,,,,,,,,,,,514,18,Woman,Right,0,79,0.15,2,180,0,0,0.865401800001564,['y'],1.2537158999984968,1.616,529.3451660999999,,,,,514,18,Woman,Right,
,,,,,,,,,,,,,,,,,514,18,Woman,Right,0,1,1,2,0,180,180,0.39407760000176495,['y'],0.7110988999993424,2.0,533.3123237999971,,,,,514,18,Woman,Right,
,,,,,,,,,,,,,,,,,514,18,Woman,Right,0,49,0.15,2,0,180,180,0.799992200001725,['y'],0.7594395999985863,1.8940000000000001,538.2122376999978,,,,,514,18,Woman,Right,
,,,,,,,,,,,,,,,,,514,18,Woman,Right,0,66,0.15,1,180,-,180,0.783686900002067,['n'],0.9818410000007134,1.6059999999999999,542.8956235000005,,,,,514,18,Woman,Right,
,,,,,,,,,,,,,,,,,514,18,Woman,Right,0,10,0.4,1,180,-,180,0.5370250999985728,['n'],1.6323379000023124,1.736,549.561810399995,,,,,514,18,Woman,Right,
,,,,,,,,,,,,,,,,,514,18,Woman,Right,0,29,0.4,2,0,180,180,0.41122360000008484,['y'],1.0812004999970668,2.0,554.3446983999966,,,,,514,18,Woman,Right,
,,,,,,,,,,,,,,,,,514,18,Woman,Right,0,47,0.15,2,180,0,0,2.1212642999962554,['y'],0.8340255000002799,1.572,560.1451980999991,,,,,514,18,Woman,Right,
,,,,,,,,,,,,,,,,,514,18,Woman,Right,0,62,0.15,1,180,-,0,0.8458625000057509,['y'],1.0747798000011244,1.3719999999999999,565.2453364999965,,,,,514,18,Woman,Right,
,,,,,,,,,,,,,,,,,514,18,Woman,Right,0,41,0.4,2,0,180,180,0.6449891000011121,['y'],1.5069029000005685,2.0,570.027862899995,,,,,514,18,Woman,Right,
,,,,,,,,,,,,,,,,,514,18,Woman,Right,0,75,0.15,2,180,0,0,0.6560316000031889,['y'],0.835979600000428,1.926,574.5454448999953,,,,,514,18,Woman,Right,
,,,,,,,,,,,,,,,,,514,18,Woman,Right,0,21,0.4,2,0,180,180,0.632072699998389,['y'],0.8366901999979746,1.88,579.162106799995,,,,,514,18,Woman,Right,
,,,,,,,,,,,,,,,,,514,18,Woman,Right,0,71,0.15,2,180,0,0,0.7666583999962313,['y'],0.6767551000011736,2.0,584.3110840000008,,,,,514,18,Woman,Right,
,,,,,,,,,,,,,,,,,514,18,Woman,Right,0,8,0.4,1,0,-,0,1.32007120000344,['n'],1.3811926999987918,1.58,594.2110113999952,,,,,514,18,Woman,Right,
,,,,,,,,,,,,,,,,,514,18,Woman,Right,0,43,0.4,2,180,0,0,0.5175683999987086,['y'],0.646801000002597,2.0,597.9444070999962,,,,,514,18,Woman,Right,
,,,,,,,,,,,,,,,,,514,18,Woman,Right,0,76,0.15,1,0,-,180,1.1002411000008578,['y'],0.6291345999998157,1.5899999999999999,602.4449982000006,,,,,514,18,Woman,Right,
,,,,,,,,,,,,,,,,,514,18,Woman,Right,0,39,0.4,2,180,0,0,0.4507411000013235,['y'],0.6555020000014338,2.0,606.5777049999961,,,,,514,18,Woman,Right,
,,,,,,,,,,,,,,,,,514,18,Woman,Right,0,46,0.15,1,180,-,0,0.6117173999955412,['y'],0.8803188999954727,1.762,611.8945042999985,,,,,514,18,Woman,Right,
,,,,,,,,,,,,,,,,,514,18,Woman,Right,0,9,0.4,2,0,180,180,0.6116199000025517,['y'],0.5933078999951249,2.0,615.9447494999986,,,,,514,18,Woman,Right,
,,,,,,,,,,,,,,,,,514,18,Woman,Right,0,58,0.15,1,180,-,0,0.728402200002165,['y'],1.025790200001211,1.65,620.6115533999982,,,,,514,18,Woman,Right,
,,,,,,,,,,,,,,,,,514,18,Woman,Right,0,38,0.4,1,180,-,0,8.38399660000141,['y'],1.162038599999505,1.0,633.9288754000008,,,,,514,18,Woman,Right,
,,,,,,,,,,,,,,,,,514,18,Woman,Right,0,45,0.15,2,0,180,180,1.0229615999996895,['y'],0.8109102999951574,1.798,638.4938896999956,,,,,514,18,Woman,Right,
,,,,,,,,,,,,,,,,,514,18,Woman,Right,0,22,0.4,1,180,-,180,0.49912709999625804,['n'],0.9404472000023816,1.772,642.5446267000007,,,,,514,18,Woman,Right,
,,,,,,,,,,,,,,,,,514,18,Woman,Right,0,17,0.4,2,0,180,180,2.097946399997454,['y'],1.5569887999954517,2.0,649.1272573999959,,,,,514,18,Woman,Right,
,,,,,,,,,,,,,,,,,514,18,Woman,Right,0,70,0.15,1,180,-,0,0.9098497000013595,['y'],0.5085644999999204,1.6640000000000001,653.2944835999951,,,,,514,18,Woman,Right,
,,,,,,,,,,,,,,,,,514,18,Woman,Right,0,34,0.4,1,180,-,0,1.1857767999972566,['y'],0.6706837000019732,1.684,658.0269431999986,,,,,514,18,Woman,Right,
,,,,,,,,,,,,,,,,,514,18,Woman,Right,0,19,0.4,2,180,0,0,0.8174175000021933,['y'],0.6466861000008066,2.0,662.3102919000012,,,,,514,18,Woman,Right,
,,,,,,,,,,,,,,,,,514,18,Woman,Right,0,52,0.15,1,0,-,180,0.9944348999997601,['y'],0.6145360999944387,1.774,666.6443841,,,,,514,18,Woman,Right,
,,,,,,,,,,,,,,,,,514,18,Woman,Right,0,30,0.4,1,180,-,0,1.3461324000018067,['y'],1.648202800002764,1.772,673.5268724999987,,,,,514,18,Woman,Right,
,,,,,,,,,,,,,,,,,514,18,Woman,Right,0,51,0.15,2,180,0,0,0.7005619999981718,['y'],0.5765052999995532,2.0,677.226877299996,,,,,514,18,Woman,Right,
,,,,,,,,,,,,,,,,,514,18,Woman,Right,0,23,0.4,2,180,0,0,0.5520250999979908,['y'],0.592650099999446,2.0,680.9608994000009,,,,,514,18,Woman,Right,
,,,,,,,,,,,,,,,,,514,18,Woman,Right,0,67,0.15,2,180,0,0,0.7629999999990105,['y'],0.6012288000056287,2.0,685.0937465999959,,,,,514,18,Woman,Right,
,,,,,,,,,,,,,,,,,514,18,Woman,Right,0,32,0.4,1,0,-,0,0.9940934999976889,['n'],0.9711234000060358,1.6600000000000001,690.7933703999952,,,,,514,18,Woman,Right,
,,,,,,,,,,,,,,,,,514,18,Woman,Right,0,48,0.15,1,0,-,0,0.6369170000034501,['n'],1.0024463000008836,1.5779999999999998,697.5933005999977,,,,,514,18,Woman,Right,
,,,,,,,,,,,,,,,,,514,18,Woman,Right,0,57,0.15,2,0,180,180,2.2676147000020137,['n'],2.7072382000042126,1.294,707.3106742999953,,,,,514,18,Woman,Right,
,,,,,,,,,,,,,,,,,514,18,Woman,Right,0,63,0.15,2,180,0,0,0.5426452999963658,['n'],0.8845656999983476,1.662,714.7439067999949,,,,,514,18,Woman,Right,
,,,,,,,,,,,,,,,,,514,18,Woman,Right,0,73,0.15,2,0,180,180,0.7876983000023756,['y'],0.6856155999994371,1.584,719.7263837999999,,,,,514,18,Woman,Right,
,,,,,,,,,,,,,,,,,514,18,Woman,Right,0,55,0.15,2,180,0,0,0.6515515999999479,['n'],0.8853206999992835,1.642,724.543058999996,,,,,514,18,Woman,Right,
,,,,,,,,,,,,,,,,,514,18,Woman,Right,0,72,0.15,1,0,-,0,1.2134338000032585,['n'],2.3583675999980187,1.608,732.3262489999979,,,,,514,18,Woman,Right,
,,,,,,,,,,,,,,,,,514,18,Woman,Right,0,74,0.15,1,180,-,180,3.497165500004485,['y'],1.9998193999999785,1.684,740.5261647000007,,,,,514,18,Woman,Right,
,,,,,,,,,,,,,,,,,514,18,Woman,Right,0,50,0.15,1,180,-,180,6.079888200001733,['n'],1.5690083999943454,1.296,751.226112999997,,,,,514,18,Woman,Right,
,,,,,,,,,,,,,,,,,514,18,Woman,Right,0,61,0.15,2,0,180,180,0.989095200005977,['y'],0.5783276000001933,2.0,756.1095208999977,,,,,514,18,Woman,Right,
,,,,,,,,,,,,,,,,,514,18,Woman,Right,0,54,0.15,1,180,-,0,0.8611094000007142,['y'],0.80250160000287,1.776,760.375962099999,,,,,514,18,Woman,Right,
,,,,,,,,,,,,,,,,,514,18,Woman,Right,0,35,0.4,2,180,0,0,0.4371824000045308,['y'],0.5945968000014545,1.944,764.0592496999961,,,,,514,18,Woman,Right,
,,,,,,,,,,,,,,,,,514,18,Woman,Right,0,31,0.4,2,180,0,0,0.3896798999994644,['y'],0.42730650000157766,2.0,767.6592533000003,,,,,514,18,Woman,Right,
,,,,,,,,,,,,,,,,,514,18,Woman,Right,0,36,0.4,1,0,-,0,0.5385488000029,['n'],0.7155816999948001,2.0,771.8592216999969,,,,,514,18,Woman,Right,
,,,,,,,,,,,,,,,,,514,18,Woman,Right,0,20,0.4,1,0,-,180,1.0607701999979327,['y'],1.2043226000023424,1.866,777.7259235999954,,,,,514,18,Woman,Right,
,,,,,,,,,,,,,,,,,514,18,Woman,Right,0,56,0.15,1,0,-,0,0.3761249000017415,['y'],0.5171708000052604,2.0,781.209208100001,,,,,514,18,Woman,Right,
,,,,,,,,,,,,,,,,,514,18,Woman,Right,0,26,0.4,1,180,-,180,1.8398634000041056,['n'],1.3339983000041684,1.3399999999999999,787.2924013000011,,,,,514,18,Woman,Right,
,,,,,,,,,,,,,,,,,514,18,Woman,Right,0,44,0.15,1,0,-,0,1.1627182999945944,['n'],2.343001799999911,1.0,795.059030299999,,,,,514,18,Woman,Right,
,,,,,,,,,,,,,,,,,514,18,Woman,Right,0,53,0.15,2,0,180,180,0.46184579999680864,['y'],0.5751015000059851,1.812,798.7932836999971,,,,,514,18,Woman,Right,
,,,,,,,,,,,,,,,,,514,18,Woman,Right,0,14,0.4,1,180,-,180,0.7833956999966176,['n'],1.1190155999938725,1.6680000000000001,804.1595837999994,,,,,514,18,Woman,Right,
,,,,,,,,,,,,,,,,,514,18,Woman,Right,1,9,0.4,2,0,180,180,0.7534282999986317,['y'],1.429099100001622,2.0,847.1423357999956,80.0,52.5,90.0,,514,18,Woman,Right,
,,,,,,,,,,,,,,,,,514,18,Woman,Right,1,38,0.4,1,180,-,180,0.5633364000022993,['n'],0.7572094999995898,1.762,851.909259,,,,,514,18,Woman,Right,
,,,,,,,,,,,,,,,,,514,18,Woman,Right,1,71,0.15,2,180,0,0,0.9588671000019531,['y'],0.605710600000748,1.808,856.8757614999995,,,,,514,18,Woman,Right,
,,,,,,,,,,,,,,,,,514,18,Woman,Right,1,13,0.4,2,0,180,180,0.425780700003088,['y'],0.5575152000019443,2.0,860.6751388999983,,,,,514,18,Woman,Right,
,,,,,,,,,,,,,,,,,514,18,Woman,Right,1,54,0.15,1,180,-,0,1.4448646000018925,['n'],1.0070755999986432,1.6019999999999999,866.3757366999998,,,,,514,18,Woman,Right,
,,,,,,,,,,,,,,,,,514,18,Woman,Right,1,72,0.15,1,0,-,0,1.0791723000002094,['n'],0.8805607999966014,1.65,871.7757121999966,,,,,514,18,Woman,Right,
,,,,,,,,,,,,,,,,,514,18,Woman,Right,1,4,1,1,0,-,0,1.0606363999977475,['n'],1.1451828999997815,2.0,878.4923218999975,,,,,514,18,Woman,Right,
,,,,,,,,,,,,,,,,,514,18,Woman,Right,1,14,0.4,1,180,-,180,0.6482217000011588,['n'],0.8732023000047775,2.0,884.0255379999944,,,,,514,18,Woman,Right,
,,,,,,,,,,,,,,,,,514,18,Woman,Right,1,32,0.4,1,0,-,0,1.0521698000011384,['n'],0.7852856000026804,1.714,889.6079222999979,,,,,514,18,Woman,Right,
,,,,,,,,,,,,,,,,,514,18,Woman,Right,1,64,0.15,1,0,-,0,0.9748448000027565,['y'],2.2911595000041416,1.662,895.9579720999973,,,,,514,18,Woman,Right,
,,,,,,,,,,,,,,,,,514,18,Woman,Right,1,1,1,2,0,180,180,0.9416479999999865,['y'],0.7325960000016494,2.0,900.6578876999993,,,,,514,18,Woman,Right,
,,,,,,,,,,,,,,,,,514,18,Woman,Right,1,2,1,1,180,-,180,0.7625346000058926,['n'],1.3957997000034084,1.904,906.1252948999972,,,,,514,18,Woman,Right,
,,,,,,,,,,,,,,,,,514,18,Woman,Right,1,67,0.15,2,180,0,180,1.553138700001,['n'],4.853571199993894,1.282,916.0411696999945,,,,,514,18,Woman,Right,
,,,,,,,,,,,,,,,,,514,18,Woman,Right,1,74,0.15,1,180,-,0,1.7940598999994108,['y'],1.0143685000002733,1.6,922.1243743000014,,,,,514,18,Woman,Right,
,,,,,,,,,,,,,,,,,514,18,Woman,Right,1,24,0.4,1,0,-,0,0.6413058000034653,['n'],0.8464352999944822,1.842,926.5916924999983,,,,,514,18,Woman,Right,
,,,,,,,,,,,,,,,,,514,18,Woman,Right,1,16,0.4,1,0,-,0,0.48623890000453684,['n'],0.807031399999687,1.6280000000000001,931.1080436999982,,,,,514,18,Woman,Right,
,,,,,,,,,,,,,,,,,514,18,Woman,Right,1,43,0.4,2,180,0,0,0.6152975000004517,['y'],0.5040038000006462,2.0,935.2575606999962,,,,,514,18,Woman,Right,
,,,,,,,,,,,,,,,,,514,18,Woman,Right,1,51,0.15,2,180,0,0,0.8554121000051964,['y'],0.6482337999987067,1.812,939.7075347999998,,,,,514,18,Woman,Right,
,,,,,,,,,,,,,,,,,514,18,Woman,Right,1,65,0.15,2,0,180,180,2.7101536999980453,['y'],0.688830399994913,1.634,945.8575423000002,,,,,514,18,Woman,Right,
,,,,,,,,,,,,,,,,,514,18,Woman,Right,1,61,0.15,2,0,180,180,0.8400787999999011,['y'],1.0498210999940056,1.662,950.1416946999962,,,,,514,18,Woman,Right,
,,,,,,,,,,,,,,,,,514,18,Woman,Right,1,69,0.15,2,0,180,180,0.7468480000025011,['n'],0.7700487000038265,1.3679999999999999,954.8574095000004,,,,,514,18,Woman,Right,
,,,,,,,,,,,,,,,,,514,18,Woman,Right,1,59,0.15,2,180,0,0,0.6771625000037602,['y'],1.0264307000034023,1.8,959.4074707999971,,,,,514,18,Woman,Right,
,,,,,,,,,,,,,,,,,514,18,Woman,Right,1,42,0.4,1,180,-,180,1.9007799999963026,['n'],1.951616099999228,1.3559999999999999,966.3250797000001,,,,,514,18,Woman,Right,
,,,,,,,,,,,,,,,,,514,18,Woman,Right,1,5,1,2,0,180,180,0.6434938000020338,['y'],0.7716816999964067,2.0,970.4913049999959,,,,,514,18,Woman,Right,
,,,,,,,,,,,,,,,,,514,18,Woman,Right,1,63,0.15,2,180,0,0,0.5064824999935809,['y'],0.7314321000012569,2.0,974.8071997000006,,,,,514,18,Woman,Right,
,,,,,,,,,,,,,,,,,514,18,Woman,Right,1,46,0.15,1,180,-,0,0.3966941000035149,['y'],0.6608055999968201,1.7,978.6738178000014,,,,,514,18,Woman,Right,
,,,,,,,,,,,,,,,,,514,18,Woman,Right,1,48,0.15,1,0,-,0,2.7181698999993387,['y'],2.6055059999998775,1.24,986.7745872999949,,,,,514,18,Woman,Right,
,,,,,,,,,,,,,,,,,514,18,Woman,Right,1,12,0.4,1,0,-,180,0.8800226000021212,['y'],0.40673360000073444,1.65,990.8415381999948,,,,,514,18,Woman,Right,
,,,,,,,,,,,,,,,,,514,18,Woman,Right,1,22,0.4,1,180,-,180,1.527124599997478,['n'],1.007421800000884,1.748,996.306994300001,,,,,514,18,Woman,Right,
,,,,,,,,,,,,,,,,,514,18,Woman,Right,1,27,0.4,2,180,0,0,0.4461922999980743,['y'],0.40781560000323225,1.908,1000.3743627000003,,,,,514,18,Woman,Right,
,,,,,,,,,,,,,,,,,514,18,Woman,Right,1,17,0.4,2,0,180,180,0.4401263000036124,['y'],0.4322022999986075,2.0,1003.806866699997,,,,,514,18,Woman,Right,
,,,,,,,,,,,,,,,,,514,18,Woman,Right,1,0,1,1,0,-,0,0.6603222000048845,['n'],0.9525291999962064,2.0,1008.207720499995,,,,,514,18,Woman,Right,
,,,,,,,,,,,,,,,,,514,18,Woman,Right,1,39,0.4,2,180,0,0,0.8392395000046236,['y'],0.86487930000294,2.0,1013.3746029999966,,,,,514,18,Woman,Right,
,,,,,,,,,,,,,,,,,514,18,Woman,Right,1,76,0.15,1,0,-,180,2.196241800003918,['n'],0.9541748999981792,1.782,1020.9567327999976,,,,,514,18,Woman,Right,
,,,,,,,,,,,,,,,,,514,18,Woman,Right,1,50,0.15,1,180,-,0,1.1976657000050182,['y'],0.41843669999798294,1.79,1025.8240914999988,,,,,514,18,Woman,Right,
,,,,,,,,,,,,,,,,,514,18,Woman,Right,1,10,0.4,1,180,-,0,1.4826830000019982,['y'],0.442979400002514,1.742,1030.3233137999996,,,,,514,18,Woman,Right,
,,,,,,,,,,,,,,,,,514,18,Woman,Right,1,66,0.15,1,180,-,180,0.7013442999959807,['y'],1.82776250000461,1.0,1035.356566399998,,,,,514,18,Woman,Right,
,,,,,,,,,,,,,,,,,514,18,Woman,Right,1,78,0.15,1,180,-,180,1.8423480999990716,['n'],0.9405998000002,1.642,1040.7741963000008,,,,,514,18,Woman,Right,
,,,,,,,,,,,,,,,,,514,18,Woman,Right,1,52,0.15,1,0,-,0,2.1051485999996657,['n'],1.7091374000010546,1.366,1047.9068912000002,,,,,514,18,Woman,Right,
,,,,,,,,,,,,,,,,,514,18,Woman,Right,1,41,0.4,2,0,180,180,0.6542397000011988,['y'],0.9894465000033961,2.0,1052.5904792000001,,,,,514,18,Woman,Right,
,,,,,,,,,,,,,,,,,514,18,Woman,Right,1,26,0.4,1,180,-,0,0.8917313999991165,['y'],0.6143522999991546,1.8479999999999999,1056.6730267999956,,,,,514,18,Woman,Right,
,,,,,,,,,,,,,,,,,514,18,Woman,Right,1,18,0.4,1,180,-,0,0.6867396000016015,['y'],0.4632549000016297,1.726,1060.4563073999961,,,,,514,18,Woman,Right,
,,,,,,,,,,,,,,,,,514,18,Woman,Right,1,60,0.15,1,0,-,0,1.3553192000035779,['n'],0.7991342999957851,1.312,1065.8896869999953,,,,,514,18,Woman,Right,
,,,,,,,,,,,,,,,,,514,18,Woman,Right,1,79,0.15,2,180,0,0,0.6736442000037641,['y'],0.7606002000029548,1.756,1069.9902799999982,,,,,514,18,Woman,Right,
,,,,,,,,,,,,,,,,,514,18,Woman,Right,1,53,0.15,2,0,180,180,1.5354475999993156,['n'],0.7440617000029306,1.6059999999999999,1075.2899132999955,,,,,514,18,Woman,Right,
,,,,,,,,,,,,,,,,,514,18,Woman,Right,1,34,0.4,1,180,-,0,1.5838124000001699,['y'],0.5048657999941497,1.638,1081.2060717999993,,,,,514,18,Woman,Right,
,,,,,,,,,,,,,,,,,514,18,Woman,Right,1,25,0.4,2,0,180,180,0.919971399998758,['y'],0.7047501000051852,2.0,1085.5060171000005,,,,,514,18,Woman,Right,
,,,,,,,,,,,,,,,,,514,18,Woman,Right,1,44,0.15,1,0,-,0,0.9929086999982246,['y'],0.6179188999958569,1.684,1089.990219399995,,,,,514,18,Woman,Right,
,,,,,,,,,,,,,,,,,514,18,Woman,Right,1,19,0.4,2,180,0,0,0.5118600999994669,['y'],0.6111654999986058,2.0,1093.6397522999978,,,,,514,18,Woman,Right,
,,,,,,,,,,,,,,,,,514,18,Woman,Right,1,28,0.4,1,0,-,180,0.8025477000046521,['y'],0.7623834000041825,1.6320000000000001,1098.3225748999976,,,,,514,18,Woman,Right,
,,,,,,,,,,,,,,,,,514,18,Woman,Right,1,7,1,2,180,0,0,2.00033280000207,['y'],1.235590799995407,2.0,1104.2058561999947,,,,,514,18,Woman,Right,
,,,,,,,,,,,,,,,,,514,18,Woman,Right,1,37,0.4,2,0,180,180,0.6006742999961716,['y'],0.5244987000041874,2.0,1108.4558544999963,,,,,514,18,Woman,Right,
,,,,,,,,,,,,,,,,,514,18,Woman,Right,1,40,0.4,1,0,-,0,1.6903811999945901,['n'],1.3577529000031063,1.776,1115.3393178999977,,,,,514,18,Woman,Right,
,,,,,,,,,,,,,,,,,514,18,Woman,Right,1,11,0.4,2,180,0,0,0.6977917999975034,['y'],0.4619326000029105,2.0,1119.8224040999994,,,,,514,18,Woman,Right,
,,,,,,,,,,,,,,,,,514,18,Woman,Right,1,20,0.4,1,0,-,0,1.9776095999986865,['n'],1.1109699000007822,1.646,1126.505683700001,,,,,514,18,Woman,Right,
,,,,,,,,,,,,,,,,,514,18,Woman,Right,1,33,0.4,2,0,180,180,0.5282627999986289,['y'],0.4230308000041987,2.0,1130.5889343999952,,,,,514,18,Woman,Right,
,,,,,,,,,,,,,,,,,514,18,Woman,Right,1,56,0.15,1,0,-,180,0.7251125999973738,['y'],0.4076818000030471,1.3940000000000001,1134.7897525000008,,,,,514,18,Woman,Right,
,,,,,,,,,,,,,,,,,514,18,Woman,Right,1,58,0.15,1,180,-,180,0.8268491999988328,['n'],0.9756869999982882,1.6019999999999999,1141.3558508999995,,,,,514,18,Woman,Right,
,,,,,,,,,,,,,,,,,514,18,Woman,Right,1,70,0.15,1,180,-,180,1.3163045999972383,['n'],1.024786399997538,1.6219999999999999,1148.1888560000007,,,,,514,18,Woman,Right,
,,,,,,,,,,,,,,,,,514,18,Woman,Right,1,31,0.4,2,180,0,0,0.9571849999992992,['y'],0.5056655000007595,2.0,1152.7736955,,,,,514,18,Woman,Right,
,,,,,,,,,,,,,,,,,514,18,Woman,Right,1,8,0.4,1,0,-,0,0.46145090000209166,['n'],0.8185321999990265,2.0,1157.356256799998,,,,,514,18,Woman,Right,
,,,,,,,,,,,,,,,,,514,18,Woman,Right,1,73,0.15,2,0,180,180,0.9617920000018785,['y'],0.48354599999584025,1.744,1162.3558998000008,,,,,514,18,Woman,Right,
,,,,,,,,,,,,,,,,,514,18,Woman,Right,1,29,0.4,2,0,180,180,0.5598552000010386,['y'],0.40251070000522304,1.708,1166.1558528999958,,,,,514,18,Woman,Right,
,,,,,,,,,,,,,,,,,514,18,Woman,Right,1,68,0.15,1,0,-,180,3.3495220999975572,['n'],1.43598049999855,1.3639999999999999,1173.6051427999992,,,,,514,18,Woman,Right,
,,,,,,,,,,,,,,,,,514,18,Woman,Right,1,55,0.15,2,180,0,180,4.444949400000041,['n'],1.3016124999994645,1.706,1182.5228099000014,,,,,514,18,Woman,Right,
,,,,,,,,,,,,,,,,,514,18,Woman,Right,1,30,0.4,1,180,-,180,0.7634082000004128,['n'],0.6217205000066315,2.0,1186.9053892999946,,,,,514,18,Woman,Right,
,,,,,,,,,,,,,,,,,514,18,Woman,Right,1,6,1,1,180,-,180,0.33711159999802476,['n'],0.7669300000052317,2.0,1191.1218958999962,,,,,514,18,Woman,Right,
,,,,,,,,,,,,,,,,,514,18,Woman,Right,1,45,0.15,2,0,180,180,2.3833031999965897,['y'],1.0722817999994732,1.552,1198.6884793999998,,,,,514,18,Woman,Right,
,,,,,,,,,,,,,,,,,514,18,Woman,Right,1,47,0.15,2,180,0,180,2.828827100005583,['n'],1.736460599997372,1.346,1206.188251200001,,,,,514,18,Woman,Right,
,,,,,,,,,,,,,,,,,514,18,Woman,Right,1,75,0.15,2,180,0,0,1.9418603999947663,['n'],3.0254873000012594,1.0,1214.7221997000015,,,,,514,18,Woman,Right,
,,,,,,,,,,,,,,,,,514,18,Woman,Right,1,57,0.15,2,0,180,0,0.6737471999949776,['y'],0.9227096999966307,1.6360000000000001,1219.3882738999964,,,,,514,18,Woman,Right,
,,,,,,,,,,,,,,,,,514,18,Woman,Right,1,21,0.4,2,0,180,180,1.7752669999972568,['y'],1.4985505000004196,1.834,1225.2888717999958,,,,,514,18,Woman,Right,
,,,,,,,,,,,,,,,,,514,18,Woman,Right,1,35,0.4,2,180,0,0,0.6543014999988372,['y'],0.7319176999953925,2.0,1229.8220318999956,,,,,514,18,Woman,Right,
,,,,,,,,,,,,,,,,,514,18,Woman,Right,1,15,0.4,2,180,0,0,0.5833034999959636,['y'],0.5354449000005843,2.0,1233.4886339000004,,,,,514,18,Woman,Right,
,,,,,,,,,,,,,,,,,514,18,Woman,Right,1,62,0.15,1,180,-,180,1.4323431000011624,['y'],0.4354626999993343,1.65,1238.038052799995,,,,,514,18,Woman,Right,
,,,,,,,,,,,,,,,,,514,18,Woman,Right,1,23,0.4,2,180,0,0,0.8500910000002477,['y'],0.5252668999964953,2.0,1242.1219256999975,,,,,514,18,Woman,Right,
,,,,,,,,,,,,,,,,,514,18,Woman,Right,1,49,0.15,2,0,180,180,2.167775599999004,['y'],0.7501473999946029,1.4140000000000001,1248.7052404999995,,,,,514,18,Woman,Right,
,,,,,,,,,,,,,,,,,514,18,Woman,Right,1,77,0.15,2,0,180,180,0.7258408999987296,['y'],0.5179551999972318,1.362,1253.0545576000004,,,,,514,18,Woman,Right,
,,,,,,,,,,,,,,,,,514,18,Woman,Right,1,3,1,2,180,0,0,0.41266170000017155,['y'],0.7518579999959911,2.0,1257.3551781999995,,,,,514,18,Woman,Right,
,,,,,,,,,,,,,,,,,514,18,Woman,Right,1,36,0.4,1,0,-,0,1.029763999998977,['y'],0.47091059999365825,1.562,1262.504624299996,,,,,514,18,Woman,Right,
,,,,,,,,,,,,,,,,,514,18,Woman,Right,2,15,0.4,2,180,0,0,0.5144870000003721,['y'],0.7474314999999478,2.0,1298.5542051999946,78.75,60.0,85.0,,514,18,Woman,Right,
,,,,,,,,,,,,,,,,,514,18,Woman,Right,2,67,0.15,2,180,0,0,2.0797115999957896,['y'],0.42022390000056475,2.0,1303.870873699998,,,,,514,18,Woman,Right,
,,,,,,,,,,,,,,,,,514,18,Woman,Right,2,32,0.4,1,0,-,0,0.5529256999943755,['n'],1.100915700000769,1.82,1309.6209868000005,,,,,514,18,Woman,Right,
,,,,,,,,,,,,,,,,,514,18,Woman,Right,2,9,0.4,2,0,180,180,0.3784808999989764,['y'],0.3894797000029939,2.0,1312.9206057999982,,,,,514,18,Woman,Right,
,,,,,,,,,,,,,,,,,514,18,Woman,Right,2,62,0.15,1,180,-,180,0.8503621999989264,['n'],1.1419685000000754,1.788,1317.8875176000001,,,,,514,18,Woman,Right,
,,,,,,,,,,,,,,,,,514,18,Woman,Right,2,2,1,1,180,-,180,0.30009350000182167,['n'],0.7735476000016206,2.0,1322.0038724999977,,,,,514,18,Woman,Right,
,,,,,,,,,,,,,,,,,514,18,Woman,Right,2,72,0.15,1,0,-,0,2.7364587999982177,['n'],0.8553958999982569,1.188,1329.9870869000006,,,,,514,18,Woman,Right,
,,,,,,,,,,,,,,,,,514,18,Woman,Right,2,12,0.4,1,0,-,0,0.6425339999987045,['y'],2.0403816000034567,1.296,1336.737171599998,,,,,514,18,Woman,Right,
,,,,,,,,,,,,,,,,,514,18,Woman,Right,2,71,0.15,2,180,0,0,0.9126523000013549,['y'],1.2169269000005443,1.82,1342.5383539999966,,,,,514,18,Woman,Right,
,,,,,,,,,,,,,,,,,514,18,Woman,Right,2,30,0.4,1,180,-,180,1.0387161999969976,['n'],3.362127299995336,1.734,1350.2701283999995,,,,,514,18,Woman,Right,
,,,,,,,,,,,,,,,,,514,18,Woman,Right,2,73,0.15,2,0,180,180,0.6875905000051716,['y'],0.4503697000036482,1.9,1354.4200778000013,,,,,514,18,Woman,Right,
,,,,,,,,,,,,,,,,,514,18,Woman,Right,2,44,0.15,1,0,-,0,1.1335918999975547,['y'],3.5471095999964746,1.26,1361.8366418000005,,,,,514,18,Woman,Right,
,,,,,,,,,,,,,,,,,514,18,Woman,Right,2,34,0.4,1,180,-,180,0.6489646999980323,['y'],1.0836785999999847,1.694,1366.8199835999985,,,,,514,18,Woman,Right,
,,,,,,,,,,,,,,,,,514,18,Woman,Right,2,27,0.4,2,180,0,0,0.40468780000082916,['y'],0.45195869999588467,2.0,1370.1204126000011,,,,,514,18,Woman,Right,
,,,,,,,,,,,,,,,,,514,18,Woman,Right,2,17,0.4,2,0,180,180,0.41090969999640947,['y'],0.4771651999981259,2.0,1373.6204681999952,,,,,514,18,Woman,Right,
,,,,,,,,,,,,,,,,,514,18,Woman,Right,2,74,0.15,1,180,-,180,2.3841199000016786,['n'],0.6762709000031464,2.0,1379.6864752999973,,,,,514,18,Woman,Right,
,,,,,,,,,,,,,,,,,514,18,Woman,Right,2,33,0.4,2,0,180,180,0.4405297000048449,['y'],0.38223379999544704,2.0,1385.7864100000006,,,,,514,18,Woman,Right,
,,,,,,,,,,,,,,,,,514,18,Woman,Right,2,69,0.15,2,0,180,180,1.422899299999699,['y'],0.7429550999950152,1.762,1390.8364485999991,,,,,514,18,Woman,Right,
,,,,,,,,,,,,,,,,,514,18,Woman,Right,2,29,0.4,2,0,180,180,0.468348700000206,['y'],0.7671033999940846,1.892,1394.7030883999978,,,,,514,18,Woman,Right,
,,,,,,,,,,,,,,,,,514,18,Woman,Right,2,11,0.4,2,180,0,0,0.5224014999985229,['y'],0.9195856000005733,2.0,1398.7698247000008,,,,,514,18,Woman,Right,
,,,,,,,,,,,,,,,,,514,18,Woman,Right,2,66,0.15,1,180,-,180,0.8482598000045982,['y'],1.4559806999968714,1.0,1403.7363697999972,,,,,514,18,Woman,Right,
,,,,,,,,,,,,,,,,,514,18,Woman,Right,2,77,0.15,2,0,180,180,2.1503646000055596,['y'],1.0093746000056854,1.9020000000000001,1409.6861700000009,,,,,514,18,Woman,Right,
,,,,,,,,,,,,,,,,,514,18,Woman,Right,2,59,0.15,2,180,0,0,1.66385050000099,['y'],1.1371944999991683,1.318,1415.5194244000013,,,,,514,18,Woman,Right,
,,,,,,,,,,,,,,,,,514,18,Woman,Right,2,56,0.15,1,0,-,180,0.7352119999995921,['y'],0.8423594999985653,1.3359999999999999,1422.8027170999994,,,,,514,18,Woman,Right,
,,,,,,,,,,,,,,,,,514,18,Woman,Right,2,20,0.4,1,0,-,0,0.7001111999998102,['n'],0.6831633999972837,1.298,1427.7360112999959,,,,,514,18,Woman,Right,
,,,,,,,,,,,,,,,,,514,18,Woman,Right,2,14,0.4,1,180,-,180,0.7928202999974019,['n'],0.828294899998582,1.338,1432.3693006999965,,,,,514,18,Woman,Right,
,,,,,,,,,,,,,,,,,514,18,Woman,Right,2,52,0.15,1,0,-,0,2.9337016999998013,['n'],1.1490211999989697,1.0,1439.0358235999956,,,,,514,18,Woman,Right,
,,,,,,,,,,,,,,,,,514,18,Woman,Right,2,25,0.4,2,0,180,180,0.5340021000010893,['y'],0.8110656999997445,2.0,1443.2699241999944,,,,,514,18,Woman,Right,
,,,,,,,,,,,,,,,,,514,18,Woman,Right,2,16,0.4,1,0,-,0,0.7276580000034301,['n'],0.709674099998665,2.0,1447.5859094999978,,,,,514,18,Woman,Right,
,,,,,,,,,,,,,,,,,514,18,Woman,Right,2,3,1,2,180,0,0,0.6577042999997502,['y'],0.614713999995729,2.0,1451.5358388999957,,,,,514,18,Woman,Right,
,,,,,,,,,,,,,,,,,514,18,Woman,Right,2,23,0.4,2,180,0,0,0.7949575000020559,['y'],0.4466600000014296,2.0,1455.4024811999989,,,,,514,18,Woman,Right,
,,,,,,,,,,,,,,,,,514,18,Woman,Right,2,36,0.4,1,0,-,0,0.6533218999975361,['n'],0.8230373999977019,2.0,1460.0190976999947,,,,,514,18,Woman,Right,
,,,,,,,,,,,,,,,,,514,18,Woman,Right,2,5,1,2,0,180,180,0.4420504000008805,['y'],0.5750505000032717,2.0,1463.9189086999977,,,,,514,18,Woman,Right,
,,,,,,,,,,,,,,,,,514,18,Woman,Right,2,41,0.4,2,0,180,180,0.5375768000012613,['y'],0.5515360999997938,2.0,1467.6356096999953,,,,,514,18,Woman,Right,
,,,,,,,,,,,,,,,,,514,18,Woman,Right,2,19,0.4,2,180,0,0,1.082350899996527,['y'],0.5761821999985841,2.0,1472.8027107000016,,,,,514,18,Woman,Right,
,,,,,,,,,,,,,,,,,514,18,Woman,Right,2,55,0.15,2,180,0,0,1.3402399999977206,['y'],1.065650500000629,1.6139999999999999,1478.3855205,,,,,514,18,Woman,Right,
,,,,,,,,,,,,,,,,,514,18,Woman,Right,2,42,0.4,1,180,-,180,0.6462261999986367,['n'],1.3375076999946032,1.716,1484.2859781000006,,,,,514,18,Woman,Right,
,,,,,,,,,,,,,,,,,514,18,Woman,Right,2,10,0.4,1,180,-,180,0.7736674999978277,['n'],0.6584590999991633,1.918,1489.4530935000003,,,,,514,18,Woman,Right,
,,,,,,,,,,,,,,,,,514,18,Woman,Right,2,21,0.4,2,0,180,180,0.5521454999980051,['y'],0.4987621999971452,2.0,1492.9852373999965,,,,,514,18,Woman,Right,
,,,,,,,,,,,,,,,,,514,18,Woman,Right,2,6,1,1,180,-,180,0.496396000002278,['n'],0.8195025000022724,2.0,1499.0686930999946,,,,,514,18,Woman,Right,
,,,,,,,,,,,,,,,,,514,18,Woman,Right,2,37,0.4,2,0,180,180,0.35085260000050766,['y'],0.4808783000044059,2.0,1502.5187297999946,,,,,514,18,Woman,Right,
,,,,,,,,,,,,,,,,,514,18,Woman,Right,2,26,0.4,1,180,-,180,0.5634509000010439,['n'],0.8771460999996634,1.77,1506.6185025999948,,,,,514,18,Woman,Right,
,,,,,,,,,,,,,,,,,514,18,Woman,Right,2,79,0.15,2,180,0,180,1.0090979000015068,['y'],1.517987200000789,1.17,1513.2701529999977,,,,,514,18,Woman,Right,
,,,,,,,,,,,,,,,,,514,18,Woman,Right,2,28,0.4,1,0,-,0,0.4848522000029334,['n'],0.8212306999994325,2.0,1517.869595899996,,,,,514,18,Woman,Right,
,,,,,,,,,,,,,,,,,514,18,Woman,Right,2,53,0.15,2,0,180,180,0.5509146000040346,['n'],0.7913831999976537,1.342,1521.936082799999,,,,,514,18,Woman,Right,
,,,,,,,,,,,,,,,,,514,18,Woman,Right,2,47,0.15,2,180,0,180,1.4333744000032311,['n'],0.8068598000027123,1.0,1527.1524095999994,,,,,514,18,Woman,Right,
,,,,,,,,,,,,,,,,,514,18,Woman,Right,2,46,0.15,1,180,-,180,1.3992870000001858,['n'],0.8080593999984558,1.3719999999999999,1532.5190731999974,,,,,514,18,Woman,Right,
,,,,,,,,,,,,,,,,,514,18,Woman,Right,2,13,0.4,2,0,180,180,0.5165252000006149,['y'],0.46477889999368927,2.0,1536.219137699998,,,,,514,18,Woman,Right,
,,,,,,,,,,,,,,,,,514,18,Woman,Right,2,60,0.15,1,0,-,0,0.6981077000018558,['y'],1.4323947000011685,1.302,1541.2190262000004,,,,,514,18,Woman,Right,
,,,,,,,,,,,,,,,,,514,18,Woman,Right,2,40,0.4,1,0,-,0,0.4790030000003753,['n'],0.7697115999981179,1.718,1546.2516388000004,,,,,514,18,Woman,Right,
,,,,,,,,,,,,,,,,,514,18,Woman,Right,2,65,0.15,2,0,180,0,1.0928841999993892,['n'],0.9547630000015488,1.688,1551.4347721000013,,,,,514,18,Woman,Right,
,,,,,,,,,,,,,,,,,514,18,Woman,Right,2,63,0.15,2,180,0,0,2.412651899998309,['n'],0.9630211000039708,1.196,1558.2512614000007,,,,,514,18,Woman,Right,
,,,,,,,,,,,,,,,,,514,18,Woman,Right,2,68,0.15,1,0,-,180,5.228038300003391,['y'],1.572367700005998,1.0,1568.6853564999983,,,,,514,18,Woman,Right,
,,,,,,,,,,,,,,,,,514,18,Woman,Right,2,24,0.4,1,0,-,0,0.4605576000030851,['y'],1.0927465999993728,1.0,1577.1351639999993,,,,,514,18,Woman,Right,
,,,,,,,,,,,,,,,,,514,18,Woman,Right,2,7,1,2,180,0,0,0.5788344999964465,['y'],0.5579307000007248,2.0,1580.9845421999999,,,,,514,18,Woman,Right,
,,,,,,,,,,,,,,,,,514,18,Woman,Right,2,0,1,1,0,-,0,0.5525839000038104,['n'],0.6227039000004879,2.0,1585.0176843000008,,,,,514,18,Woman,Right,
,,,,,,,,,,,,,,,,,514,18,Woman,Right,2,39,0.4,2,180,0,0,0.5660957000000053,['y'],1.0390642999991542,2.0,1589.2509664999961,,,,,514,18,Woman,Right,
,,,,,,,,,,,,,,,,,514,18,Woman,Right,2,38,0.4,1,180,-,180,0.45291980000183685,['n'],0.7990270000009332,1.0,1594.2351769000015,,,,,514,18,Woman,Right,
,,,,,,,,,,,,,,,,,514,18,Woman,Right,2,54,0.15,1,180,-,180,1.6034336000011535,['n'],0.952662199997576,1.216,1604.2682843000002,,,,,514,18,Woman,Right,
,,,,,,,,,,,,,,,,,514,18,Woman,Right,2,50,0.15,1,180,-,180,0.5679717000020901,['n'],0.6810111000013421,1.4,1608.5508311999947,,,,,514,18,Woman,Right,
,,,,,,,,,,,,,,,,,514,18,Woman,Right,2,58,0.15,1,180,-,0,1.6435003999940818,['n'],1.0900471999993897,1.3439999999999999,1614.1846148999975,,,,,514,18,Woman,Right,
,,,,,,,,,,,,,,,,,514,18,Woman,Right,2,49,0.15,2,0,180,180,1.5730544999969425,['n'],0.41866419999860227,1.174,1619.2184964999979,,,,,514,18,Woman,Right,
,,,,,,,,,,,,,,,,,514,18,Woman,Right,2,61,0.15,2,0,180,0,1.0652307999989716,['y'],0.8753557999953046,1.0,1623.8013415999958,,,,,514,18,Woman,Right,
,,,,,,,,,,,,,,,,,514,18,Woman,Right,2,64,0.15,1,0,-,180,1.387331300000369,['y'],0.7717056999972556,1.8599999999999999,1628.901152499995,,,,,514,18,Woman,Right,
,,,,,,,,,,,,,,,,,514,18,Woman,Right,2,31,0.4,2,180,0,0,0.5727877999961493,['y'],0.4762905999959912,2.0,1632.418368599996,,,,,514,18,Woman,Right,
,,,,,,,,,,,,,,,,,514,18,Woman,Right,2,57,0.15,2,0,180,0,1.5198359999994864,['y'],0.49286620000202674,1.712,1637.0171755999982,,,,,514,18,Woman,Right,
,,,,,,,,,,,,,,,,,514,18,Woman,Right,2,8,0.4,1,0,-,0,0.5381185000005644,['n'],0.8373557000013534,2.0,1641.2338048999954,,,,,514,18,Woman,Right,
,,,,,,,,,,,,,,,,,514,18,Woman,Right,2,35,0.4,2,180,0,0,0.9282573999953456,['y'],0.6612082999999984,2.0,1645.2512090999953,,,,,514,18,Woman,Right,
,,,,,,,,,,,,,,,,,514,18,Woman,Right,2,78,0.15,1,180,-,180,4.886263699998381,['y'],0.7509467999989283,1.696,1653.3841657999947,,,,,514,18,Woman,Right,
,,,,,,,,,,,,,,,,,514,18,Woman,Right,2,45,0.15,2,0,180,180,1.3319581000032485,['y'],0.4395879999938188,1.826,1657.6669726999971,,,,,514,18,Woman,Right,
,,,,,,,,,,,,,,,,,514,18,Woman,Right,2,76,0.15,1,0,-,0,0.8216669000030379,['n'],0.91132700000162,1.708,1662.1340148999952,,,,,514,18,Woman,Right,
,,,,,,,,,,,,,,,,,514,18,Woman,Right,2,51,0.15,2,180,0,180,1.6926756000029854,['n'],0.8884582000027876,1.324,1668.0669838999966,,,,,514,18,Woman,Right,
,,,,,,,,,,,,,,,,,514,18,Woman,Right,2,70,0.15,1,180,-,0,3.2952873000031104,['n'],1.2415599000014481,1.272,1675.566925799998,,,,,514,18,Woman,Right,
,,,,,,,,,,,,,,,,,514,18,Woman,Right,2,43,0.4,2,180,0,0,0.8092218000019784,['y'],0.5133296000058181,2.0,1679.6167315999992,,,,,514,18,Woman,Right,
,,,,,,,,,,,,,,,,,514,18,Woman,Right,2,18,0.4,1,180,-,180,0.4185088000012911,['n'],1.018626500001119,1.824,1683.7840819999983,,,,,514,18,Woman,Right,
,,,,,,,,,,,,,,,,,514,18,Woman,Right,2,1,1,2,0,180,180,0.3821685000002617,['y'],0.5540745999969658,2.0,1687.8832884000003,,,,,514,18,Woman,Right,
,,,,,,,,,,,,,,,,,514,18,Woman,Right,2,75,0.15,2,180,0,0,1.359223600004043,['n'],0.5954083999968134,1.334,1692.866662499997,,,,,514,18,Woman,Right,
,,,,,,,,,,,,,,,,,514,18,Woman,Right,2,22,0.4,1,180,-,0,1.5288594999947236,['y'],0.5636857999998028,1.676,1697.6166078999959,,,,,514,18,Woman,Right,
,,,,,,,,,,,,,,,,,514,18,Woman,Right,2,4,1,1,0,-,0,0.4718124999999418,['n'],0.9801853999961168,2.0,1701.516821199999,,,,,514,18,Woman,Right,
,,,,,,,,,,,,,,,,,514,18,Woman,Right,2,48,0.15,1,0,-,180,1.3549708999998984,['n'],1.03754150000168,1.07,1707.8005094999971,,,,,514,18,Woman,Right,
,,,,,,,,,,,,,,,,,514,18,Woman,Right,3,22,0.4,1,180,-,180,1.788253300001088,['n'],0.7600778999985778,1.956,1737.3002554999985,83.75,72.5,82.5,,514,18,Woman,Right,
,,,,,,,,,,,,,,,,,514,18,Woman,Right,3,77,0.15,2,0,180,180,1.8000303999942844,['n'],1.2894749999977648,1.308,1743.1660716999977,,,,,514,18,Woman,Right,
,,,,,,,,,,,,,,,,,514,18,Woman,Right,3,24,0.4,1,0,-,0,0.7932160999989719,['y'],1.6418510000003153,1.19,1748.9834416999947,,,,,514,18,Woman,Right,
,,,,,,,,,,,,,,,,,514,18,Woman,Right,3,43,0.4,2,180,0,0,0.47503429999778746,['y'],0.5869555999961449,1.792,1752.5493550999963,,,,,514,18,Woman,Right,
,,,,,,,,,,,,,,,,,514,18,Woman,Right,3,78,0.15,1,180,-,180,0.7275721999976668,['n'],1.1944340000045486,1.24,1756.999966299998,,,,,514,18,Woman,Right,
,,,,,,,,,,,,,,,,,514,18,Woman,Right,3,59,0.15,2,180,0,180,0.9000841000015498,['y'],2.651245300003211,1.202,1763.2159490999984,,,,,514,18,Woman,Right,
,,,,,,,,,,,,,,,,,514,18,Woman,Right,3,36,0.4,1,0,-,0,2.9777809000006528,['y'],0.8932583999994677,1.308,1769.7160785000015,,,,,514,18,Woman,Right,
,,,,,,,,,,,,,,,,,514,18,Woman,Right,3,0,1,1,0,-,0,0.27311509999708505,['n'],0.6449830999990809,2.0,1773.0332553999979,,,,,514,18,Woman,Right,
,,,,,,,,,,,,,,,,,514,18,Woman,Right,3,7,1,2,180,0,0,0.6078773999979603,['y'],0.6854858000006061,2.0,1777.6992003999985,,,,,514,18,Woman,Right,
,,,,,,,,,,,,,,,,,514,18,Woman,Right,3,66,0.15,1,180,-,180,2.0519363999992493,['n'],1.0383208999992348,1.196,1783.6991536999994,,,,,514,18,Woman,Right,
,,,,,,,,,,,,,,,,,514,18,Woman,Right,3,42,0.4,1,180,-,180,2.3184809000013047,['n'],0.8953643999993801,1.758,1790.1996310999966,,,,,514,18,Woman,Right,
,,,,,,,,,,,,,,,,,514,18,Woman,Right,3,74,0.15,1,180,-,180,0.9519723000048543,['y'],1.248386200000823,1.182,1795.2160215999975,,,,,514,18,Woman,Right,
,,,,,,,,,,,,,,,,,514,18,Woman,Right,3,4,1,1,0,-,0,0.34792790000210516,['n'],0.8964015999954427,2.0,1798.916055499998,,,,,514,18,Woman,Right,
,,,,,,,,,,,,,,,,,514,18,Woman,Right,3,15,0.4,2,180,0,0,0.9112337999977171,['y'],0.8965064000003622,2.0,1804.1156818999953,,,,,514,18,Woman,Right,
,,,,,,,,,,,,,,,,,514,18,Woman,Right,3,69,0.15,2,0,180,180,0.4225619999997434,['y'],1.0566556000048877,1.87,1808.349775099996,,,,,514,18,Woman,Right,
,,,,,,,,,,,,,,,,,514,18,Woman,Right,3,1,1,2,0,180,180,0.49057429999811575,['y'],0.4973173000034876,2.0,1812.0491336999985,,,,,514,18,Woman,Right,
,,,,,,,,,,,,,,,,,514,18,Woman,Right,3,47,0.15,2,180,0,180,0.8893628000005265,['y'],0.6022852999958559,2.0,1816.132835299999,,,,,514,18,Woman,Right,
,,,,,,,,,,,,,,,,,514,18,Woman,Right,3,62,0.15,1,180,-,0,1.2599348000003374,['y'],0.6912405999973998,1.6320000000000001,1821.2820502999966,,,,,514,18,Woman,Right,
,,,,,,,,,,,,,,,,,514,18,Woman,Right,3,30,0.4,1,180,-,180,0.8344842000005883,['n'],7.1877791000006255,1.3679999999999999,1832.199352399999,,,,,514,18,Woman,Right,
,,,,,,,,,,,,,,,,,514,18,Woman,Right,3,52,0.15,1,0,-,0,0.5927919999958249,['n'],3.757828999994672,1.206,1840.4984665999946,,,,,514,18,Woman,Right,
,,,,,,,,,,,,,,,,,514,18,Woman,Right,3,3,1,2,180,0,0,0.3818969999992987,['y'],0.43010119999962626,2.0,1843.6818424999947,,,,,514,18,Woman,Right,
,,,,,,,,,,,,,,,,,514,18,Woman,Right,3,2,1,1,180,-,180,0.513318999997864,['n'],0.8944645000010496,2.0,1847.948331599997,,,,,514,18,Woman,Right,
,,,,,,,,,,,,,,,,,514,18,Woman,Right,3,49,0.15,2,0,180,0,5.294854100000521,['y'],1.2793768999981694,1.164,1857.149055599999,,,,,514,18,Woman,Right,
,,,,,,,,,,,,,,,,,514,18,Woman,Right,3,17,0.4,2,0,180,180,0.43178679999982705,['y'],0.447885600005975,2.0,1860.3986965000004,,,,,514,18,Woman,Right,
,,,,,,,,,,,,,,,,,514,18,Woman,Right,3,39,0.4,2,180,0,0,0.2811008999997284,['y'],0.30405420000170125,2.0,1863.3657183999967,,,,,514,18,Woman,Right,
,,,,,,,,,,,,,,,,,514,18,Woman,Right,3,76,0.15,1,0,-,0,0.500584000001254,['n'],0.5069422000015038,1.818,1867.8482182000007,,,,,514,18,Woman,Right,
,,,,,,,,,,,,,,,,,514,18,Woman,Right,3,67,0.15,2,180,0,0,0.6396650999959093,['n'],1.7613230000060867,1.828,1873.4323140999986,,,,,514,18,Woman,Right,
,,,,,,,,,,,,,,,,,514,18,Woman,Right,3,51,0.15,2,180,0,0,2.113467800001672,['y'],1.186665900000662,1.69,1879.3321922999967,,,,,514,18,Woman,Right,
,,,,,,,,,,,,,,,,,514,18,Woman,Right,3,23,0.4,2,180,0,0,0.4668621000018902,['y'],0.4108044000022346,2.0,1882.7821397000007,,,,,514,18,Woman,Right,
,,,,,,,,,,,,,,,,,514,18,Woman,Right,3,65,0.15,2,0,180,180,0.5566027999957441,['y'],0.7230269000065164,2.0,1887.0493496999989,,,,,514,18,Woman,Right,
,,,,,,,,,,,,,,,,,514,18,Woman,Right,3,68,0.15,1,0,-,0,1.4150116000018897,['y'],0.6280655000009574,2.0,1892.3478906999953,,,,,514,18,Woman,Right,
,,,,,,,,,,,,,,,,,514,18,Woman,Right,3,14,0.4,1,180,-,180,0.8279263000003994,['n'],0.6277131000024383,1.85,1897.2815829999963,,,,,514,18,Woman,Right,
,,,,,,,,,,,,,,,,,514,18,Woman,Right,3,40,0.4,1,0,-,0,0.5541328000035719,['n'],2.325145499999053,1.682,1903.915548500001,,,,,514,18,Woman,Right,
,,,,,,,,,,,,,,,,,514,18,Woman,Right,3,50,0.15,1,180,-,180,0.8563697999998112,['n'],0.8456692999970983,1.324,1908.5311566999953,,,,,514,18,Woman,Right,
,,,,,,,,,,,,,,,,,514,18,Woman,Right,3,12,0.4,1,0,-,0,0.3562279999969178,['n'],0.9187555000025895,1.78,1912.7976909999998,,,,,514,18,Woman,Right,
,,,,,,,,,,,,,,,,,514,18,Woman,Right,3,54,0.15,1,180,-,180,1.583112100001017,['n'],0.9346614999958547,1.3519999999999999,1918.3477028999987,,,,,514,18,Woman,Right,
,,,,,,,,,,,,,,,,,514,18,Woman,Right,3,19,0.4,2,180,0,0,0.548572100000456,['y'],0.35912699999607867,1.84,1921.8150296999956,,,,,514,18,Woman,Right,
,,,,,,,,,,,,,,,,,514,18,Woman,Right,3,13,0.4,2,0,180,180,0.3471085999990464,['y'],0.48012590000143973,2.0,1925.331702399999,,,,,514,18,Woman,Right,
,,,,,,,,,,,,,,,,,514,18,Woman,Right,3,29,0.4,2,0,180,180,0.3057494000022416,['y'],0.40737519999674987,1.918,1928.7992784000016,,,,,514,18,Woman,Right,
,,,,,,,,,,,,,,,,,514,18,Woman,Right,3,11,0.4,2,180,0,0,0.308991199999582,['y'],0.48073289999592816,2.0,1932.7152541999967,,,,,514,18,Woman,Right,
,,,,,,,,,,,,,,,,,514,18,Woman,Right,3,55,0.15,2,180,0,0,0.5355618999965372,['y'],0.329195799997251,1.744,1937.5144856999977,,,,,514,18,Woman,Right,
,,,,,,,,,,,,,,,,,514,18,Woman,Right,3,34,0.4,1,180,-,180,0.5290256000007503,['n'],0.7612192000015057,1.6280000000000001,1941.9641276999973,,,,,514,18,Woman,Right,
,,,,,,,,,,,,,,,,,514,18,Woman,Right,3,72,0.15,1,0,-,180,1.990899199998239,['y'],0.7458409000028041,1.198,1947.831757299995,,,,,514,18,Woman,Right,
,,,,,,,,,,,,,,,,,514,18,Woman,Right,3,46,0.15,1,180,-,180,0.4605070000034175,['n'],0.6586329000056139,1.6019999999999999,1951.5141121999986,,,,,514,18,Woman,Right,
,,,,,,,,,,,,,,,,,514,18,Woman,Right,3,26,0.4,1,180,-,180,2.284851399999752,['n'],1.2758638000013889,1.306,1957.8976097999985,,,,,514,18,Woman,Right,
,,,,,,,,,,,,,,,,,514,18,Woman,Right,3,9,0.4,2,0,180,180,0.3134001999933389,['y'],0.4605106999952113,2.0,1961.1651882000006,,,,,514,18,Woman,Right,
,,,,,,,,,,,,,,,,,514,18,Woman,Right,3,70,0.15,1,180,-,0,0.4288360999998986,['y'],0.700684999996156,1.698,1964.8147743000009,,,,,514,18,Woman,Right,
,,,,,,,,,,,,,,,,,514,18,Woman,Right,3,60,0.15,1,0,-,180,1.2973224000015762,['y'],0.4526786000060383,1.728,1969.3146186999948,,,,,514,18,Woman,Right,
,,,,,,,,,,,,,,,,,514,18,Woman,Right,3,21,0.4,2,0,180,180,0.5435470000011264,['y'],0.49362319999636384,2.0,1972.8138225000002,,,,,514,18,Woman,Right,
,,,,,,,,,,,,,,,,,514,18,Woman,Right,3,18,0.4,1,180,-,180,1.2864270999998553,['n'],0.7423832999993465,1.732,1977.5804427999974,,,,,514,18,Woman,Right,
,,,,,,,,,,,,,,,,,514,18,Woman,Right,3,53,0.15,2,0,180,180,3.872917000000598,['n'],1.1112241999944672,1.212,1985.5970759999982,,,,,514,18,Woman,Right,
,,,,,,,,,,,,,,,,,514,18,Woman,Right,3,37,0.4,2,0,180,180,0.30981880000035744,['y'],0.4546669999981532,2.0,1989.5470198999974,,,,,514,18,Woman,Right,
,,,,,,,,,,,,,,,,,514,18,Woman,Right,3,31,0.4,2,180,0,0,0.2818074999959208,['y'],0.37595300000248244,2.0,1992.5143638000009,,,,,514,18,Woman,Right,
,,,,,,,,,,,,,,,,,514,18,Woman,Right,3,57,0.15,2,0,180,180,1.1360435000024154,['y'],0.4641196000011405,1.774,1996.5139060000001,,,,,514,18,Woman,Right,
,,,,,,,,,,,,,,,,,514,18,Woman,Right,3,28,0.4,1,0,-,0,0.8132919999989099,['n'],0.6248043999949005,1.396,2001.4137294999964,,,,,514,18,Woman,Right,
,,,,,,,,,,,,,,,,,514,18,Woman,Right,3,16,0.4,1,0,-,0,0.5258543999952963,['n'],0.6735081000006176,1.742,2005.8803100000005,,,,,514,18,Woman,Right,
,,,,,,,,,,,,,,,,,514,18,Woman,Right,3,48,0.15,1,0,-,0,2.5457851000028313,['n'],0.586588500002108,1.216,2012.614060299995,,,,,514,18,Woman,Right,
,,,,,,,,,,,,,,,,,514,18,Woman,Right,3,6,1,1,180,-,180,0.4486659000031068,['n'],1.4744793999998365,2.0,2017.3300384999966,,,,,514,18,Woman,Right,
,,,,,,,,,,,,,,,,,514,18,Woman,Right,3,63,0.15,2,180,0,0,0.9911798999964958,['n'],5.404266100005771,1.728,2026.7139361000009,,,,,514,18,Woman,Right,
,,,,,,,,,,,,,,,,,514,18,Woman,Right,3,75,0.15,2,180,0,180,1.127163400000427,['n'],0.8124970999997458,1.0,2031.6305922999964,,,,,514,18,Woman,Right,
,,,,,,,,,,,,,,,,,514,18,Woman,Right,3,71,0.15,2,180,0,0,1.025521600000502,['y'],0.5816514000034658,1.634,2035.8305336999983,,,,,514,18,Woman,Right,
,,,,,,,,,,,,,,,,,514,18,Woman,Right,3,38,0.4,1,180,-,180,0.360829700002796,['n'],0.8544029999975464,1.932,2039.8964848999967,,,,,514,18,Woman,Right,
,,,,,,,,,,,,,,,,,514,18,Woman,Right,3,58,0.15,1,180,-,180,0.37267850000353064,['n'],1.062230699993961,1.784,2044.2304525,,,,,514,18,Woman,Right,
,,,,,,,,,,,,,,,,,514,18,Woman,Right,3,64,0.15,1,0,-,0,2.376300399999309,['n'],0.5660541000033845,1.012,2050.8299272000004,,,,,514,18,Woman,Right,
,,,,,,,,,,,,,,,,,514,18,Woman,Right,3,32,0.4,1,0,-,0,1.94546299999638,['n'],1.023452699999325,1.338,2057.0462322999956,,,,,514,18,Woman,Right,
,,,,,,,,,,,,,,,,,514,18,Woman,Right,3,45,0.15,2,0,180,180,0.8522193000026164,['y'],0.6646570000011707,1.834,2061.146257499997,,,,,514,18,Woman,Right,
,,,,,,,,,,,,,,,,,514,18,Woman,Right,3,44,0.15,1,0,-,0,0.4963778999954229,['n'],0.8082586999953492,1.8,2065.262874799999,,,,,514,18,Woman,Right,
,,,,,,,,,,,,,,,,,514,18,Woman,Right,3,20,0.4,1,0,-,0,0.5272691999998642,['n'],0.6970613000012236,2.0,2069.0636054999995,,,,,514,18,Woman,Right,
,,,,,,,,,,,,,,,,,514,18,Woman,Right,3,56,0.15,1,0,-,180,1.5398341999971308,['y'],0.4892614999989746,1.544,2073.7637780000005,,,,,514,18,Woman,Right,
,,,,,,,,,,,,,,,,,514,18,Woman,Right,3,35,0.4,2,180,0,0,1.1750763000018196,['y'],0.48180609999690205,1.8719999999999999,2078.3638850999996,,,,,514,18,Woman,Right,
,,,,,,,,,,,,,,,,,514,18,Woman,Right,3,41,0.4,2,0,180,180,0.40905750000092667,['y'],0.5703018999993219,1.8980000000000001,2081.880345999998,,,,,514,18,Woman,Right,
,,,,,,,,,,,,,,,,,514,18,Woman,Right,3,8,0.4,1,0,-,0,0.4770455999969272,['n'],0.6516694000019925,1.756,2085.9302996999977,,,,,514,18,Woman,Right,
,,,,,,,,,,,,,,,,,514,18,Woman,Right,3,27,0.4,2,180,0,0,0.38743959999555955,['y'],0.36439770000288263,2.0,2089.413622100001,,,,,514,18,Woman,Right,
,,,,,,,,,,,,,,,,,514,18,Woman,Right,3,25,0.4,2,0,180,180,0.38416590000269935,['y'],0.47598749999451684,2.0,2092.695931299997,,,,,514,18,Woman,Right,
,,,,,,,,,,,,,,,,,514,18,Woman,Right,3,10,0.4,1,180,-,180,1.683443800000532,['n'],0.8371279999992112,2.0,2097.7459411999953,,,,,514,18,Woman,Right,
,,,,,,,,,,,,,,,,,514,18,Woman,Right,3,61,0.15,2,0,180,180,0.453626800001075,['y'],0.5402581999951508,1.704,2101.3797234000012,,,,,514,18,Woman,Right,
,,,,,,,,,,,,,,,,,514,18,Woman,Right,3,33,0.4,2,0,180,180,0.42556920000060927,['y'],0.3090553000001819,1.974,2104.629928299997,,,,,514,18,Woman,Right,
,,,,,,,,,,,,,,,,,514,18,Woman,Right,3,79,0.15,2,180,0,0,0.4009989000041969,['y'],0.32075220000115223,1.836,2108.0791358999995,,,,,514,18,Woman,Right,
,,,,,,,,,,,,,,,,,514,18,Woman,Right,3,73,0.15,2,0,180,180,0.37938199999916833,['y'],0.3101989999995567,1.81,2111.2297956999973,,,,,514,18,Woman,Right,
,,,,,,,,,,,,,,,,,514,18,Woman,Right,3,5,1,2,0,180,180,0.742974900000263,['y'],0.3741283999988809,2.0,2114.8297996999972,,,,,514,18,Woman,Right,
,,,,,,,,,,,,,,,,,514,18,Woman,Right,4,38,0.4,1,180,-,180,4.804401000001235,['n'],2.0256540999980643,1.642,2139.312851499999,88.75,77.5,87.5,,514,18,Woman,Right,
,,,,,,,,,,,,,,,,,514,18,Woman,Right,4,65,0.15,2,0,180,180,0.6961478000011994,['n'],0.8745829000035883,1.126,2145.7126902999953,,,,,514,18,Woman,Right,
,,,,,,,,,,,,,,,,,514,18,Woman,Right,4,75,0.15,2,180,0,0,0.7834855999972206,['y'],4.2278106000012485,1.272,2154.062363500001,,,,,514,18,Woman,Right,
,,,,,,,,,,,,,,,,,514,18,Woman,Right,4,45,0.15,2,0,180,180,0.9522951000035391,['y'],0.5477191999962088,1.7,2157.979351999995,,,,,514,18,Woman,Right,
,,,,,,,,,,,,,,,,,514,18,Woman,Right,4,76,0.15,1,0,-,0,0.4894150999971316,['y'],0.4440547000049264,1.8,2161.4126424999995,,,,,514,18,Woman,Right,
,,,,,,,,,,,,,,,,,514,18,Woman,Right,4,3,1,2,180,0,0,0.34199120000266703,['y'],0.4123165999990306,1.8,2164.645324199999,,,,,514,18,Woman,Right,
,,,,,,,,,,,,,,,,,514,18,Woman,Right,4,68,0.15,1,0,-,0,2.980495100004191,['n'],0.6856203999996069,1.166,2171.3125158999974,,,,,514,18,Woman,Right,
,,,,,,,,,,,,,,,,,514,18,Woman,Right,4,56,0.15,1,0,-,0,1.1215966999952798,['n'],0.7257635999994818,1.6640000000000001,2176.1618772,,,,,514,18,Woman,Right,
,,,,,,,,,,,,,,,,,514,18,Woman,Right,4,72,0.15,1,0,-,0,0.5766895999986446,['n'],0.6067169999951147,1.642,2180.1124678999986,,,,,514,18,Woman,Right,
,,,,,,,,,,,,,,,,,514,18,Woman,Right,4,63,0.15,2,180,0,180,1.0253406000047107,['y'],1.6067715999961365,1.0,2185.2616914999962,,,,,514,18,Woman,Right,
,,,,,,,,,,,,,,,,,514,18,Woman,Right,4,69,0.15,2,0,180,180,0.7277357000057236,['n'],1.2476600999943912,1.0,2189.628345199999,,,,,514,18,Woman,Right,
,,,,,,,,,,,,,,,,,514,18,Woman,Right,4,27,0.4,2,180,0,0,0.5593006999988575,['y'],0.4721231999938027,2.0,2193.112337999999,,,,,514,18,Woman,Right,
,,,,,,,,,,,,,,,,,514,18,Woman,Right,4,13,0.4,2,0,180,180,0.36837849999574246,['y'],0.44855480000114767,2.0,2196.3948907000013,,,,,514,18,Woman,Right,
,,,,,,,,,,,,,,,,,514,18,Woman,Right,4,36,0.4,1,0,-,0,0.7270528000008198,['n'],0.6654293000028701,1.746,2200.6281627999997,,,,,514,18,Woman,Right,
,,,,,,,,,,,,,,,,,514,18,Woman,Right,4,74,0.15,1,180,-,180,1.0742672999986098,['n'],1.0730839999960153,1.27,2205.794873699997,,,,,514,18,Woman,Right,
,,,,,,,,,,,,,,,,,514,18,Woman,Right,4,14,0.4,1,180,-,180,0.6710783000016818,['n'],0.8660898000016459,1.78,2212.6119163999974,,,,,514,18,Woman,Right,
,,,,,,,,,,,,,,,,,514,18,Woman,Right,4,44,0.15,1,0,-,180,2.5803092000060133,['n'],29.79059170000255,1.126,2248.5611472999954,,,,,514,18,Woman,Right,
,,,,,,,,,,,,,,,,,514,18,Woman,Right,4,7,1,2,180,0,0,0.34941939999407623,['y'],0.5030841000043438,2.0,2251.977636399999,,,,,514,18,Woman,Right,
,,,,,,,,,,,,,,,,,514,18,Woman,Right,4,41,0.4,2,0,180,180,0.3549859999984619,['y'],0.32722970000031637,2.0,2255.027661,,,,,514,18,Woman,Right,
,,,,,,,,,,,,,,,,,514,18,Woman,Right,4,58,0.15,1,180,-,0,0.3359751999960281,['y'],0.3032225999995717,1.94,2258.111652899999,,,,,514,18,Woman,Right,
,,,,,,,,,,,,,,,,,514,18,Woman,Right,4,0,1,1,0,-,0,0.34129449999454664,['n'],0.48779929999727756,2.0,2261.461738400001,,,,,514,18,Woman,Right,
,,,,,,,,,,,,,,,,,514,18,Woman,Right,4,34,0.4,1,180,-,180,0.8933585999984643,['n'],0.4809802000017953,2.0,2265.544732999995,,,,,514,18,Woman,Right,
,,,,,,,,,,,,,,,,,514,18,Woman,Right,4,66,0.15,1,180,-,0,0.30474490000051446,['y'],0.4006487000006018,2.0,2268.727978899995,,,,,514,18,Woman,Right,
,,,,,,,,,,,,,,,,,514,18,Woman,Right,4,77,0.15,2,0,180,180,0.6754511000035563,['y'],0.4487522000054014,1.8980000000000001,2272.5608412,,,,,514,18,Woman,Right,
,,,,,,,,,,,,,,,,,514,18,Woman,Right,4,37,0.4,2,0,180,180,0.4110101999976905,['y'],0.32159699999465374,2.0,2275.7773927000017,,,,,514,18,Woman,Right,
,,,,,,,,,,,,,,,,,514,18,Woman,Right,4,70,0.15,1,180,-,0,1.3381219000002602,['y'],0.8831491000019014,1.278,2280.627411900001,,,,,514,18,Woman,Right,
,,,,,,,,,,,,,,,,,514,18,Woman,Right,4,57,0.15,2,0,180,180,1.4720102999999654,['y'],0.4430309000017587,1.742,2284.994808399999,,,,,514,18,Woman,Right,
,,,,,,,,,,,,,,,,,514,18,Woman,Right,4,67,0.15,2,180,0,180,1.3339600000035716,['y'],0.5988190999996732,1.154,2289.510562999996,,,,,514,18,Woman,Right,
,,,,,,,,,,,,,,,,,514,18,Woman,Right,4,73,0.15,2,0,180,180,1.2998411000007764,['y'],0.8044845999975223,1.298,2295.1446830999994,,,,,514,18,Woman,Right,
,,,,,,,,,,,,,,,,,514,18,Woman,Right,4,8,0.4,1,0,-,0,0.9552876000016113,['n'],0.6451538999972399,1.304,2299.294649700001,,,,,514,18,Woman,Right,
,,,,,,,,,,,,,,,,,514,18,Woman,Right,4,33,0.4,2,0,180,180,0.7027836999986903,['y'],0.5575043999997433,1.788,2302.8771739000003,,,,,514,18,Woman,Right,
,,,,,,,,,,,,,,,,,514,18,Woman,Right,4,10,0.4,1,180,-,180,1.1411613000018406,['n'],0.6305738000010024,1.626,2307.527114299999,,,,,514,18,Woman,Right,
,,,,,,,,,,,,,,,,,514,18,Woman,Right,4,49,0.15,2,0,180,0,3.060081999996328,['y'],0.7190666999958921,1.6520000000000001,2313.7770273999995,,,,,514,18,Woman,Right,
,,,,,,,,,,,,,,,,,514,18,Woman,Right,4,54,0.15,1,180,-,0,6.002530400000978,['n'],0.7039378000044962,1.19,2322.976997400001,,,,,514,18,Woman,Right,
,,,,,,,,,,,,,,,,,514,18,Woman,Right,4,2,1,1,180,-,180,0.8801313000003574,['n'],1.0321609000020544,1.914,2327.3945682999984,,,,,514,18,Woman,Right,
,,,,,,,,,,,,,,,,,514,18,Woman,Right,4,5,1,2,0,180,180,0.6966878000021097,['y'],0.8642511000070954,2.0,2331.410239799996,,,,,514,18,Woman,Right,
,,,,,,,,,,,,,,,,,514,18,Woman,Right,4,50,0.15,1,180,-,0,1.3739753999980167,['y'],0.40079310000146506,1.6560000000000001,2335.8610713000016,,,,,514,18,Woman,Right,
,,,,,,,,,,,,,,,,,514,18,Woman,Right,4,31,0.4,2,180,0,0,0.4662289000043529,['y'],0.3461031000042567,2.0,2339.076797199996,,,,,514,18,Woman,Right,
,,,,,,,,,,,,,,,,,514,18,Woman,Right,4,17,0.4,2,0,180,180,1.8974426999993739,['y'],0.7945226000010734,1.824,2344.5942235999973,,,,,514,18,Woman,Right,
,,,,,,,,,,,,,,,,,514,18,Woman,Right,4,6,1,1,180,-,180,0.41661649999878136,['n'],0.7385445999971125,1.85,2349.343238900001,,,,,514,18,Woman,Right,
,,,,,,,,,,,,,,,,,514,18,Woman,Right,4,46,0.15,1,180,-,0,12.87861719999637,['y'],2.5647982000009506,1.026,2368.6104908999987,,,,,514,18,Woman,Right,
,,,,,,,,,,,,,,,,,514,18,Woman,Right,4,24,0.4,1,0,-,0,0.4265272999982699,['n'],0.9266274999972666,2.0,2372.6431397999986,,,,,514,18,Woman,Right,
,,,,,,,,,,,,,,,,,514,18,Woman,Right,4,35,0.4,2,180,0,0,0.5367822000043816,['y'],0.7024203999972087,1.904,2377.676376299998,,,,,514,18,Woman,Right,
,,,,,,,,,,,,,,,,,514,18,Woman,Right,4,11,0.4,2,180,0,0,0.2913111000016215,['y'],0.39866320000146516,1.796,2380.843438899996,,,,,514,18,Woman,Right,
,,,,,,,,,,,,,,,,,514,18,Woman,Right,4,79,0.15,2,180,0,0,0.6810477999970317,['y'],1.4234579999974812,1.716,2385.693733100001,,,,,514,18,Woman,Right,
,,,,,,,,,,,,,,,,,514,18,Woman,Right,4,64,0.15,1,0,-,0,0.333092900000338,['n'],0.8159843000030378,1.752,2389.110205799996,,,,,514,18,Woman,Right,
,,,,,,,,,,,,,,,,,514,18,Woman,Right,4,29,0.4,2,0,180,180,0.2986516999953892,['y'],0.5282836000042153,1.696,2392.277067099996,,,,,514,18,Woman,Right,
,,,,,,,,,,,,,,,,,514,18,Woman,Right,4,4,1,1,0,-,0,1.3555718999996316,['n'],0.4093171999993501,1.912,2396.793079199997,,,,,514,18,Woman,Right,
,,,,,,,,,,,,,,,,,514,18,Woman,Right,4,26,0.4,1,180,-,180,1.4205799999981537,['n'],1.1135304999988875,1.962,2402.209565500001,,,,,514,18,Woman,Right,
,,,,,,,,,,,,,,,,,514,18,Woman,Right,4,18,0.4,1,180,-,180,0.6533347000004142,['n'],1.0661724000019603,1.812,2406.2760941000015,,,,,514,18,Woman,Right,
,,,,,,,,,,,,,,,,,514,18,Woman,Right,4,48,0.15,1,0,-,0,1.6667140999998082,['n'],0.7074284000045736,1.782,2411.3261878999983,,,,,514,18,Woman,Right,
,,,,,,,,,,,,,,,,,514,18,Woman,Right,4,53,0.15,2,0,180,180,1.7189224999965518,['y'],0.5392534000056912,1.662,2416.176122099998,,,,,514,18,Woman,Right,
,,,,,,,,,,,,,,,,,514,18,Woman,Right,4,1,1,2,0,180,180,0.8085978999952204,['y'],0.9720719999968424,1.976,2420.542762799996,,,,,514,18,Woman,Right,
,,,,,,,,,,,,,,,,,514,18,Woman,Right,4,23,0.4,2,180,0,0,0.32427820000157226,['y'],0.38818060000630794,2.0,2423.7259309,,,,,514,18,Woman,Right,
,,,,,,,,,,,,,,,,,514,18,Woman,Right,4,78,0.15,1,180,-,180,0.8428898999991361,['n'],1.1008784000005107,1.338,2428.225979099996,,,,,514,18,Woman,Right,
,,,,,,,,,,,,,,,,,514,18,Woman,Right,4,9,0.4,2,0,180,180,0.5821009000064805,['y'],0.4613574000031804,2.0,2431.6591761999953,,,,,514,18,Woman,Right,
,,,,,,,,,,,,,,,,,514,18,Woman,Right,4,25,0.4,2,0,180,180,0.683410300000105,['y'],0.38969550000183517,1.996,2435.3761432999963,,,,,514,18,Woman,Right,
,,,,,,,,,,,,,,,,,514,18,Woman,Right,4,12,0.4,1,0,-,0,0.6729546999995364,['n'],0.8222359999999753,1.6640000000000001,2439.2423855000015,,,,,514,18,Woman,Right,
,,,,,,,,,,,,,,,,,514,18,Woman,Right,4,43,0.4,2,180,0,0,0.34791860000404995,['y'],0.46287950000260025,1.95,2442.609064899996,,,,,514,18,Woman,Right,
,,,,,,,,,,,,,,,,,514,18,Woman,Right,4,71,0.15,2,180,0,0,0.6097694999989471,['y'],0.7429701000000932,1.692,2446.1424132999964,,,,,514,18,Woman,Right,
,,,,,,,,,,,,,,,,,514,18,Woman,Right,4,47,0.15,2,180,0,0,0.3134847000037553,['y'],0.35989539999718545,1.63,2449.0256606999974,,,,,514,18,Woman,Right,
,,,,,,,,,,,,,,,,,514,18,Woman,Right,4,20,0.4,1,0,-,180,1.0232515999960015,['n'],0.8481474000000162,1.146,2453.2590828999964,,,,,514,18,Woman,Right,
,,,,,,,,,,,,,,,,,514,18,Woman,Right,4,61,0.15,2,0,180,180,1.1815927999996347,['y'],1.2964548000018112,1.3559999999999999,2458.7589242999966,,,,,514,18,Woman,Right,
,,,,,,,,,,,,,,,,,514,18,Woman,Right,4,16,0.4,1,0,-,0,0.42139680000400404,['n'],1.305154900001071,1.976,2462.792812200001,,,,,514,18,Woman,Right,
,,,,,,,,,,,,,,,,,514,18,Woman,Right,4,42,0.4,1,180,-,180,1.5044855999949505,['n'],0.7935767999952077,1.3359999999999999,2467.659332700001,,,,,514,18,Woman,Right,
,,,,,,,,,,,,,,,,,514,18,Woman,Right,4,39,0.4,2,180,0,0,0.5048469999965164,['y'],0.48142180000286316,1.932,2471.109515600001,,,,,514,18,Woman,Right,
,,,,,,,,,,,,,,,,,514,18,Woman,Right,4,22,0.4,1,180,-,180,0.4203127999935532,['n'],0.7702903000026708,1.962,2475.1259204000016,,,,,514,18,Woman,Right,
,,,,,,,,,,,,,,,,,514,18,Woman,Right,4,60,0.15,1,0,-,0,1.6163242000038736,['y'],0.8276394999993499,1.3639999999999999,2480.4086467000016,,,,,514,18,Woman,Right,
,,,,,,,,,,,,,,,,,514,18,Woman,Right,4,15,0.4,2,180,0,0,0.3669563000003109,['y'],0.32372269999905257,1.972,2483.392327900001,,,,,514,18,Woman,Right,
,,,,,,,,,,,,,,,,,514,18,Woman,Right,4,51,0.15,2,180,0,180,21.104509799995867,['y'],1.0702797999983886,1.212,2507.9425520000004,,,,,514,18,Woman,Right,
,,,,,,,,,,,,,,,,,514,18,Woman,Right,4,55,0.15,2,180,0,180,0.488467800001672,['n'],1.4389595999964513,1.024,2513.325915399997,,,,,514,18,Woman,Right,
,,,,,,,,,,,,,,,,,514,18,Woman,Right,4,21,0.4,2,0,180,180,0.40080830000079004,['y'],0.4870701999971061,1.99,2517.3090068999954,,,,,514,18,Woman,Right,
,,,,,,,,,,,,,,,,,514,18,Woman,Right,4,59,0.15,2,180,0,180,1.9314001999955508,['n'],2.585165299999062,1.092,2524.2750713999994,,,,,514,18,Woman,Right,
,,,,,,,,,,,,,,,,,514,18,Woman,Right,4,32,0.4,1,0,-,0,0.7884971999956178,['n'],0.9529029000041191,1.71,2528.5082141999956,,,,,514,18,Woman,Right,
,,,,,,,,,,,,,,,,,514,18,Woman,Right,4,28,0.4,1,0,-,0,0.27683389999583596,['n'],0.6740525999994134,1.772,2531.659212499995,,,,,514,18,Woman,Right,
,,,,,,,,,,,,,,,,,514,18,Woman,Right,4,52,0.15,1,0,-,0,0.9667434000002686,['n'],0.8418499999970663,1.31,2535.908851299995,,,,,514,18,Woman,Right,
,,,,,,,,,,,,,,,,,514,18,Woman,Right,4,40,0.4,1,0,-,0,0.6678509000048507,['n'],0.6337258999992628,1.4020000000000001,2539.5420543,,,,,514,18,Woman,Right,
,,,,,,,,,,,,,,,,,514,18,Woman,Right,4,62,0.15,1,180,-,180,0.4915827000004356,['n'],0.9876094999999623,1.266,2544.4580157999953,,,,,514,18,Woman,Right,
,,,,,,,,,,,,,,,,,514,18,Woman,Right,4,30,0.4,1,180,-,180,1.0403240999949048,['n'],1.3473940000039875,1.658,2550.408070199999,,,,,514,18,Woman,Right,
,,,,,,,,,,,,,,,,,514,18,Woman,Right,4,19,0.4,2,180,0,0,0.44151639999472536,['y'],0.42006030000629835,1.984,2553.8412869999956,,,,,514,18,Woman,Right,
,,,,,,,,,,,,,,,,,514,18,Woman,Right,5,42,0.4,1,180,-,180,0.8170359999930952,['n'],0.8716133999987505,1.38,2584.2409866000016,82.5,82.5,90.0,,514,18,Woman,Right,
,,,,,,,,,,,,,,,,,514,18,Woman,Right,5,19,0.4,2,180,0,0,0.29491549999511335,['y'],0.32739089999813586,1.784,2587.2076826999983,,,,,514,18,Woman,Right,
,,,,,,,,,,,,,,,,,514,18,Woman,Right,5,75,0.15,2,180,0,0,0.7669593000027817,['y'],1.7807121999940136,1.362,2592.5575376999986,,,,,514,18,Woman,Right,
,,,,,,,,,,,,,,,,,514,18,Woman,Right,5,49,0.15,2,0,180,180,0.5004707999978564,['y'],0.46494549999624724,1.69,2595.8075287999964,,,,,514,18,Woman,Right,
,,,,,,,,,,,,,,,,,514,18,Woman,Right,5,51,0.15,2,180,0,0,0.4739580000023125,['n'],0.7771932000032393,1.29,2600.2073976999964,,,,,514,18,Woman,Right,
,,,,,,,,,,,,,,,,,514,18,Woman,Right,5,68,0.15,1,0,-,180,0.9862900000007357,['y'],1.0346701000016765,1.31,2604.957901599999,,,,,514,18,Woman,Right,
,,,,,,,,,,,,,,,,,514,18,Woman,Right,5,12,0.4,1,0,-,180,2.037807499997143,['y'],1.0028416999994079,1.6139999999999999,2610.391349999998,,,,,514,18,Woman,Right,
,,,,,,,,,,,,,,,,,514,18,Woman,Right,5,63,0.15,2,180,0,0,0.47532219999993686,['y'],0.5549035000003641,1.588,2613.9582797999974,,,,,514,18,Woman,Right,
,,,,,,,,,,,,,,,,,514,18,Woman,Right,5,22,0.4,1,180,-,180,0.4063875000065309,['n'],0.4989921000014874,1.708,2617.9239938999963,,,,,514,18,Woman,Right,
,,,,,,,,,,,,,,,,,514,18,Woman,Right,5,59,0.15,2,180,0,0,0.42274600000382634,['y'],0.40460539999912726,1.67,2621.173911099999,,,,,514,18,Woman,Right,
,,,,,,,,,,,,,,,,,514,18,Woman,Right,5,55,0.15,2,180,0,0,0.33121940000273753,['y'],0.38847350000287406,1.756,2624.1238978999972,,,,,514,18,Woman,Right,
,,,,,,,,,,,,,,,,,514,18,Woman,Right,5,36,0.4,1,0,-,0,0.8937813000011374,['n'],0.6371203000016976,1.85,2627.9071425,,,,,514,18,Woman,Right,
,,,,,,,,,,,,,,,,,514,18,Woman,Right,5,0,1,1,0,-,0,0.6282701000018278,['n'],1.1421244000011939,1.996,2632.790597899999,,,,,514,18,Woman,Right,
,,,,,,,,,,,,,,,,,514,18,Woman,Right,5,24,0.4,1,0,-,0,0.5623039999991306,['n'],0.886669500003336,2.0,2637.273785599995,,,,,514,18,Woman,Right,
,,,,,,,,,,,,,,,,,514,18,Woman,Right,5,9,0.4,2,0,180,180,0.45843829999648733,['y'],1.1903538000042317,1.944,2641.3070393000016,,,,,514,18,Woman,Right,
,,,,,,,,,,,,,,,,,514,18,Woman,Right,5,15,0.4,2,180,0,0,0.38197399999626214,['y'],0.5350315000032424,1.842,2644.4737035,,,,,514,18,Woman,Right,
,,,,,,,,,,,,,,,,,514,18,Woman,Right,5,69,0.15,2,0,180,180,0.44773119999445044,['n'],1.0236217000056058,1.346,2648.4070027999987,,,,,514,18,Woman,Right,
,,,,,,,,,,,,,,,,,514,18,Woman,Right,5,37,0.4,2,0,180,180,0.5915524000010919,['y'],0.5841904999979306,1.914,2652.1569022999975,,,,,514,18,Woman,Right,
,,,,,,,,,,,,,,,,,514,18,Woman,Right,5,28,0.4,1,0,-,0,0.48355440000159433,['n'],0.6953203999946709,1.704,2656.2736746999944,,,,,514,18,Woman,Right,
,,,,,,,,,,,,,,,,,514,18,Woman,Right,5,79,0.15,2,180,0,0,0.5971844000014244,['y'],1.9605345000018133,1.3599999999999999,2661.7568392999965,,,,,514,18,Woman,Right,
,,,,,,,,,,,,,,,,,514,18,Woman,Right,5,30,0.4,1,180,-,180,0.5200086000040756,['n'],0.9298586000004434,1.6640000000000001,2666.306814299998,,,,,514,18,Woman,Right,
,,,,,,,,,,,,,,,,,514,18,Woman,Right,5,8,0.4,1,0,-,0,0.621121399999538,['n'],1.162128699994355,1.954,2670.5067740000013,,,,,514,18,Woman,Right,
,,,,,,,,,,,,,,,,,514,18,Woman,Right,5,18,0.4,1,180,-,180,0.709331400001247,['n'],0.7784861000036472,1.3559999999999999,2674.9741232000015,,,,,514,18,Woman,Right,
,,,,,,,,,,,,,,,,,514,18,Woman,Right,5,60,0.15,1,0,-,0,0.7304490999958944,['y'],0.9785923000017647,1.256,2679.090885699996,,,,,514,18,Woman,Right,
,,,,,,,,,,,,,,,,,514,18,Woman,Right,5,25,0.4,2,0,180,180,0.5381766999998945,['y'],0.47567479999997886,2.0,2682.573959399997,,,,,514,18,Woman,Right,
,,,,,,,,,,,,,,,,,514,18,Woman,Right,5,31,0.4,2,180,0,0,0.685435100000177,['y'],1.148060899999109,1.972,2686.924001399995,,,,,514,18,Woman,Right,
,,,,,,,,,,,,,,,,,514,18,Woman,Right,5,43,0.4,2,180,0,0,1.0322214999978314,['y'],1.8127612000025692,2.0,2692.2407165999975,,,,,514,18,Woman,Right,
,,,,,,,,,,,,,,,,,514,18,Woman,Right,5,61,0.15,2,0,180,180,0.4667794999986654,['y'],0.4773828000033973,1.6600000000000001,2695.6242877999975,,,,,514,18,Woman,Right,
,,,,,,,,,,,,,,,,,514,18,Woman,Right,5,7,1,2,180,0,0,0.4269605000008596,['y'],0.7812561999962782,1.984,2699.3398145999963,,,,,514,18,Woman,Right,
,,,,,,,,,,,,,,,,,514,18,Woman,Right,5,39,0.4,2,180,0,0,0.49769889999879524,['y'],1.3587704000019585,1.998,2703.489776800001,,,,,514,18,Woman,Right,
,,,,,,,,,,,,,,,,,514,18,Woman,Right,5,20,0.4,1,0,-,0,3.3122070000026724,['n'],0.9990499999985332,1.212,2710.523819199996,,,,,514,18,Woman,Right,
,,,,,,,,,,,,,,,,,514,18,Woman,Right,5,1,1,2,0,180,180,0.2672584000029019,['y'],0.9195820999957505,1.828,2717.3229573999997,,,,,514,18,Woman,Right,
,,,,,,,,,,,,,,,,,514,18,Woman,Right,5,17,0.4,2,0,180,180,0.30991530000028433,['y'],0.3272914999979548,2.0,2720.4066117999973,,,,,514,18,Woman,Right,
,,,,,,,,,,,,,,,,,514,18,Woman,Right,5,56,0.15,1,0,-,0,1.0043551000053412,['n'],0.9768953000020701,1.642,2724.940461099999,,,,,514,18,Woman,Right,
,,,,,,,,,,,,,,,,,514,18,Woman,Right,5,71,0.15,2,180,0,0,1.4921570000005886,['y'],0.59356399999524,1.634,2729.3737045000016,,,,,514,18,Woman,Right,
,,,,,,,,,,,,,,,,,514,18,Woman,Right,5,45,0.15,2,0,180,180,0.33820440000272356,['y'],0.5543678000030923,1.634,2732.589563099995,,,,,514,18,Woman,Right,
,,,,,,,,,,,,,,,,,514,18,Woman,Right,5,29,0.4,2,0,180,180,1.9533920000030776,['y'],0.45863919999828795,1.8940000000000001,2737.3901669999977,,,,,514,18,Woman,Right,
,,,,,,,,,,,,,,,,,514,18,Woman,Right,5,62,0.15,1,180,-,0,0.6223247000016272,['y'],0.6745795000024373,1.548,2741.3227984999976,,,,,514,18,Woman,Right,
,,,,,,,,,,,,,,,,,514,18,Woman,Right,5,72,0.15,1,0,-,0,0.8774732000019867,['n'],0.7466311000025598,1.296,2745.3400322000016,,,,,514,18,Woman,Right,
,,,,,,,,,,,,,,,,,514,18,Woman,Right,5,73,0.15,2,0,180,180,0.9108053000018117,['y'],1.1314481000008527,1.084,2750.256635400001,,,,,514,18,Woman,Right,
,,,,,,,,,,,,,,,,,514,18,Woman,Right,5,77,0.15,2,0,180,180,1.6153648999970756,['y'],0.5244206999996095,1.694,2754.9058259999947,,,,,514,18,Woman,Right,
,,,,,,,,,,,,,,,,,514,18,Woman,Right,5,35,0.4,2,180,0,0,0.36223990000144113,['y'],0.42875159999675816,1.818,2757.8391350999955,,,,,514,18,Woman,Right,
,,,,,,,,,,,,,,,,,514,18,Woman,Right,5,48,0.15,1,0,-,0,1.5672724000032758,['n'],1.0651606999963406,1.25,2763.055794299995,,,,,514,18,Woman,Right,
,,,,,,,,,,,,,,,,,514,18,Woman,Right,5,67,0.15,2,180,0,180,1.4339984000034747,['n'],1.0946585000056075,1.0,2768.072462199998,,,,,514,18,Woman,Right,
,,,,,,,,,,,,,,,,,514,18,Woman,Right,5,23,0.4,2,180,0,0,0.35560350000014296,['y'],0.5657625999956508,1.948,2771.522446899995,,,,,514,18,Woman,Right,
,,,,,,,,,,,,,,,,,514,18,Woman,Right,5,34,0.4,1,180,-,180,0.7670099000024493,['n'],0.831483499998285,1.676,2776.0058334999994,,,,,514,18,Woman,Right,
,,,,,,,,,,,,,,,,,514,18,Woman,Right,5,5,1,2,0,180,180,0.26101249999919673,['y'],0.6799144999968121,1.996,2779.539723199996,,,,,514,18,Woman,Right,
,,,,,,,,,,,,,,,,,514,18,Woman,Right,5,41,0.4,2,0,180,180,0.5256965000007767,['y'],0.5352666999970097,2.0,2782.9897052000015,,,,,514,18,Woman,Right,
,,,,,,,,,,,,,,,,,514,18,Woman,Right,5,44,0.15,1,0,-,0,0.579645800004073,['n'],0.8805189000049722,1.248,2786.938958300001,,,,,514,18,Woman,Right,
,,,,,,,,,,,,,,,,,514,18,Woman,Right,5,66,0.15,1,180,-,180,0.6583606999993208,['n'],0.8085662000012235,1.718,2791.0721971999956,,,,,514,18,Woman,Right,
,,,,,,,,,,,,,,,,,514,18,Woman,Right,5,47,0.15,2,180,0,0,0.5346808999966015,['y'],1.4894147000013618,1.682,2795.506434899995,,,,,514,18,Woman,Right,
,,,,,,,,,,,,,,,,,514,18,Woman,Right,5,74,0.15,1,180,-,180,0.864445600003819,['n'],0.8497697999991942,1.624,2799.5387998000006,,,,,514,18,Woman,Right,
,,,,,,,,,,,,,,,,,514,18,Woman,Right,5,64,0.15,1,0,-,0,0.8708962999953656,['y'],1.841976200004865,1.0,2804.8570667999957,,,,,514,18,Woman,Right,
,,,,,,,,,,,,,,,,,514,18,Woman,Right,5,52,0.15,1,0,-,0,0.4666085999997449,['n'],0.7625407999948948,1.264,2808.623033099997,,,,,514,18,Woman,Right,
,,,,,,,,,,,,,,,,,514,18,Woman,Right,5,76,0.15,1,0,-,0,1.07487029999902,['n'],1.1314199000044027,1.1320000000000001,2813.8393099999957,,,,,514,18,Woman,Right,
,,,,,,,,,,,,,,,,,514,18,Woman,Right,5,57,0.15,2,0,180,180,0.6075338000009651,['y'],0.5323081000024104,1.772,2817.6894751,,,,,514,18,Woman,Right,
,,,,,,,,,,,,,,,,,514,18,Woman,Right,5,2,1,1,180,-,180,0.7145404999973834,['n'],0.7643845999991754,2.0,2821.6393013999987,,,,,514,18,Woman,Right,
,,,,,,,,,,,,,,,,,514,18,Woman,Right,5,53,0.15,2,0,180,180,0.6958527999959188,['y'],0.4607163999971817,1.684,2825.239219700001,,,,,514,18,Woman,Right,
,,,,,,,,,,,,,,,,,514,18,Woman,Right,5,50,0.15,1,180,-,180,0.7960531999997329,['y'],0.5259354000008898,1.1280000000000001,2828.9724898999993,,,,,514,18,Woman,Right,
,,,,,,,,,,,,,,,,,514,18,Woman,Right,5,46,0.15,1,180,-,0,0.5767941000012797,['y'],0.46120360000350047,1.23,2832.6897750999997,,,,,514,18,Woman,Right,
,,,,,,,,,,,,,,,,,514,18,Woman,Right,5,58,0.15,1,180,-,0,0.43441359999997076,['y'],0.6139065999959712,1.55,2836.072869799995,,,,,514,18,Woman,Right,
,,,,,,,,,,,,,,,,,514,18,Woman,Right,5,14,0.4,1,180,-,180,0.3217836999974679,['n'],0.7743684000015492,1.88,2839.671867199999,,,,,514,18,Woman,Right,
,,,,,,,,,,,,,,,,,514,18,Woman,Right,5,10,0.4,1,180,-,180,0.6909573000011733,['n'],0.5829098000031081,1.984,2843.4723202999958,,,,,514,18,Woman,Right,
,,,,,,,,,,,,,,,,,514,18,Woman,Right,5,21,0.4,2,0,180,180,0.2587948000000324,['y'],0.6630096000008052,1.966,2846.9884663999983,,,,,514,18,Woman,Right,
,,,,,,,,,,,,,,,,,514,18,Woman,Right,5,38,0.4,1,180,-,180,0.7109774999989895,['n'],0.7039035000052536,1.836,2850.7388420999996,,,,,514,18,Woman,Right,
,,,,,,,,,,,,,,,,,514,18,Woman,Right,5,65,0.15,2,0,180,180,1.1666172000041115,['y'],0.5202094999986002,1.392,2855.688975899997,,,,,514,18,Woman,Right,
,,,,,,,,,,,,,,,,,514,18,Woman,Right,5,26,0.4,1,180,-,180,0.36496230000193464,['n'],1.1372440999984974,1.676,2859.8551716,,,,,514,18,Woman,Right,
,,,,,,,,,,,,,,,,,514,18,Woman,Right,5,32,0.4,1,0,-,0,0.2998038000005181,['n'],1.1369467999975313,1.8940000000000001,2863.6390976999974,,,,,514,18,Woman,Right,
,,,,,,,,,,,,,,,,,514,18,Woman,Right,5,4,1,1,0,-,0,0.26615960000344785,['n'],0.6348257999998168,1.956,2869.5383980999977,,,,,514,18,Woman,Right,
,,,,,,,,,,,,,,,,,514,18,Woman,Right,5,54,0.15,1,180,-,180,0.4878251999980421,['n'],0.8584430999981123,1.764,2873.6889786999964,,,,,514,18,Woman,Right,
,,,,,,,,,,,,,,,,,514,18,Woman,Right,5,40,0.4,1,0,-,0,0.25991159999830415,['n'],1.267340200000035,1.966,2877.988823499996,,,,,514,18,Woman,Right,
,,,,,,,,,,,,,,,,,514,18,Woman,Right,5,16,0.4,1,0,-,0,0.31307640000159154,['n'],1.3075795999975526,1.826,2882.022050200001,,,,,514,18,Woman,Right,
,,,,,,,,,,,,,,,,,514,18,Woman,Right,5,70,0.15,1,180,-,180,0.3305785999982618,['y'],1.1328247999990708,1.0,2886.7886673999965,,,,,514,18,Woman,Right,
,,,,,,,,,,,,,,,,,514,18,Woman,Right,5,11,0.4,2,180,0,0,0.3724861000009696,['y'],0.49298389999603387,1.84,2890.054827299995,,,,,514,18,Woman,Right,
,,,,,,,,,,,,,,,,,514,18,Woman,Right,5,27,0.4,2,180,0,0,0.24254089999885764,['y'],0.38881369999580784,1.786,2892.887909899997,,,,,514,18,Woman,Right,
,,,,,,,,,,,,,,,,,514,18,Woman,Right,5,33,0.4,2,0,180,180,0.7212662000019918,['y'],0.5018928999998025,1.786,2896.5545052000016,,,,,514,18,Woman,Right,
,,,,,,,,,,,,,,,,,514,18,Woman,Right,5,13,0.4,2,0,180,180,0.3572093999973731,['y'],0.7026197000013781,1.786,2900.2710538999963,,,,,514,18,Woman,Right,
,,,,,,,,,,,,,,,,,514,18,Woman,Right,5,3,1,2,180,0,0,0.3055171000014525,['y'],0.6228466000029584,1.786,2903.6710966999963,,,,,514,18,Woman,Right,
,,,,,,,,,,,,,,,,,514,18,Woman,Right,5,6,1,1,180,-,180,0.8815254000001005,['n'],1.1436725000021397,1.928,2908.587674999995,,,,,514,18,Woman,Right,
,,,,,,,,,,,,,,,,,514,18,Woman,Right,5,78,0.15,1,180,-,0,1.7086255999965942,['n'],0.7759166000032565,1.274,2913.9543634,,,,,514,18,Woman,Right,
,,,,,,,,,,,,,,,,,,,,,,,,,,,,,,,,,91.25,77.5,92.5,2598.3869723000025,,,,,
