p_block,p_section,p_coherence,p_direction1,p_direction2,p_direction_response,p_direction_RT,p_change_response,p_change_RT,p_confidence,p_full_correct,p_without5_correct,p_full_total,p_without5_total,p_full_avg,p_witout5_avg,p_total_time,sub,age,sex,handedness,loop,trial randomization,coherence,condition,direction1,direction2,direction_response,direction_RT,change_response,change_RT,change_confidence,change_confidence_RT,block_direction_avg,block_stable_avg,block_change_avg,total_time,sub,age,sex,handedness,
1,1,1.0,180,-,180,1.4040243999997983,-,-,-,,,,,,,,570,18,Man,Right,,,,,,,,,,,,,,,,,570,18,Man,Right,
1,1,1.0,180,-,180,0.3099742000003971,-,-,-,,,,,,,,570,18,Man,Right,,,,,,,,,,,,,,,,,570,18,Man,Right,
1,1,1.0,0,-,0,0.37203169999975216,-,-,-,,,,,,,,570,18,Man,Right,,,,,,,,,,,,,,,,,570,18,Man,Right,
1,1,1.0,180,-,180,0.5991436999993311,-,-,-,,,,,,,,570,18,Man,Right,,,,,,,,,,,,,,,,,570,18,Man,Right,
1,1,1.0,180,-,180,1.1293499999992491,-,-,-,,,,,,,,570,18,Man,Right,,,,,,,,,,,,,,,,,570,18,Man,Right,
1,1,1.0,0,-,0,0.43864099999973405,-,-,-,,,,,,,,570,18,Man,Right,,,,,,,,,,,,,,,,,570,18,Man,Right,
1,1,1.0,180,-,180,0.4235032000005958,-,-,-,,,,,,,,570,18,Man,Right,,,,,,,,,,,,,,,,,570,18,Man,Right,
1,1,1.0,0,-,0,0.2963638000001083,-,-,-,,,,,,,,570,18,Man,Right,,,,,,,,,,,,,,,,,570,18,Man,Right,
1,1,1.0,0,-,0,0.3195434999997815,-,-,-,,,,,,,,570,18,Man,Right,,,,,,,,,,,,,,,,,570,18,Man,Right,
1,1,1.0,0,-,0,0.38069480000012845,-,-,-,10,10,10,10,1.0,1.0,,570,18,Man,Right,,,,,,,,,,,,,,,,,570,18,Man,Right,
2,1,0.4,180,-,180,0.6413026999998692,-,-,-,,,,,,,,570,18,Man,Right,,,,,,,,,,,,,,,,,570,18,Man,Right,
2,1,0.4,0,-,0,0.3939060000002428,-,-,-,,,,,,,,570,18,Man,Right,,,,,,,,,,,,,,,,,570,18,Man,Right,
2,1,0.15,0,-,180,0.5325570000004518,-,-,-,,,,,,,,570,18,Man,Right,,,,,,,,,,,,,,,,,570,18,Man,Right,
2,1,0.4,0,-,0,0.29720739999993384,-,-,-,,,,,,,,570,18,Man,Right,,,,,,,,,,,,,,,,,570,18,Man,Right,
2,1,0.15,180,-,180,0.2959286000004795,-,-,-,,,,,,,,570,18,Man,Right,,,,,,,,,,,,,,,,,570,18,Man,Right,
2,1,0.15,0,-,180,0.36643389999971987,-,-,-,,,,,,,,570,18,Man,Right,,,,,,,,,,,,,,,,,570,18,Man,Right,
2,1,0.15,0,-,0,0.3619032000005973,-,-,-,,,,,,,,570,18,Man,Right,,,,,,,,,,,,,,,,,570,18,Man,Right,
2,1,0.15,0,-,0,0.31783939999968425,-,-,-,,,,,,,,570,18,Man,Right,,,,,,,,,,,,,,,,,570,18,Man,Right,
2,1,0.4,180,-,180,0.31513280000035593,-,-,-,,,,,,,,570,18,Man,Right,,,,,,,,,,,,,,,,,570,18,Man,Right,
2,1,0.15,0,-,0,0.45652530000006664,-,-,-,8,4,10,4,0.8,1.0,,570,18,Man,Right,,,,,,,,,,,,,,,,,570,18,Man,Right,
3,2,1.0,180,0,0,2.5366839999996955,['y'],4.173042599999462,2,,,,,,,,570,18,Man,Right,,,,,,,,,,,,,,,,,570,18,Man,Right,
3,2,1.0,0,180,180,0.8004974999994374,['y'],0.5620205999994141,1.956,,,,,,,,570,18,Man,Right,,,,,,,,,,,,,,,,,570,18,Man,Right,
3,2,1.0,0,180,180,0.8107137999995757,['y'],0.46807689999968716,1.934,,,,,,,,570,18,Man,Right,,,,,,,,,,,,,,,,,570,18,Man,Right,
3,2,1.0,0,180,180,0.6131652999993094,['y'],0.2789647999998124,1.94,,,,,,,,570,18,Man,Right,,,,,,,,,,,,,,,,,570,18,Man,Right,
3,2,1.0,0,180,180,0.3971630999994886,['y'],0.8153101999996579,1.884,,,,,,,,570,18,Man,Right,,,,,,,,,,,,,,,,,570,18,Man,Right,
3,2,1.0,0,180,180,0.43470439999964583,['y'],0.5142220999996425,1.966,,,,,,,,570,18,Man,Right,,,,,,,,,,,,,,,,,570,18,Man,Right,
3,2,1.0,180,0,0,0.4218651000001046,['y'],0.2549706999998307,1.964,,,,,,,,570,18,Man,Right,,,,,,,,,,,,,,,,,570,18,Man,Right,
3,2,1.0,0,180,180,0.2649552999992011,['y'],0.8403047000001607,1.904,,,,,,,,570,18,Man,Right,,,,,,,,,,,,,,,,,570,18,Man,Right,
3,2,1.0,180,0,0,1.245904899999914,['y'],2.6541220999997677,1.956,,,,,,,,570,18,Man,Right,,,,,,,,,,,,,,,,,570,18,Man,Right,
3,2,1.0,180,0,0,0.430970299999899,['y'],0.263924699999734,1.932,10,10,10,10,1.0,1.0,,570,18,Man,Right,,,,,,,,,,,,,,,,,570,18,Man,Right,
4,2,0.4,180,0,0,0.5057104000006802,['y'],0.5918134000003192,1.938,,,,,,,,570,18,Man,Right,,,,,,,,,,,,,,,,,570,18,Man,Right,
4,2,0.15,180,0,0,0.7077288000000408,['n'],1.3930634000007558,1.5939999999999999,,,,,,,,570,18,Man,Right,,,,,,,,,,,,,,,,,570,18,Man,Right,
4,2,0.4,180,0,0,0.42771730000004027,['y'],0.277447100000245,1.688,,,,,,,,570,18,Man,Right,,,,,,,,,,,,,,,,,570,18,Man,Right,
4,2,0.4,0,180,180,0.36676189999980124,['y'],0.24837999999999738,1.8479999999999999,,,,,,,,570,18,Man,Right,,,,,,,,,,,,,,,,,570,18,Man,Right,
4,2,0.4,0,180,180,0.31586020000031567,['y'],0.8896038000002591,1.75,,,,,,,,570,18,Man,Right,,,,,,,,,,,,,,,,,570,18,Man,Right,
4,2,0.4,180,0,0,0.23154350000004342,['y'],1.0154945000003863,1.858,,,,,,,,570,18,Man,Right,,,,,,,,,,,,,,,,,570,18,Man,Right,
4,2,0.4,180,0,0,0.27604950000022654,['y'],1.0751662999991822,1.724,,,,,,,,570,18,Man,Right,,,,,,,,,,,,,,,,,570,18,Man,Right,
4,2,0.4,180,0,0,0.6715549000000465,['y'],0.7109263000002102,1.854,,,,,,,,570,18,Man,Right,,,,,,,,,,,,,,,,,570,18,Man,Right,
4,2,0.4,0,180,180,0.279062999999951,['y'],0.42155129999991914,1.78,,,,,,,,570,18,Man,Right,,,,,,,,,,,,,,,,,570,18,Man,Right,
4,2,0.4,0,180,180,0.5538501000000906,['y'],0.2862522000004901,1.8980000000000001,10,9,10,9,1.0,1.0,,570,18,Man,Right,,,,,,,,,,,,,,,,,570,18,Man,Right,
5,3,0.15,180,-,0,3.6075415000004796,['n'],1.2561808000000383,1.752,,,,,,,,570,18,Man,Right,,,,,,,,,,,,,,,,,570,18,Man,Right,
5,3,0.4,0,-,180,0.3202473999999711,['n'],1.6781135999999606,1.672,,,,,,,,570,18,Man,Right,,,,,,,,,,,,,,,,,570,18,Man,Right,
5,3,0.4,0,180,180,0.3119437999994261,['y'],3.6053117999999813,1.764,,,,,,,,570,18,Man,Right,,,,,,,,,,,,,,,,,570,18,Man,Right,
5,3,1.0,180,-,180,0.7621090999991793,['n'],1.4548147000004974,1.82,,,,,,,,570,18,Man,Right,,,,,,,,,,,,,,,,,570,18,Man,Right,
5,3,1.0,180,0,0,0.2735662000004595,['y'],0.5606692999999723,1.702,,,,,,,,570,18,Man,Right,,,,,,,,,,,,,,,,,570,18,Man,Right,
5,3,0.15,0,180,180,0.3634511999998722,['y'],0.2388079000002108,1.766,,,,,,,,570,18,Man,Right,,,,,,,,,,,,,,,,,570,18,Man,Right,
5,3,1.0,0,180,180,0.26615789999959816,['y'],0.88873650000005,1.716,,,,,,,,570,18,Man,Right,,,,,,,,,,,,,,,,,570,18,Man,Right,
5,3,0.15,180,-,0,1.2708397000005789,['n'],2.469157399999858,1.678,,,,,,,,570,18,Man,Right,,,,,,,,,,,,,,,,,570,18,Man,Right,
5,3,1.0,0,-,0,0.5908412999997381,['n'],0.28910930000074586,1.696,,,,,,,,570,18,Man,Right,,,,,,,,,,,,,,,,,570,18,Man,Right,
5,3,0.15,180,0,0,1.881485199999588,['y'],1.4964386000001468,1.8940000000000001,7,5,10,6,0.7,0.8333333333333334,,570,18,Man,Right,,,,,,,,,,,,,,,,,570,18,Man,Right,
,,,,,,,,,,,,,,,,5.4000001910026185e-06,570,18,Man,Right,,,,,,,,,,,,,,,,,570,18,Man,Right,
,,,,,,,,,,,,,,,,,570,18,Man,Right,0,76,0.15,1,0,-,0,2.5520751000003656,['n'],2.9909686999999394,1.6219999999999999,280.79912950000016,,,,,570,18,Man,Right,
,,,,,,,,,,,,,,,,,570,18,Man,Right,0,46,0.15,1,180,-,0,2.597902399999839,['n'],1.1512307000002693,1.662,288.74910249999994,,,,,570,18,Man,Right,
,,,,,,,,,,,,,,,,,570,18,Man,Right,0,43,0.4,2,180,0,0,0.34938990000046033,['y'],1.478914100000111,1.684,293.4824311000002,,,,,570,18,Man,Right,
,,,,,,,,,,,,,,,,,570,18,Man,Right,0,20,0.4,1,0,-,0,2.0426102000001265,['n'],0.9190256000001682,1.678,299.4324030000007,,,,,570,18,Man,Right,
,,,,,,,,,,,,,,,,,570,18,Man,Right,0,27,0.4,2,180,0,0,0.31677770000078453,['y'],0.7347888999993302,1.6680000000000001,303.68245110000043,,,,,570,18,Man,Right,
,,,,,,,,,,,,,,,,,570,18,Man,Right,0,48,0.15,1,0,-,0,2.434062199999971,['n'],0.2469143999996959,1.658,309.8156876000003,,,,,570,18,Man,Right,
,,,,,,,,,,,,,,,,,570,18,Man,Right,0,54,0.15,1,180,-,180,0.8128028999999515,['y'],2.550526400000308,1.6219999999999999,315.9489237000007,,,,,570,18,Man,Right,
,,,,,,,,,,,,,,,,,570,18,Man,Right,0,52,0.15,1,0,-,0,0.8159235999992234,['n'],0.7503138000001854,1.68,320.08227630000056,,,,,570,18,Man,Right,
,,,,,,,,,,,,,,,,,570,18,Man,Right,0,51,0.15,2,180,0,0,1.662586999999803,['n'],1.0788942999997744,1.6400000000000001,325.3823540000003,,,,,570,18,Man,Right,
,,,,,,,,,,,,,,,,,570,18,Man,Right,0,22,0.4,1,180,-,180,1.6286497999999483,['n'],0.9749198999998043,1.688,331.1822544000006,,,,,570,18,Man,Right,
,,,,,,,,,,,,,,,,,570,18,Man,Right,0,16,0.4,1,0,-,0,0.9034460000002582,['y'],0.7587270999993052,1.672,335.4656208000006,,,,,570,18,Man,Right,
,,,,,,,,,,,,,,,,,570,18,Man,Right,0,14,0.4,1,180,-,0,1.8878500999999233,['n'],2.055561099999977,1.666,341.9655822000004,,,,,570,18,Man,Right,
,,,,,,,,,,,,,,,,,570,18,Man,Right,0,69,0.15,2,0,180,180,0.37797630000022764,['y'],0.6548345999999583,1.768,345.7821962000007,,,,,570,18,Man,Right,
,,,,,,,,,,,,,,,,,570,18,Man,Right,0,72,0.15,1,0,-,180,0.8041484000004857,['n'],1.9512676000003921,1.612,351.1655687000002,,,,,570,18,Man,Right,
,,,,,,,,,,,,,,,,,570,18,Man,Right,0,59,0.15,2,180,0,180,0.8059683000001314,['n'],1.502855400000044,1.6400000000000001,356.7488979,,,,,570,18,Man,Right,
,,,,,,,,,,,,,,,,,570,18,Man,Right,0,36,0.4,1,0,-,0,2.867036000000553,['n'],1.1606203000001187,1.63,363.36552930000016,,,,,570,18,Man,Right,
,,,,,,,,,,,,,,,,,570,18,Man,Right,0,78,0.15,1,180,-,180,1.5505928000002314,['n'],1.6548578000001726,1.672,369.06543630000033,,,,,570,18,Man,Right,
,,,,,,,,,,,,,,,,,570,18,Man,Right,0,25,0.4,2,0,180,180,0.5526761999999508,['y'],0.9428563000001304,1.634,373.21544919999997,,,,,570,18,Man,Right,
,,,,,,,,,,,,,,,,,570,18,Man,Right,0,67,0.15,2,180,0,180,2.6359167999999045,['n'],0.7027993000001516,1.662,378.9988407000001,,,,,570,18,Man,Right,
,,,,,,,,,,,,,,,,,570,18,Man,Right,0,15,0.4,2,180,0,0,1.6437292999999045,['y'],0.67097399999966,1.744,383.98211620000075,,,,,570,18,Man,Right,
,,,,,,,,,,,,,,,,,570,18,Man,Right,0,68,0.15,1,0,-,180,1.5378974000004746,['n'],2.958949500000017,1.6019999999999999,392.0987055000005,,,,,570,18,Man,Right,
,,,,,,,,,,,,,,,,,570,18,Man,Right,0,45,0.15,2,0,180,180,1.0242621999996118,['n'],0.7348924999996598,1.616,396.3987205000003,,,,,570,18,Man,Right,
,,,,,,,,,,,,,,,,,570,18,Man,Right,0,64,0.15,1,0,-,180,2.3611798000001727,['n'],2.502959099999316,1.642,403.7320808000004,,,,,570,18,Man,Right,
,,,,,,,,,,,,,,,,,570,18,Man,Right,0,3,1,2,180,0,0,2.3123185000004014,['y'],0.7665894000001572,1.754,409.74869750000016,,,,,570,18,Man,Right,
,,,,,,,,,,,,,,,,,570,18,Man,Right,0,0,1,1,0,-,180,0.6027547000003324,['n'],0.7346980000002077,1.638,413.64865980000013,,,,,570,18,Man,Right,
,,,,,,,,,,,,,,,,,570,18,Man,Right,0,41,0.4,2,0,180,180,1.0504640999997719,['y'],0.6149697999999262,1.84,418.0153663000001,,,,,570,18,Man,Right,
,,,,,,,,,,,,,,,,,570,18,Man,Right,0,4,1,1,0,-,180,1.3725324000006367,['y'],0.6789029000001392,1.804,422.5653647000008,,,,,570,18,Man,Right,
,,,,,,,,,,,,,,,,,570,18,Man,Right,0,62,0.15,1,180,-,0,0.9484526000005644,['n'],0.7509498999997959,1.758,426.74860570000055,,,,,570,18,Man,Right,
,,,,,,,,,,,,,,,,,570,18,Man,Right,0,49,0.15,2,0,180,180,0.7817467000004399,['n'],0.8711065000006784,1.716,430.9486829000007,,,,,570,18,Man,Right,
,,,,,,,,,,,,,,,,,570,18,Man,Right,0,18,0.4,1,180,-,0,0.7083724000003713,['n'],3.5750125999993543,1.718,438.01572080000005,,,,,570,18,Man,Right,
,,,,,,,,,,,,,,,,,570,18,Man,Right,0,28,0.4,1,0,-,180,1.4169184000002133,['y'],1.7894320999994306,1.75,443.8152512000006,,,,,570,18,Man,Right,
,,,,,,,,,,,,,,,,,570,18,Man,Right,0,44,0.15,1,0,-,0,0.9657644999997501,['n'],0.6627426000004562,1.6640000000000001,447.7485688000006,,,,,570,18,Man,Right,
,,,,,,,,,,,,,,,,,570,18,Man,Right,0,79,0.15,2,180,0,180,0.7887383999996018,['n'],1.2226499999997031,1.626,452.2486120000003,,,,,570,18,Man,Right,
,,,,,,,,,,,,,,,,,570,18,Man,Right,0,66,0.15,1,180,-,0,2.4085132999998677,['n'],3.2228531999999177,1.63,460.3318394000007,,,,,570,18,Man,Right,
,,,,,,,,,,,,,,,,,570,18,Man,Right,0,30,0.4,1,180,-,180,1.4784780999998475,['n'],3.2388074000000415,1.642,467.59859010000037,,,,,570,18,Man,Right,
,,,,,,,,,,,,,,,,,570,18,Man,Right,0,53,0.15,2,0,180,180,1.115864800000054,['n'],0.6868771999997989,1.65,471.94845350000014,,,,,570,18,Man,Right,
,,,,,,,,,,,,,,,,,570,18,Man,Right,0,24,0.4,1,0,-,0,0.7336713999993663,['n'],0.7509878000000754,1.6219999999999999,475.8484649000002,,,,,570,18,Man,Right,
,,,,,,,,,,,,,,,,,570,18,Man,Right,0,11,0.4,2,180,0,0,2.6817709999995714,['y'],0.7349377999998978,1.672,481.69841240000005,,,,,570,18,Man,Right,
,,,,,,,,,,,,,,,,,570,18,Man,Right,0,7,1,2,180,0,0,2.2073135000000548,['y'],1.294687800000247,1.834,487.93183769999996,,,,,570,18,Man,Right,
,,,,,,,,,,,,,,,,,570,18,Man,Right,0,23,0.4,2,180,0,0,2.693156199999976,['y'],0.6228343000002496,1.692,493.7817696000002,,,,,570,18,Man,Right,
,,,,,,,,,,,,,,,,,570,18,Man,Right,0,40,0.4,1,0,-,0,2.5171355000002222,['n'],1.014949099999285,1.6219999999999999,499.69837950000056,,,,,570,18,Man,Right,
,,,,,,,,,,,,,,,,,570,18,Man,Right,0,65,0.15,2,0,180,180,0.7173172000002523,['n'],0.9775114000003668,1.6600000000000001,503.71505400000024,,,,,570,18,Man,Right,
,,,,,,,,,,,,,,,,,570,18,Man,Right,0,5,1,2,0,180,180,1.2456573000008575,['y'],0.5750692000001436,1.828,507.9650397000005,,,,,570,18,Man,Right,
,,,,,,,,,,,,,,,,,570,18,Man,Right,0,13,0.4,2,0,180,180,1.1730053999999654,['y'],0.5992350000005899,1.742,511.96523700000034,,,,,570,18,Man,Right,
,,,,,,,,,,,,,,,,,570,18,Man,Right,0,39,0.4,2,180,0,0,1.548627199999828,['y'],0.5667180999998891,1.818,516.3150474000004,,,,,570,18,Man,Right,
,,,,,,,,,,,,,,,,,570,18,Man,Right,0,1,1,2,0,180,180,0.840313800000331,['y'],0.5827641000005315,1.74,520.3483393000006,,,,,570,18,Man,Right,
,,,,,,,,,,,,,,,,,570,18,Man,Right,0,8,0.4,1,0,-,180,1.9656987999997,['y'],0.55090730000029,1.678,525.0983016,,,,,570,18,Man,Right,
,,,,,,,,,,,,,,,,,570,18,Man,Right,0,35,0.4,2,180,0,0,0.5828504999999495,['y'],1.3829998999999589,1.736,529.2815852000003,,,,,570,18,Man,Right,
,,,,,,,,,,,,,,,,,570,18,Man,Right,0,42,0.4,1,180,-,0,1.9430954999997994,['y'],3.423307200000636,1.6680000000000001,536.8482677000002,,,,,570,18,Man,Right,
,,,,,,,,,,,,,,,,,570,18,Man,Right,0,58,0.15,1,180,-,0,1.9751830999994127,['n'],1.2227751999998873,1.6219999999999999,542.4483253000008,,,,,570,18,Man,Right,
,,,,,,,,,,,,,,,,,570,18,Man,Right,0,32,0.4,1,0,-,180,0.6796518999999535,['n'],1.0790084000000206,1.75,547.3481922000001,,,,,570,18,Man,Right,
,,,,,,,,,,,,,,,,,570,18,Man,Right,0,55,0.15,2,180,0,180,1.7891722000003938,['n'],0.7668734999997469,1.588,553.0481341000004,,,,,570,18,Man,Right,
,,,,,,,,,,,,,,,,,570,18,Man,Right,0,60,0.15,1,0,-,180,1.0204441000005318,['n'],0.7828134999999747,1.62,557.4147843000001,,,,,570,18,Man,Right,
,,,,,,,,,,,,,,,,,570,18,Man,Right,0,73,0.15,2,0,180,180,0.6744608000008157,['n'],0.6786625999993703,1.626,561.1482086000005,,,,,570,18,Man,Right,
,,,,,,,,,,,,,,,,,570,18,Man,Right,0,2,1,1,180,-,180,0.6143640000000232,['n'],0.7828362000000197,1.662,565.5982508000006,,,,,570,18,Man,Right,
,,,,,,,,,,,,,,,,,570,18,Man,Right,0,63,0.15,2,180,0,180,1.581151499999578,['n'],0.8067227000001367,1.654,570.3815433,,,,,570,18,Man,Right,
,,,,,,,,,,,,,,,,,570,18,Man,Right,0,9,0.4,2,0,180,180,0.7970303000001877,['n'],0.5828621000000567,1.684,574.3981076,,,,,570,18,Man,Right,
,,,,,,,,,,,,,,,,,570,18,Man,Right,0,75,0.15,2,180,0,180,0.6695974999993268,['n'],0.6469544000001406,1.6320000000000001,577.8814698000006,,,,,570,18,Man,Right,
,,,,,,,,,,,,,,,,,570,18,Man,Right,0,17,0.4,2,0,180,180,0.9995756999996956,['n'],0.3349349000000075,1.612,581.4981217000004,,,,,570,18,Man,Right,
,,,,,,,,,,,,,,,,,570,18,Man,Right,0,37,0.4,2,0,180,180,1.4736543999997593,['y'],0.6312467999996443,1.688,586.014709,,,,,570,18,Man,Right,
,,,,,,,,,,,,,,,,,570,18,Man,Right,0,29,0.4,2,0,180,180,1.4131882000001497,['y'],0.5266725999999835,1.626,590.0814239000001,,,,,570,18,Man,Right,
,,,,,,,,,,,,,,,,,570,18,Man,Right,0,31,0.4,2,180,0,0,1.2378598000004786,['y'],1.0468130999997811,1.646,594.6314792000003,,,,,570,18,Man,Right,
,,,,,,,,,,,,,,,,,570,18,Man,Right,0,71,0.15,2,180,0,0,1.139651500000582,['y'],0.9186544999993203,1.682,599.4980732000004,,,,,570,18,Man,Right,
,,,,,,,,,,,,,,,,,570,18,Man,Right,0,61,0.15,2,0,180,180,1.3129776999994647,['n'],0.7109270000000834,1.638,603.9147079000004,,,,,570,18,Man,Right,
,,,,,,,,,,,,,,,,,570,18,Man,Right,0,70,0.15,1,180,-,180,1.388987299999826,['n'],1.0149688999999853,1.6280000000000001,608.497961,,,,,570,18,Man,Right,
,,,,,,,,,,,,,,,,,570,18,Man,Right,0,47,0.15,2,180,0,180,0.7310020999993867,['y'],0.7908844000003228,1.1099999999999999,613.8981091000005,,,,,570,18,Man,Right,
,,,,,,,,,,,,,,,,,570,18,Man,Right,0,57,0.15,2,0,180,180,0.9235496000001149,['n'],0.710792500000025,1.6019999999999999,620.3146282000007,,,,,570,18,Man,Right,
,,,,,,,,,,,,,,,,,570,18,Man,Right,0,26,0.4,1,180,-,180,0.6669777999995858,['n'],1.3856787999993685,1.62,624.7979761000006,,,,,570,18,Man,Right,
,,,,,,,,,,,,,,,,,570,18,Man,Right,0,50,0.15,1,180,-,180,2.9220304000000397,['n'],0.7826900999998543,1.672,630.7979180000002,,,,,570,18,Man,Right,
,,,,,,,,,,,,,,,,,570,18,Man,Right,0,56,0.15,1,0,-,180,0.9940905000003113,['n'],0.6868386000005557,1.608,634.7479486000002,,,,,570,18,Man,Right,
,,,,,,,,,,,,,,,,,570,18,Man,Right,0,10,0.4,1,180,-,180,1.2211293000000296,['n'],1.0947648000001209,1.616,639.2145537000006,,,,,570,18,Man,Right,
,,,,,,,,,,,,,,,,,570,18,Man,Right,0,77,0.15,2,0,180,180,1.0110947000002852,['n'],0.9586902999999438,1.686,643.3812674000001,,,,,570,18,Man,Right,
,,,,,,,,,,,,,,,,,570,18,Man,Right,0,12,0.4,1,0,-,0,1.183575699999892,['n'],0.6682940000000599,1.5859999999999999,647.3479076000003,,,,,570,18,Man,Right,
,,,,,,,,,,,,,,,,,570,18,Man,Right,0,34,0.4,1,180,-,180,0.6195919000001595,['n'],0.9349111000001358,1.6280000000000001,651.4478445000004,,,,,570,18,Man,Right,
,,,,,,,,,,,,,,,,,570,18,Man,Right,0,19,0.4,2,180,0,180,0.8730169999998907,['n'],0.694785800000318,1.6099999999999999,655.4812190000002,,,,,570,18,Man,Right,
,,,,,,,,,,,,,,,,,570,18,Man,Right,0,33,0.4,2,0,180,180,0.9434877000003326,['n'],0.5749440999998114,1.548,660.4478401000006,,,,,570,18,Man,Right,
,,,,,,,,,,,,,,,,,570,18,Man,Right,0,38,0.4,1,180,-,180,0.7872926000000007,['n'],0.6544344000003548,1.548,660.4478401000006,,,,,570,18,Man,Right,
,,,,,,,,,,,,,,,,,570,18,Man,Right,0,21,0.4,2,0,180,180,1.3842190000004848,['n'],0.31926690000000235,1.5979999999999999,668.2476820000002,,,,,570,18,Man,Right,
,,,,,,,,,,,,,,,,,570,18,Man,Right,0,74,0.15,1,180,-,180,0.5942870999997467,['n'],1.358876500000406,1.782,672.4811006,,,,,570,18,Man,Right,
,,,,,,,,,,,,,,,,,570,18,Man,Right,0,6,1,1,180,-,180,0.7769631000001027,['n'],1.1347963999996864,1.6480000000000001,676.8476880000007,,,,,570,18,Man,Right,
,,,,,,,,,,,,,,,,,570,18,Man,Right,1,76,0.15,1,0,-,180,2.5481378999993467,['n'],0.8789214999997057,1.616,720.7977200000005,68.75,85.0,50.0,,570,18,Man,Right,
,,,,,,,,,,,,,,,,,570,18,Man,Right,1,72,0.15,1,0,-,180,0.9031384999998409,['n'],0.8146863000001758,1.6059999999999999,724.9143374000005,,,,,570,18,Man,Right,
,,,,,,,,,,,,,,,,,570,18,Man,Right,1,36,0.4,1,0,-,0,0.6262423999996827,['n'],0.6548588999994536,1.5739999999999998,728.8475850000004,,,,,570,18,Man,Right,
,,,,,,,,,,,,,,,,,570,18,Man,Right,1,41,0.4,2,0,180,180,0.6587858999992022,['y'],0.5988907999999356,1.642,732.2308512,,,,,570,18,Man,Right,
,,,,,,,,,,,,,,,,,570,18,Man,Right,1,31,0.4,2,180,0,0,0.8974817999996958,['y'],0.5669169000002512,1.634,735.8474376000004,,,,,570,18,Man,Right,
,,,,,,,,,,,,,,,,,570,18,Man,Right,1,67,0.15,2,180,0,180,0.9683478999995714,['n'],0.4786853000005067,1.624,739.4310846000008,,,,,570,18,Man,Right,
,,,,,,,,,,,,,,,,,570,18,Man,Right,1,2,1,1,180,-,0,0.7041709999994055,['n'],0.9589237999998659,1.5739999999999998,743.2142573000001,,,,,570,18,Man,Right,
,,,,,,,,,,,,,,,,,570,18,Man,Right,1,11,0.4,2,180,0,0,0.762424600000486,['y'],0.4782979000001433,1.5819999999999999,746.6642072000004,,,,,570,18,Man,Right,
,,,,,,,,,,,,,,,,,570,18,Man,Right,1,53,0.15,2,0,180,180,0.7433012000001327,['n'],0.6150403000001461,1.5819999999999999,750.1809534000004,,,,,570,18,Man,Right,
,,,,,,,,,,,,,,,,,570,18,Man,Right,1,35,0.4,2,180,0,0,1.036866800000098,['y'],0.5108848999998372,1.734,754.3974991000005,,,,,570,18,Man,Right,
,,,,,,,,,,,,,,,,,570,18,Man,Right,1,47,0.15,2,180,0,180,0.63611469999978,['y'],0.6868641999999454,1.032,760.0141632000004,,,,,570,18,Man,Right,
,,,,,,,,,,,,,,,,,570,18,Man,Right,1,1,1,2,0,180,180,0.7315701999996236,['y'],0.5668639000004987,1.916,764.4474748000002,,,,,570,18,Man,Right,
,,,,,,,,,,,,,,,,,570,18,Man,Right,1,39,0.4,2,180,0,0,0.6256941000001461,['y'],0.5507677999994485,1.904,767.8307373000007,,,,,570,18,Man,Right,
,,,,,,,,,,,,,,,,,570,18,Man,Right,1,19,0.4,2,180,0,0,0.5134751000005053,['y'],0.48686300000008487,1.888,772.1974339000008,,,,,570,18,Man,Right,
,,,,,,,,,,,,,,,,,570,18,Man,Right,1,10,0.4,1,180,-,180,0.4846462999994401,['y'],1.2950160000000324,1.568,776.2306987000002,,,,,570,18,Man,Right,
,,,,,,,,,,,,,,,,,570,18,Man,Right,1,65,0.15,2,0,180,180,1.2421666999998706,['n'],1.8628582000001188,1.616,781.4974088000008,,,,,570,18,Man,Right,
,,,,,,,,,,,,,,,,,570,18,Man,Right,1,64,0.15,1,0,-,180,0.9359989000004134,['n'],0.39081199999964156,1.666,785.0306894000005,,,,,570,18,Man,Right,
,,,,,,,,,,,,,,,,,570,18,Man,Right,1,12,0.4,1,0,-,0,1.2358950000007098,['n'],0.5588158000000476,1.546,789.0140069000008,,,,,570,18,Man,Right,
,,,,,,,,,,,,,,,,,570,18,Man,Right,1,63,0.15,2,180,0,0,0.7146834999994098,['n'],0.43093920000046637,1.69,792.4807265,,,,,570,18,Man,Right,
,,,,,,,,,,,,,,,,,570,18,Man,Right,1,32,0.4,1,0,-,180,2.766915700000027,['y'],0.5426412999995591,1.674,798.5140171000003,,,,,570,18,Man,Right,
,,,,,,,,,,,,,,,,,570,18,Man,Right,1,0,1,1,0,-,0,2.3502166999996916,['n'],0.4174398999994082,1.6560000000000001,803.3973257000007,,,,,570,18,Man,Right,
,,,,,,,,,,,,,,,,,570,18,Man,Right,1,66,0.15,1,180,-,0,0.9732266000000891,['n'],0.3984573999996428,1.6560000000000001,803.3973257000007,,,,,570,18,Man,Right,
,,,,,,,,,,,,,,,,,570,18,Man,Right,1,17,0.4,2,0,180,180,0.9367020999998203,['y'],0.7030169999998179,1.5899999999999999,811.0471976000008,,,,,570,18,Man,Right,
,,,,,,,,,,,,,,,,,570,18,Man,Right,1,38,0.4,1,180,-,0,1.7074665000000095,['n'],0.7188664000004792,1.5739999999999998,815.6139392000005,,,,,570,18,Man,Right,
,,,,,,,,,,,,,,,,,570,18,Man,Right,1,48,0.15,1,0,-,180,0.802364299999681,['n'],0.2950957000002745,1.6280000000000001,818.9139215000005,,,,,570,18,Man,Right,
,,,,,,,,,,,,,,,,,570,18,Man,Right,1,49,0.15,2,0,180,0,1.1754504000000452,['n'],0.33491739999954007,1.642,822.6306171000006,,,,,570,18,Man,Right,
,,,,,,,,,,,,,,,,,570,18,Man,Right,1,18,0.4,1,180,-,180,1.1001805999994758,['n'],0.9741399999993519,1.638,826.9139287000007,,,,,570,18,Man,Right,
,,,,,,,,,,,,,,,,,570,18,Man,Right,1,9,0.4,2,0,180,0,1.8817901000002166,['n'],0.3985183999993751,1.616,831.2305722000001,,,,,570,18,Man,Right,
,,,,,,,,,,,,,,,,,570,18,Man,Right,1,22,0.4,1,180,-,180,0.5541992999997092,['y'],0.6388194000001022,1.19,836.4137967000006,,,,,570,18,Man,Right,
,,,,,,,,,,,,,,,,,570,18,Man,Right,1,44,0.15,1,0,-,180,0.7408067000005758,['n'],0.5748684999998659,1.544,840.1138858000004,,,,,570,18,Man,Right,
,,,,,,,,,,,,,,,,,570,18,Man,Right,1,78,0.15,1,180,-,180,0.6554462000003696,['n'],3.710928700000295,1.564,847.1305779000004,,,,,570,18,Man,Right,
,,,,,,,,,,,,,,,,,570,18,Man,Right,1,3,1,2,180,0,0,0.25683719999960886,['y'],0.5588056000005963,1.6440000000000001,850.0971645,,,,,570,18,Man,Right,
,,,,,,,,,,,,,,,,,570,18,Man,Right,1,29,0.4,2,0,180,180,0.3283391000004485,['y'],0.4546119999995426,1.718,853.0471049000007,,,,,570,18,Man,Right,
,,,,,,,,,,,,,,,,,570,18,Man,Right,1,8,0.4,1,0,-,0,0.8174019999996744,['n'],0.7907706000005419,1.684,856.7971289000006,,,,,570,18,Man,Right,
,,,,,,,,,,,,,,,,,570,18,Man,Right,1,40,0.4,1,0,-,0,0.5883291000000099,['n'],0.7187253000001874,1.6320000000000001,860.1804195000004,,,,,570,18,Man,Right,
,,,,,,,,,,,,,,,,,570,18,Man,Right,1,54,0.15,1,180,-,180,0.34028219999981957,['n'],0.6226673000001028,1.6560000000000001,863.6140547000005,,,,,570,18,Man,Right,
,,,,,,,,,,,,,,,,,570,18,Man,Right,1,46,0.15,1,180,-,180,0.3874697000001106,['n'],0.42279359999974986,1.556,866.4971605000001,,,,,570,18,Man,Right,
,,,,,,,,,,,,,,,,,570,18,Man,Right,1,27,0.4,2,180,0,180,0.570853399999578,['n'],0.44665880000047764,1.5739999999999998,869.8137505000004,,,,,570,18,Man,Right,
,,,,,,,,,,,,,,,,,570,18,Man,Right,1,73,0.15,2,0,180,0,0.9841956000000209,['n'],0.246640500000467,1.5899999999999999,873.3303893000002,,,,,570,18,Man,Right,
,,,,,,,,,,,,,,,,,570,18,Man,Right,1,4,1,1,0,-,0,0.5271142000001419,['n'],0.2869543999995585,1.5819999999999999,878.3637840000001,,,,,570,18,Man,Right,
,,,,,,,,,,,,,,,,,570,18,Man,Right,1,71,0.15,2,180,0,180,0.3246387999997751,['n'],0.6629135000002861,1.6,881.8970873000007,,,,,570,18,Man,Right,
,,,,,,,,,,,,,,,,,570,18,Man,Right,1,77,0.15,2,0,180,180,0.3902191999995921,['n'],0.5507575999999972,1.55,885.1636748999999,,,,,570,18,Man,Right,
,,,,,,,,,,,,,,,,,570,18,Man,Right,1,62,0.15,1,180,-,180,0.45265050000034535,['n'],0.3188777999994272,1.6019999999999999,888.3470805000006,,,,,570,18,Man,Right,
,,,,,,,,,,,,,,,,,570,18,Man,Right,1,79,0.15,2,180,0,180,0.7682611999998699,['n'],0.46268659999986994,1.576,891.8470273000003,,,,,570,18,Man,Right,
,,,,,,,,,,,,,,,,,570,18,Man,Right,1,56,0.15,1,0,-,180,0.4511368000003131,['n'],0.3507889000002251,1.63,895.0470202000006,,,,,570,18,Man,Right,
,,,,,,,,,,,,,,,,,570,18,Man,Right,1,28,0.4,1,0,-,0,0.4356013999995412,['n'],1.0946926999995412,1.6280000000000001,898.7137127000005,,,,,570,18,Man,Right,
,,,,,,,,,,,,,,,,,570,18,Man,Right,1,14,0.4,1,180,-,0,0.5117456999996648,['n'],0.4793261999993774,1.5739999999999998,901.8137826000002,,,,,570,18,Man,Right,
,,,,,,,,,,,,,,,,,570,18,Man,Right,1,50,0.15,1,180,-,180,1.2084562000000005,['n'],2.375116799999887,1.544,907.9802930000005,,,,,570,18,Man,Right,
,,,,,,,,,,,,,,,,,570,18,Man,Right,1,75,0.15,2,180,0,0,1.0700341000001572,['n'],0.23077139999986684,1.596,911.4801606000001,,,,,570,18,Man,Right,
,,,,,,,,,,,,,,,,,570,18,Man,Right,1,23,0.4,2,180,0,180,0.9185525000002599,['n'],0.8308977999995477,1.42,915.7636193000008,,,,,570,18,Man,Right,
,,,,,,,,,,,,,,,,,570,18,Man,Right,1,52,0.15,1,0,-,180,0.5346384000004036,['n'],0.510910299999523,1.3639999999999999,919.2638269000008,,,,,570,18,Man,Right,
,,,,,,,,,,,,,,,,,570,18,Man,Right,1,74,0.15,1,180,-,180,1.72125589999996,['n'],0.42291040000054636,1.572,923.9968531000004,,,,,570,18,Man,Right,
,,,,,,,,,,,,,,,,,570,18,Man,Right,1,59,0.15,2,180,0,180,0.47738070000013977,['n'],0.5748512000000119,1.704,927.9469729000002,,,,,570,18,Man,Right,
,,,,,,,,,,,,,,,,,570,18,Man,Right,1,24,0.4,1,0,-,180,0.5812101999999868,['n'],0.9270839999999225,1.62,931.7302316000005,,,,,570,18,Man,Right,
,,,,,,,,,,,,,,,,,570,18,Man,Right,1,34,0.4,1,180,-,180,0.45599979999951756,['n'],0.5027823000000353,1.592,934.8468030000004,,,,,570,18,Man,Right,
,,,,,,,,,,,,,,,,,570,18,Man,Right,1,43,0.4,2,180,0,180,0.42998999999963416,['n'],0.3748384000000442,1.65,937.9469383000005,,,,,570,18,Man,Right,
,,,,,,,,,,,,,,,,,570,18,Man,Right,1,25,0.4,2,0,180,180,0.3115238999998837,['n'],0.3106500000003507,1.67,940.9135135000006,,,,,570,18,Man,Right,
,,,,,,,,,,,,,,,,,570,18,Man,Right,1,15,0.4,2,180,0,180,0.43996789999982866,['n'],0.30285339999954886,1.6560000000000001,943.8635515000005,,,,,570,18,Man,Right,
,,,,,,,,,,,,,,,,,570,18,Man,Right,1,26,0.4,1,180,-,180,0.8003371000004336,['n'],0.8058854000000792,1.686,947.8634941,,,,,570,18,Man,Right,
,,,,,,,,,,,,,,,,,570,18,Man,Right,1,7,1,2,180,0,0,1.0798077999997986,['y'],0.8548233000001346,1.972,953.0634968000004,,,,,570,18,Man,Right,
,,,,,,,,,,,,,,,,,570,18,Man,Right,1,68,0.15,1,0,-,0,1.0841025999998237,['n'],1.2388491000001522,1.682,957.7134539000008,,,,,570,18,Man,Right,
,,,,,,,,,,,,,,,,,570,18,Man,Right,1,70,0.15,1,180,-,180,0.3503017999992153,['y'],1.1382459999995262,1.0979999999999999,961.9967210000004,,,,,570,18,Man,Right,
,,,,,,,,,,,,,,,,,570,18,Man,Right,1,13,0.4,2,0,180,0,1.2052771999997276,['n'],0.9505988999999317,1.674,966.3972126000008,,,,,570,18,Man,Right,
,,,,,,,,,,,,,,,,,570,18,Man,Right,1,33,0.4,2,0,180,180,1.1819446999998036,['n'],2.358975900000587,1.72,972.2134113000002,,,,,570,18,Man,Right,
,,,,,,,,,,,,,,,,,570,18,Man,Right,1,61,0.15,2,0,180,180,0.33270400000037625,['n'],1.3512583000001541,1.738,976.0133634000003,,,,,570,18,Man,Right,
,,,,,,,,,,,,,,,,,570,18,Man,Right,1,51,0.15,2,180,0,180,0.3553422999993927,['n'],0.5667455000002519,1.686,979.1134498000001,,,,,570,18,Man,Right,
,,,,,,,,,,,,,,,,,570,18,Man,Right,1,5,1,2,0,180,180,0.37296779999996943,['y'],1.0709798999996565,1.836,982.9800726000003,,,,,570,18,Man,Right,
,,,,,,,,,,,,,,,,,570,18,Man,Right,1,6,1,1,180,-,180,0.5178788000002896,['n'],0.6869839000000866,1.836,982.9800726000003,,,,,570,18,Man,Right,
,,,,,,,,,,,,,,,,,570,18,Man,Right,1,55,0.15,2,180,0,180,0.32461349999994127,['n'],0.46262490000026446,1.696,989.1800187000008,,,,,570,18,Man,Right,
,,,,,,,,,,,,,,,,,570,18,Man,Right,1,20,0.4,1,0,-,0,0.4951713000000382,['n'],0.6149079000006168,1.704,992.4800565000005,,,,,570,18,Man,Right,
,,,,,,,,,,,,,,,,,570,18,Man,Right,1,58,0.15,1,180,-,180,0.36221759999989445,['n'],2.0866368999995757,1.68,997.1299432000005,,,,,570,18,Man,Right,
,,,,,,,,,,,,,,,,,570,18,Man,Right,1,37,0.4,2,0,180,0,0.4010127999999895,['n'],0.6070524999995541,1.6179999999999999,1000.2133811000003,,,,,570,18,Man,Right,
,,,,,,,,,,,,,,,,,570,18,Man,Right,1,45,0.15,2,0,180,180,0.29257810000035533,['n'],0.5108758999995189,1.638,1003.2968806000008,,,,,570,18,Man,Right,
,,,,,,,,,,,,,,,,,570,18,Man,Right,1,42,0.4,1,180,-,0,0.3744486000005054,['n'],0.6310183000005054,1.6,1006.5633379000001,,,,,570,18,Man,Right,
,,,,,,,,,,,,,,,,,570,18,Man,Right,1,69,0.15,2,0,180,180,0.325215500000013,['n'],0.42289329999948677,1.694,1009.4966277000003,,,,,570,18,Man,Right,
,,,,,,,,,,,,,,,,,570,18,Man,Right,1,57,0.15,2,0,180,0,0.35998990000007325,['n'],0.494694700000764,1.688,1012.5299377000001,,,,,570,18,Man,Right,
,,,,,,,,,,,,,,,,,570,18,Man,Right,1,21,0.4,2,0,180,180,0.3198781000000963,['n'],0.6707852999998067,1.692,1015.8799977000008,,,,,570,18,Man,Right,
,,,,,,,,,,,,,,,,,570,18,Man,Right,1,60,0.15,1,0,-,180,0.3118351999992228,['n'],0.3828698000006625,1.666,1018.7799221000005,,,,,570,18,Man,Right,
,,,,,,,,,,,,,,,,,570,18,Man,Right,1,30,0.4,1,180,-,180,0.40596980000009353,['n'],0.3506330000000162,1.714,1021.8633941000007,,,,,570,18,Man,Right,
,,,,,,,,,,,,,,,,,570,18,Man,Right,1,16,0.4,1,0,-,0,0.5356317999994644,['n'],0.6151221999998597,1.67,1025.1965234,,,,,570,18,Man,Right,
,,,,,,,,,,,,,,,,,570,18,Man,Right,2,27,0.4,2,180,0,0,0.6658896000008099,['n'],0.7588868000002549,1.744,1045.8297015000007,60.0,90.0,32.5,,570,18,Man,Right,
,,,,,,,,,,,,,,,,,570,18,Man,Right,2,34,0.4,1,180,-,180,0.31587299999955576,['n'],0.29486700000052224,1.706,1048.5965027000002,,,,,570,18,Man,Right,
,,,,,,,,,,,,,,,,,570,18,Man,Right,2,70,0.15,1,180,-,0,0.3158434999995734,['n'],0.28682669999943755,1.712,1051.4131488000003,,,,,570,18,Man,Right,
,,,,,,,,,,,,,,,,,570,18,Man,Right,2,12,0.4,1,0,-,0,0.307803600000625,['n'],0.23084000000017113,1.6560000000000001,1054.0131604000007,,,,,570,18,Man,Right,
,,,,,,,,,,,,,,,,,570,18,Man,Right,2,76,0.15,1,0,-,0,0.28382000000055996,['n'],0.35085650000019086,1.6019999999999999,1056.7631795000007,,,,,570,18,Man,Right,
,,,,,,,,,,,,,,,,,570,18,Man,Right,2,74,0.15,1,180,-,0,0.261162200000399,['n'],0.5828436000001602,1.694,1059.7298055,,,,,570,18,Man,Right,
,,,,,,,,,,,,,,,,,570,18,Man,Right,2,4,1,1,0,-,0,0.2717778999995062,['n'],0.15087210000001505,1.658,1062.3464378000008,,,,,570,18,Man,Right,
,,,,,,,,,,,,,,,,,570,18,Man,Right,2,75,0.15,2,180,0,0,0.2793880999997782,['n'],0.15845100000024104,1.676,1064.9131184000007,,,,,570,18,Man,Right,
,,,,,,,,,,,,,,,,,570,18,Man,Right,2,50,0.15,1,180,-,0,0.2805746000003637,['n'],0.5828632999991896,1.714,1067.9465888000004,,,,,570,18,Man,Right,
,,,,,,,,,,,,,,,,,570,18,Man,Right,2,36,0.4,1,0,-,0,0.23999780000031024,['n'],0.39864029999989725,1.666,1070.6797718000007,,,,,570,18,Man,Right,
,,,,,,,,,,,,,,,,,570,18,Man,Right,2,1,1,2,0,180,0,0.5524728999998842,['n'],0.3667957999996361,1.702,1073.7964107000007,,,,,570,18,Man,Right,
,,,,,,,,,,,,,,,,,570,18,Man,Right,2,48,0.15,1,0,-,0,1.5308555999999953,['n'],0.7190104000001156,1.8860000000000001,1078.2296205000002,,,,,570,18,Man,Right,
,,,,,,,,,,,,,,,,,570,18,Man,Right,2,6,1,1,180,-,0,1.3703487000002497,['n'],0.3509230999998181,1.674,1082.0462778,,,,,570,18,Man,Right,
,,,,,,,,,,,,,,,,,570,18,Man,Right,2,67,0.15,2,180,0,180,0.9923075000006065,['n'],1.0550536000000648,1.6139999999999999,1086.2796722000003,,,,,570,18,Man,Right,
,,,,,,,,,,,,,,,,,570,18,Man,Right,2,41,0.4,2,0,180,0,0.38624239999990095,['n'],0.5750005999998393,1.6680000000000001,1089.3129974000003,,,,,570,18,Man,Right,
,,,,,,,,,,,,,,,,,570,18,Man,Right,2,71,0.15,2,180,0,180,1.0226028999995833,['n'],1.0386832999993203,1.692,1093.7463096000001,,,,,570,18,Man,Right,
,,,,,,,,,,,,,,,,,570,18,Man,Right,2,44,0.15,1,0,-,180,0.6269407999998293,['n'],0.5190625000004729,1.6600000000000001,1098.6795456,,,,,570,18,Man,Right,
,,,,,,,,,,,,,,,,,570,18,Man,Right,2,38,0.4,1,180,-,0,1.0642755999997462,['n'],0.4869616000005408,1.6600000000000001,1102.4296074000004,,,,,570,18,Man,Right,
,,,,,,,,,,,,,,,,,570,18,Man,Right,2,16,0.4,1,0,-,0,0.6504001000002972,['n'],0.3128524000003381,1.67,1105.5462741000001,,,,,570,18,Man,Right,
,,,,,,,,,,,,,,,,,570,18,Man,Right,2,54,0.15,1,180,-,180,0.30391580000014073,['n'],0.6708029999999781,1.67,1105.5462741000001,,,,,570,18,Man,Right,
,,,,,,,,,,,,,,,,,570,18,Man,Right,2,11,0.4,2,180,0,0,0.7499121000000741,['n'],0.2625757000005251,1.6440000000000001,1112.2963212000004,,,,,570,18,Man,Right,
,,,,,,,,,,,,,,,,,570,18,Man,Right,2,2,1,1,180,-,0,1.1535665999999765,['n'],0.20704040000055102,1.6400000000000001,1115.7795726000004,,,,,570,18,Man,Right,
,,,,,,,,,,,,,,,,,570,18,Man,Right,2,5,1,2,0,180,180,1.2783678999994663,['n'],0.1907593000005363,1.6400000000000001,1115.7795726000004,,,,,570,18,Man,Right,
,,,,,,,,,,,,,,,,,570,18,Man,Right,2,22,0.4,1,180,-,0,0.43559819999973115,['n'],0.31097570000019914,1.79,1122.3128750000005,,,,,570,18,Man,Right,
,,,,,,,,,,,,,,,,,570,18,Man,Right,2,77,0.15,2,0,180,0,0.7842047000003731,['n'],0.23109199999998964,1.72,1125.3963032000001,,,,,570,18,Man,Right,
,,,,,,,,,,,,,,,,,570,18,Man,Right,2,62,0.15,1,180,-,0,0.7920533000005889,['n'],2.015445799999725,1.6680000000000001,1130.4461452000005,,,,,570,18,Man,Right,
,,,,,,,,,,,,,,,,,570,18,Man,Right,2,68,0.15,1,0,-,180,1.1010973000002195,['n'],0.2067893000003096,1.674,1133.9463054000007,,,,,570,18,Man,Right,
,,,,,,,,,,,,,,,,,570,18,Man,Right,2,57,0.15,2,0,180,0,1.1831093000000692,['n'],0.31877389999954175,1.6360000000000001,1137.496223,,,,,570,18,Man,Right,
,,,,,,,,,,,,,,,,,570,18,Man,Right,2,29,0.4,2,0,180,0,0.9056282999999894,['n'],0.1989651000003505,1.6600000000000001,1140.679521,,,,,570,18,Man,Right,
,,,,,,,,,,,,,,,,,570,18,Man,Right,2,8,0.4,1,0,-,0,0.6170279999996637,['n'],0.16679649999969115,1.704,1143.6461630000003,,,,,570,18,Man,Right,
,,,,,,,,,,,,,,,,,570,18,Man,Right,2,45,0.15,2,0,180,0,0.4745112999999037,['n'],0.20667580000008456,1.706,1146.3793608000005,,,,,570,18,Man,Right,
,,,,,,,,,,,,,,,,,570,18,Man,Right,2,15,0.4,2,180,0,0,0.8117667000005895,['n'],0.2227178000002823,1.7,1149.6630132,,,,,570,18,Man,Right,
,,,,,,,,,,,,,,,,,570,18,Man,Right,2,30,0.4,1,180,-,180,2.0396180000007007,['n'],0.9668977999999697,1.6640000000000001,1155.4293691000003,,,,,570,18,Man,Right,
,,,,,,,,,,,,,,,,,570,18,Man,Right,2,39,0.4,2,180,0,0,0.6687988000003315,['n'],0.34243700000024546,1.608,1158.5794912000001,,,,,570,18,Man,Right,
,,,,,,,,,,,,,,,,,570,18,Man,Right,2,65,0.15,2,0,180,0,0.598672500000248,['n'],0.2624989000005371,1.69,1161.5293726,,,,,570,18,Man,Right,
,,,,,,,,,,,,,,,,,570,18,Man,Right,2,21,0.4,2,0,180,0,0.6789858000001914,['n'],0.36697889999959443,1.6680000000000001,1164.6627508000001,,,,,570,18,Man,Right,
,,,,,,,,,,,,,,,,,570,18,Man,Right,2,18,0.4,1,180,-,180,0.5705336999999417,['n'],0.590650099999948,1.6400000000000001,1168.1628229000007,,,,,570,18,Man,Right,
,,,,,,,,,,,,,,,,,570,18,Man,Right,2,49,0.15,2,0,180,180,1.4536223999994036,['n'],0.4869331999998394,1.69,1172.7793472000003,,,,,570,18,Man,Right,
,,,,,,,,,,,,,,,,,570,18,Man,Right,2,3,1,2,180,0,0,0.6286618000003728,['n'],0.3825522000006458,1.6680000000000001,1176.2127176000004,,,,,570,18,Man,Right,
,,,,,,,,,,,,,,,,,570,18,Man,Right,2,73,0.15,2,0,180,0,0.6020224000003509,['n'],0.7750215999994907,1.5939999999999999,1179.7961149000002,,,,,570,18,Man,Right,
,,,,,,,,,,,,,,,,,570,18,Man,Right,2,23,0.4,2,180,0,0,0.7635159999999814,['n'],0.599568999999974,1.5939999999999999,1183.9293805000007,,,,,570,18,Man,Right,
,,,,,,,,,,,,,,,,,570,18,Man,Right,2,63,0.15,2,180,0,0,0.7829406999999264,['n'],0.8149198000000979,1.626,1187.6627478,,,,,570,18,Man,Right,
,,,,,,,,,,,,,,,,,570,18,Man,Right,2,40,0.4,1,0,-,0,0.5201313999996273,['n'],1.5191030000005412,1.654,1191.8959563000008,,,,,570,18,Man,Right,
,,,,,,,,,,,,,,,,,570,18,Man,Right,2,14,0.4,1,180,-,0,0.6223019999997632,['n'],0.566914099999849,1.6480000000000001,1195.2793204,,,,,570,18,Man,Right,
,,,,,,,,,,,,,,,,,570,18,Man,Right,2,61,0.15,2,0,180,0,0.5497040000000197,['n'],0.27913789999911387,1.5939999999999999,1198.2959149000008,,,,,570,18,Man,Right,
,,,,,,,,,,,,,,,,,570,18,Man,Right,2,9,0.4,2,0,180,0,0.46968999999990046,['n'],0.246834100000342,1.6520000000000001,1201.1959550000001,,,,,570,18,Man,Right,
,,,,,,,,,,,,,,,,,570,18,Man,Right,2,58,0.15,1,180,-,0,0.299946799999816,['n'],0.2790746000000581,1.608,1203.9292336000008,,,,,570,18,Man,Right,
,,,,,,,,,,,,,,,,,570,18,Man,Right,2,42,0.4,1,180,-,0,0.974855700000262,['n'],0.3990094000000681,1.65,1207.3292654999996,,,,,570,18,Man,Right,
,,,,,,,,,,,,,,,,,570,18,Man,Right,2,72,0.15,1,0,-,0,0.32372729999951844,['n'],0.23866959999941173,1.6360000000000001,1210.0799656999998,,,,,570,18,Man,Right,
,,,,,,,,,,,,,,,,,570,18,Man,Right,2,0,1,1,0,-,0,0.8481357000000571,['n'],0.24703500000032363,1.6360000000000001,1213.6960988,,,,,570,18,Man,Right,
,,,,,,,,,,,,,,,,,570,18,Man,Right,2,59,0.15,2,180,0,0,0.5030910000004951,['n'],2.8067248000006657,1.6099999999999999,1219.1626127000009,,,,,570,18,Man,Right,
,,,,,,,,,,,,,,,,,570,18,Man,Right,2,64,0.15,1,0,-,0,0.40365600000041013,['n'],0.19885620000059134,1.72,1221.9459335000001,,,,,570,18,Man,Right,
,,,,,,,,,,,,,,,,,570,18,Man,Right,2,60,0.15,1,0,-,0,0.5669218999992154,['n'],0.15012910000041302,1.6520000000000001,1224.7625158,,,,,570,18,Man,Right,
,,,,,,,,,,,,,,,,,570,18,Man,Right,2,47,0.15,2,180,0,0,0.7714395999992121,['n'],0.21498160000010103,1.69,1228.0959532999996,,,,,570,18,Man,Right,
,,,,,,,,,,,,,,,,,570,18,Man,Right,2,66,0.15,1,180,-,0,0.27887550000014016,['n'],0.23090530000081344,1.696,1231.145875700001,,,,,570,18,Man,Right,
,,,,,,,,,,,,,,,,,570,18,Man,Right,2,69,0.15,2,0,180,0,0.26353170000038517,['n'],0.21484249999957683,1.69,1233.6958815999997,,,,,570,18,Man,Right,
,,,,,,,,,,,,,,,,,570,18,Man,Right,2,53,0.15,2,0,180,0,0.3675944000005984,['n'],0.1988416000003781,1.708,1236.412492800001,,,,,570,18,Man,Right,
,,,,,,,,,,,,,,,,,570,18,Man,Right,2,20,0.4,1,0,-,0,0.31958420000046317,['n'],0.21484640000016952,1.5939999999999999,1239.9628165000004,,,,,570,18,Man,Right,
,,,,,,,,,,,,,,,,,570,18,Man,Right,2,7,1,2,180,0,0,0.607065700000021,['n'],0.23078520000126446,1.646,1243.8124623000012,,,,,570,18,Man,Right,
,,,,,,,,,,,,,,,,,570,18,Man,Right,2,79,0.15,2,180,0,0,0.2670010000001639,['n'],0.3287082000006194,1.6179999999999999,1246.5458453,,,,,570,18,Man,Right,
,,,,,,,,,,,,,,,,,570,18,Man,Right,2,46,0.15,1,180,-,0,0.24773860000095738,['n'],0.24677669999982754,1.75,1249.1624686000005,,,,,570,18,Man,Right,
,,,,,,,,,,,,,,,,,570,18,Man,Right,2,37,0.4,2,0,180,0,0.30824589999974705,['n'],0.2708294999993086,1.708,1251.9123709000005,,,,,570,18,Man,Right,
,,,,,,,,,,,,,,,,,570,18,Man,Right,2,26,0.4,1,180,-,0,0.288944600000832,['n'],0.24683969999932742,1.612,1254.7125652000004,,,,,570,18,Man,Right,
,,,,,,,,,,,,,,,,,570,18,Man,Right,2,10,0.4,1,180,-,0,0.2849006000014924,['n'],0.3508775999998761,1.6600000000000001,1257.5124634000013,,,,,570,18,Man,Right,
,,,,,,,,,,,,,,,,,570,18,Man,Right,2,19,0.4,2,180,0,0,0.30031400000007125,['n'],0.2421820999988995,1.73,1260.1457467999999,,,,,570,18,Man,Right,
,,,,,,,,,,,,,,,,,570,18,Man,Right,2,24,0.4,1,0,-,0,0.2955982999992557,['n'],0.21478019999995013,1.6360000000000001,1262.7790833999998,,,,,570,18,Man,Right,
,,,,,,,,,,,,,,,,,570,18,Man,Right,2,55,0.15,2,180,0,0,0.2708007999990514,['n'],0.2389286000016,1.674,1265.3624382000007,,,,,570,18,Man,Right,
,,,,,,,,,,,,,,,,,570,18,Man,Right,2,43,0.4,2,180,0,0,0.31959160000042175,['n'],0.26285470000038913,1.6059999999999999,1268.0958211999996,,,,,570,18,Man,Right,
,,,,,,,,,,,,,,,,,570,18,Man,Right,2,52,0.15,1,0,-,0,0.24383279999892693,['n'],0.2146575999995548,1.6640000000000001,1270.8124072,,,,,570,18,Man,Right,
,,,,,,,,,,,,,,,,,570,18,Man,Right,2,25,0.4,2,0,180,0,0.2855366000003414,['n'],0.19085919999997714,1.6640000000000001,1270.8124072,,,,,570,18,Man,Right,
,,,,,,,,,,,,,,,,,570,18,Man,Right,2,28,0.4,1,0,-,0,0.3929019999995944,['n'],0.23879850000048464,1.662,1276.0458379000002,,,,,570,18,Man,Right,
,,,,,,,,,,,,,,,,,570,18,Man,Right,2,51,0.15,2,180,0,0,0.29834370000025956,['n'],0.23858950000067125,1.732,1278.6790828000003,,,,,570,18,Man,Right,
,,,,,,,,,,,,,,,,,570,18,Man,Right,2,17,0.4,2,0,180,0,0.5841951000002155,['n'],0.2308548000000883,1.744,1281.5957642000003,,,,,570,18,Man,Right,
,,,,,,,,,,,,,,,,,570,18,Man,Right,2,78,0.15,1,180,-,0,0.4050567000012961,['n'],0.254623900000297,1.63,1284.3124674,,,,,570,18,Man,Right,
,,,,,,,,,,,,,,,,,570,18,Man,Right,2,56,0.15,1,0,-,0,0.31220269999903394,['n'],0.23083430000042426,1.5979999999999999,1286.962332,,,,,570,18,Man,Right,
,,,,,,,,,,,,,,,,,570,18,Man,Right,2,35,0.4,2,180,0,0,0.11685439999928349,['n'],1.1188719000001583,1.634,1290.4289851000003,,,,,570,18,Man,Right,
,,,,,,,,,,,,,,,,,570,18,Man,Right,2,31,0.4,2,180,0,0,0.36474359999920125,['n'],0.2549244000001636,1.612,1293.0789288000005,,,,,570,18,Man,Right,
,,,,,,,,,,,,,,,,,570,18,Man,Right,2,32,0.4,1,0,-,0,0.3407289999995555,['n'],0.718891699998494,1.6059999999999999,1296.4289741000002,,,,,570,18,Man,Right,
,,,,,,,,,,,,,,,,,570,18,Man,Right,2,13,0.4,2,0,180,0,0.3381859999990411,['n'],0.2868202999998175,1.6059999999999999,1296.4289741000002,,,,,570,18,Man,Right,
,,,,,,,,,,,,,,,,,570,18,Man,Right,2,33,0.4,2,0,180,0,0.28783689999909257,['n'],0.6225197999992815,1.638,1302.1290952999998,,,,,570,18,Man,Right,
,,,,,,,,,,,,,,,,,570,18,Man,Right,3,20,0.4,1,0,-,0,0.49754159999974945,['n'],1.7749413000001368,1.666,1324.4288791000008,52.5,100.0,0.0,,570,18,Man,Right,
,,,,,,,,,,,,,,,,,570,18,Man,Right,3,77,0.15,2,0,180,180,1.2441823999997723,['y'],1.3352414000000863,1.592,1329.1121881999998,,,,,570,18,Man,Right,
,,,,,,,,,,,,,,,,,570,18,Man,Right,3,16,0.4,1,0,-,0,0.35287030000108643,['n'],0.6308719999997265,1.592,1329.1121881999998,,,,,570,18,Man,Right,
,,,,,,,,,,,,,,,,,570,18,Man,Right,3,50,0.15,1,180,-,0,0.3354297999994742,['n'],0.39087280000057945,1.6,1334.9622606000003,,,,,570,18,Man,Right,
,,,,,,,,,,,,,,,,,570,18,Man,Right,3,17,0.4,2,0,180,180,0.2709102000007988,['y'],0.6627695000006497,1.626,1338.4789029000012,,,,,570,18,Man,Right,
,,,,,,,,,,,,,,,,,570,18,Man,Right,3,18,0.4,1,180,-,180,0.2586967999995977,['y'],0.6229272000000492,1.696,1341.562135700001,,,,,570,18,Man,Right,
,,,,,,,,,,,,,,,,,570,18,Man,Right,3,3,1,2,180,0,0,0.38276779999978316,['y'],0.526941900001475,1.764,1344.562191,,,,,570,18,Man,Right,
,,,,,,,,,,,,,,,,,570,18,Man,Right,3,69,0.15,2,0,180,0,1.1755826999997225,['n'],0.8867900000004738,1.764,1344.562191,,,,,570,18,Man,Right,
,,,,,,,,,,,,,,,,,570,18,Man,Right,3,47,0.15,2,180,0,180,0.7896688000000722,['n'],1.5747286999994685,1.5979999999999999,1352.962116400001,,,,,570,18,Man,Right,
,,,,,,,,,,,,,,,,,570,18,Man,Right,3,37,0.4,2,0,180,180,0.2954717000011442,['y'],0.4308268999993743,1.6640000000000001,1355.7622294000003,,,,,570,18,Man,Right,
,,,,,,,,,,,,,,,,,570,18,Man,Right,3,13,0.4,2,0,180,180,0.31879579999986163,['y'],0.49494610000147077,1.662,1358.6454626000004,,,,,570,18,Man,Right,
,,,,,,,,,,,,,,,,,570,18,Man,Right,3,38,0.4,1,180,-,180,0.4508105000004434,['y'],0.5353081000012025,1.662,1358.6454626000004,,,,,570,18,Man,Right,
,,,,,,,,,,,,,,,,,570,18,Man,Right,3,55,0.15,2,180,0,180,0.6639255000009143,['n'],0.6150328000003356,1.57,1365.4286292999996,,,,,570,18,Man,Right,
,,,,,,,,,,,,,,,,,570,18,Man,Right,3,25,0.4,2,0,180,180,0.23547510000025795,['y'],0.3668357999995351,1.57,1365.4286292999996,,,,,570,18,Man,Right,
,,,,,,,,,,,,,,,,,570,18,Man,Right,3,27,0.4,2,180,0,0,0.34870649999902525,['y'],1.1510185000006459,1.5,1371.178600100001,,,,,570,18,Man,Right,
,,,,,,,,,,,,,,,,,570,18,Man,Right,3,41,0.4,2,0,180,180,0.5754961000002368,['y'],0.3988323000012315,1.634,1374.795424500001,,,,,570,18,Man,Right,
,,,,,,,,,,,,,,,,,570,18,Man,Right,3,51,0.15,2,180,0,180,0.5000899999995454,['n'],0.5989051000015024,1.69,1377.995471000001,,,,,570,18,Man,Right,
,,,,,,,,,,,,,,,,,570,18,Man,Right,3,40,0.4,1,0,-,180,0.5322489000009227,['n'],0.7186777999995684,1.6360000000000001,1381.3453676,,,,,570,18,Man,Right,
,,,,,,,,,,,,,,,,,570,18,Man,Right,3,56,0.15,1,0,-,180,0.3840940000009141,['n'],0.5108565999998973,1.726,1384.3287038000008,,,,,570,18,Man,Right,
,,,,,,,,,,,,,,,,,570,18,Man,Right,3,59,0.15,2,180,0,0,1.184172799999942,['y'],0.6709655000013299,1.726,1384.3287038000008,,,,,570,18,Man,Right,
,,,,,,,,,,,,,,,,,570,18,Man,Right,3,15,0.4,2,180,0,0,0.19799039999998058,['y'],1.1669505999998364,1.6680000000000001,1391.6619770000007,,,,,570,18,Man,Right,
,,,,,,,,,,,,,,,,,570,18,Man,Right,3,26,0.4,1,180,-,180,0.30809319999934814,['n'],0.7348318999993353,1.6680000000000001,1391.6619770000007,,,,,570,18,Man,Right,
,,,,,,,,,,,,,,,,,570,18,Man,Right,3,61,0.15,2,0,180,180,0.3064695999983087,['n'],1.2629656000008254,1.676,1398.4455520000001,,,,,570,18,Man,Right,
,,,,,,,,,,,,,,,,,570,18,Man,Right,3,19,0.4,2,180,0,180,1.8687702000006539,['n'],0.3108388999989984,1.634,1402.6119626000009,,,,,570,18,Man,Right,
,,,,,,,,,,,,,,,,,570,18,Man,Right,3,62,0.15,1,180,-,180,0.7835699999995995,['n'],0.5566269999999349,1.5739999999999998,1406.195271900001,,,,,570,18,Man,Right,
,,,,,,,,,,,,,,,,,570,18,Man,Right,3,49,0.15,2,0,180,0,0.33191399999850546,['n'],1.5431571999997686,1.596,1410.1452725999998,,,,,570,18,Man,Right,
,,,,,,,,,,,,,,,,,570,18,Man,Right,3,45,0.15,2,0,180,180,0.37606899999991583,['n'],0.44691770000099496,1.596,1410.1452725999998,,,,,570,18,Man,Right,
,,,,,,,,,,,,,,,,,570,18,Man,Right,3,28,0.4,1,0,-,180,0.3507764000005409,['n'],0.3747555000009015,1.6019999999999999,1415.7951829000003,,,,,570,18,Man,Right,
,,,,,,,,,,,,,,,,,570,18,Man,Right,3,60,0.15,1,0,-,180,0.4139930999990611,['n'],0.4387454000006983,1.6179999999999999,1418.6618974000003,,,,,570,18,Man,Right,
,,,,,,,,,,,,,,,,,570,18,Man,Right,3,48,0.15,1,0,-,0,0.34472980000100506,['n'],0.43082959999992454,1.6640000000000001,1421.6286678999995,,,,,570,18,Man,Right,
,,,,,,,,,,,,,,,,,570,18,Man,Right,3,35,0.4,2,180,0,180,2.53364639999927,['y'],0.6700153000001592,1.6640000000000001,1421.6286678999995,,,,,570,18,Man,Right,
,,,,,,,,,,,,,,,,,570,18,Man,Right,3,11,0.4,2,180,0,0,0.30948239999997895,['n'],0.7589418999996269,1.588,1429.8451431000003,,,,,570,18,Man,Right,
,,,,,,,,,,,,,,,,,570,18,Man,Right,3,39,0.4,2,180,0,0,0.29206840000006196,['n'],0.29469909999897936,1.62,1432.4787683000004,,,,,570,18,Man,Right,
,,,,,,,,,,,,,,,,,570,18,Man,Right,3,66,0.15,1,180,-,0,0.08333199999833596,['n'],0.5188156000003801,1.616,1435.1284779000007,,,,,570,18,Man,Right,
,,,,,,,,,,,,,,,,,570,18,Man,Right,3,71,0.15,2,180,0,180,1.4328813000010996,['y'],0.8226687999995193,1.608,1439.395145900001,,,,,570,18,Man,Right,
,,,,,,,,,,,,,,,,,570,18,Man,Right,3,70,0.15,1,180,-,0,0.3019657000004372,['n'],0.25485500000104366,1.5939999999999999,1442.2951494,,,,,570,18,Man,Right,
,,,,,,,,,,,,,,,,,570,18,Man,Right,3,23,0.4,2,180,0,0,0.2502875000009226,['n'],0.46267970000008063,1.658,1445.0784399000013,,,,,570,18,Man,Right,
,,,,,,,,,,,,,,,,,570,18,Man,Right,3,4,1,1,0,-,0,0.8973884999995789,['n'],0.2548446000000695,1.626,1448.3284386000005,,,,,570,18,Man,Right,
,,,,,,,,,,,,,,,,,570,18,Man,Right,3,64,0.15,1,0,-,0,0.1420259000005899,['n'],0.2708829000002879,1.588,1450.8618001000004,,,,,570,18,Man,Right,
,,,,,,,,,,,,,,,,,570,18,Man,Right,3,8,0.4,1,0,-,0,0.2493849999991653,['n'],0.19073320000097738,1.5939999999999999,1453.3284406000012,,,,,570,18,Man,Right,
,,,,,,,,,,,,,,,,,570,18,Man,Right,3,52,0.15,1,0,-,180,0.887445000000298,['n'],0.638629500001116,1.688,1456.9284085000008,,,,,570,18,Man,Right,
,,,,,,,,,,,,,,,,,570,18,Man,Right,3,0,1,1,0,-,180,0.9520972000009351,['n'],1.1667536000004475,1.634,1461.1117327000002,,,,,570,18,Man,Right,
,,,,,,,,,,,,,,,,,570,18,Man,Right,3,54,0.15,1,180,-,180,0.6101137999994535,['n'],0.2305359000001772,1.6320000000000001,1463.9450927999997,,,,,570,18,Man,Right,
,,,,,,,,,,,,,,,,,570,18,Man,Right,3,29,0.4,2,0,180,180,0.4004376000011689,['n'],0.1971243999996659,1.014,1468.3450039000008,,,,,570,18,Man,Right,
,,,,,,,,,,,,,,,,,570,18,Man,Right,3,5,1,2,0,180,180,0.4959683999986737,['y'],0.7989378999991459,1.6219999999999999,1473.3283731000001,,,,,570,18,Man,Right,
,,,,,,,,,,,,,,,,,570,18,Man,Right,3,1,1,2,0,180,180,0.28925429999981134,['y'],1.302259399999457,1.802,1477.9283853999996,,,,,570,18,Man,Right,
,,,,,,,,,,,,,,,,,570,18,Man,Right,3,14,0.4,1,180,-,0,0.8493109999999433,['y'],0.5988472999997612,1.702,1481.4283762000005,,,,,570,18,Man,Right,
,,,,,,,,,,,,,,,,,570,18,Man,Right,3,44,0.15,1,0,-,180,0.3568348999997397,['y'],0.8709273999993457,1.722,1484.6283427000008,,,,,570,18,Man,Right,
,,,,,,,,,,,,,,,,,570,18,Man,Right,3,67,0.15,2,180,0,180,0.4834828999992169,['n'],0.7586455000000569,1.684,1487.9450638000008,,,,,570,18,Man,Right,
,,,,,,,,,,,,,,,,,570,18,Man,Right,3,58,0.15,1,180,-,0,0.49459220000062487,['n'],0.45486200000050303,1.626,1490.945052600001,,,,,570,18,Man,Right,
,,,,,,,,,,,,,,,,,570,18,Man,Right,3,79,0.15,2,180,0,0,0.2386304999999993,['n'],0.3748827999988862,1.694,1493.7782795000012,,,,,570,18,Man,Right,
,,,,,,,,,,,,,,,,,570,18,Man,Right,3,21,0.4,2,0,180,180,0.6859762999993109,['y'],0.40692680000029213,1.694,1493.7782795000012,,,,,570,18,Man,Right,
,,,,,,,,,,,,,,,,,570,18,Man,Right,3,12,0.4,1,0,-,0,0.6426804000002448,['n'],0.39886050000131945,1.6680000000000001,1499.9282140000005,,,,,570,18,Man,Right,
,,,,,,,,,,,,,,,,,570,18,Man,Right,3,73,0.15,2,0,180,180,0.9993037000003824,['y'],0.518868699999075,1.654,1503.6116322999997,,,,,570,18,Man,Right,
,,,,,,,,,,,,,,,,,570,18,Man,Right,3,34,0.4,1,180,-,0,0.26927380000051926,['n'],0.2468337000009342,1.6,1506.1948930000008,,,,,570,18,Man,Right,
,,,,,,,,,,,,,,,,,570,18,Man,Right,3,57,0.15,2,0,180,180,1.7251417999996193,['n'],0.26302270000087447,1.678,1510.2952192000002,,,,,570,18,Man,Right,
,,,,,,,,,,,,,,,,,570,18,Man,Right,3,10,0.4,1,180,-,180,0.42458040000019537,['n'],0.24681749999945168,1.796,1513.0615091000009,,,,,570,18,Man,Right,
,,,,,,,,,,,,,,,,,570,18,Man,Right,3,53,0.15,2,0,180,180,0.7693276999998488,['n'],0.41473779999978433,1.6640000000000001,1516.3948577,,,,,570,18,Man,Right,
,,,,,,,,,,,,,,,,,570,18,Man,Right,3,6,1,1,180,-,180,0.3173246000005747,['n'],0.24687960000119347,1.68,1519.1949202000005,,,,,570,18,Man,Right,
,,,,,,,,,,,,,,,,,570,18,Man,Right,3,43,0.4,2,180,0,0,0.6260308000000805,['n'],0.5747155999997631,1.6179999999999999,1522.5450637000004,,,,,570,18,Man,Right,
,,,,,,,,,,,,,,,,,570,18,Man,Right,3,75,0.15,2,180,0,180,0.3354065999992599,['n'],0.28664299999945797,1.642,1525.3781781000007,,,,,570,18,Man,Right,
,,,,,,,,,,,,,,,,,570,18,Man,Right,3,46,0.15,1,180,-,0,0.5022517999987031,['n'],0.23910909999904106,1.638,1528.178181100001,,,,,570,18,Man,Right,
,,,,,,,,,,,,,,,,,570,18,Man,Right,3,36,0.4,1,0,-,0,3.331917199999225,['y'],0.566848000000391,1.638,1528.178181100001,,,,,570,18,Man,Right,
,,,,,,,,,,,,,,,,,570,18,Man,Right,3,33,0.4,2,0,180,180,0.5492244999986724,['n'],0.2069788000007975,1.6360000000000001,1537.1115048000001,,,,,570,18,Man,Right,
,,,,,,,,,,,,,,,,,570,18,Man,Right,3,24,0.4,1,0,-,180,0.5435622000004514,['n'],0.29450079999878653,1.6179999999999999,1540.1447933000009,,,,,570,18,Man,Right,
,,,,,,,,,,,,,,,,,570,18,Man,Right,3,74,0.15,1,180,-,0,0.4618085999991308,['n'],0.15889050000077987,1.6600000000000001,1542.9114486000008,,,,,570,18,Man,Right,
,,,,,,,,,,,,,,,,,570,18,Man,Right,3,30,0.4,1,180,-,180,0.5120717999998305,['n'],0.21454570000059903,1.5779999999999998,1545.7948848999995,,,,,570,18,Man,Right,
,,,,,,,,,,,,,,,,,570,18,Man,Right,3,31,0.4,2,180,0,180,0.45900430000074266,['n'],0.1988189000003331,1.6480000000000001,1548.5780627000013,,,,,570,18,Man,Right,
,,,,,,,,,,,,,,,,,570,18,Man,Right,3,7,1,2,180,0,180,0.30278349999935017,['n'],0.1666012999994564,1.634,1551.0614878000006,,,,,570,18,Man,Right,
,,,,,,,,,,,,,,,,,570,18,Man,Right,3,65,0.15,2,0,180,180,0.1057176000012987,['n'],0.5427932000002329,1.642,1553.7780668000005,,,,,570,18,Man,Right,
,,,,,,,,,,,,,,,,,570,18,Man,Right,3,72,0.15,1,0,-,180,0.20451239999965765,['n'],0.20689060000040627,1.678,1556.3114911000002,,,,,570,18,Man,Right,
,,,,,,,,,,,,,,,,,570,18,Man,Right,3,42,0.4,1,180,-,0,0.9504974999999831,['n'],1.5429383999999118,1.522,1560.8613882,,,,,570,18,Man,Right,
,,,,,,,,,,,,,,,,,570,18,Man,Right,3,78,0.15,1,180,-,180,0.6871275000012247,['n'],0.24696340000082273,1.522,1560.8613882,,,,,570,18,Man,Right,
,,,,,,,,,,,,,,,,,570,18,Man,Right,3,2,1,1,180,-,180,0.35053049999987707,['n'],0.20690289999947709,1.5,1566.1859027,,,,,570,18,Man,Right,
,,,,,,,,,,,,,,,,,570,18,Man,Right,3,9,0.4,2,0,180,180,0.21504780000032042,['n'],0.1907809999993333,1.5899999999999999,1569.3614563,,,,,570,18,Man,Right,
,,,,,,,,,,,,,,,,,570,18,Man,Right,3,22,0.4,1,180,-,180,0.3252477000005456,['n'],0.21520869999949355,1.55,1571.9946651,,,,,570,18,Man,Right,
,,,,,,,,,,,,,,,,,570,18,Man,Right,3,76,0.15,1,0,-,180,0.46087880000050063,['n'],0.18254539999907138,1.592,1574.7281555,,,,,570,18,Man,Right,
,,,,,,,,,,,,,,,,,570,18,Man,Right,3,63,0.15,2,180,0,180,1.8391594999993686,['n'],0.16688950000025216,1.5939999999999999,1578.8113335999997,,,,,570,18,Man,Right,
,,,,,,,,,,,,,,,,,570,18,Man,Right,3,32,0.4,1,0,-,180,0.2931981000001542,['n'],0.22279789999993227,1.6139999999999999,1581.5947946999995,,,,,570,18,Man,Right,
,,,,,,,,,,,,,,,,,570,18,Man,Right,3,68,0.15,1,0,-,180,1.1419160000004922,['n'],0.19067529999847466,1.596,1584.9279706000007,,,,,570,18,Man,Right,
,,,,,,,,,,,,,,,,,570,18,Man,Right,4,21,0.4,2,0,180,180,0.7873048999990715,['n'],0.6228425999997853,1.624,1600.6780337999999,57.5,87.5,40.0,,570,18,Man,Right,
,,,,,,,,,,,,,,,,,570,18,Man,Right,4,63,0.15,2,180,0,180,0.7064821000003576,['n'],0.22281589999874996,1.708,1603.7779560000008,,,,,570,18,Man,Right,
,,,,,,,,,,,,,,,,,570,18,Man,Right,4,46,0.15,1,180,-,180,0.7796300999998493,['n'],0.5590357999990374,1.608,1607.3779218999998,,,,,570,18,Man,Right,
,,,,,,,,,,,,,,,,,570,18,Man,Right,4,72,0.15,1,0,-,180,0.28652860000147484,['n'],0.166898499999661,1.6560000000000001,1609.8945609000011,,,,,570,18,Man,Right,
,,,,,,,,,,,,,,,,,570,18,Man,Right,4,27,0.4,2,180,0,180,0.6486377000001085,['n'],0.18276379999952042,1.626,1612.7945878,,,,,570,18,Man,Right,
,,,,,,,,,,,,,,,,,570,18,Man,Right,4,25,0.4,2,0,180,180,0.7804168999991816,['n'],0.2870232000004762,1.6219999999999999,1615.8945630999997,,,,,570,18,Man,Right,
,,,,,,,,,,,,,,,,,570,18,Man,Right,4,62,0.15,1,180,-,0,1.2718243999988772,['n'],0.4548085999995237,1.6219999999999999,1619.6779859999997,,,,,570,18,Man,Right,
,,,,,,,,,,,,,,,,,570,18,Man,Right,4,53,0.15,2,0,180,180,0.27361460000065563,['n'],0.902714100000594,1.5739999999999998,1622.8945682000003,,,,,570,18,Man,Right,
,,,,,,,,,,,,,,,,,570,18,Man,Right,4,39,0.4,2,180,0,180,0.1855887999990955,['n'],0.2068429000009928,1.642,1625.3111743,,,,,570,18,Man,Right,
,,,,,,,,,,,,,,,,,570,18,Man,Right,4,7,1,2,180,0,180,0.3438339000003907,['n'],0.28685330000007525,1.612,1627.9779104,,,,,570,18,Man,Right,
,,,,,,,,,,,,,,,,,570,18,Man,Right,4,0,1,1,0,-,180,0.2351354000002175,['n'],0.21486800000093353,1.604,1630.5945579999998,,,,,570,18,Man,Right,
,,,,,,,,,,,,,,,,,570,18,Man,Right,4,11,0.4,2,180,0,180,0.6528976000008697,['n'],0.278942899998583,1.6520000000000001,1633.7944859000008,,,,,570,18,Man,Right,
,,,,,,,,,,,,,,,,,570,18,Man,Right,4,68,0.15,1,0,-,180,0.3218704999999318,['n'],0.22280859999955283,1.608,1636.711136500001,,,,,570,18,Man,Right,
,,,,,,,,,,,,,,,,,570,18,Man,Right,4,74,0.15,1,180,-,180,0.2398269999994227,['n'],0.1749005000001489,1.634,1639.1611299999995,,,,,570,18,Man,Right,
,,,,,,,,,,,,,,,,,570,18,Man,Right,4,37,0.4,2,0,180,180,0.2555658000001131,['n'],0.4549165999997058,1.63,1641.9777220000005,,,,,570,18,Man,Right,
,,,,,,,,,,,,,,,,,570,18,Man,Right,4,10,0.4,1,180,-,180,0.5568430000002991,['n'],1.3590423000005103,1.6,1645.8777638000001,,,,,570,18,Man,Right,
,,,,,,,,,,,,,,,,,570,18,Man,Right,4,31,0.4,2,180,0,180,0.6009252000003471,['n'],0.22289829999863287,1.642,1648.7943686000008,,,,,570,18,Man,Right,
,,,,,,,,,,,,,,,,,570,18,Man,Right,4,78,0.15,1,180,-,180,0.3913349000013113,['n'],0.1505964000007225,1.642,1648.7943686000008,,,,,570,18,Man,Right,
,,,,,,,,,,,,,,,,,570,18,Man,Right,4,56,0.15,1,0,-,180,0.28858109999964654,['n'],0.17462179999893124,1.716,1654.1778658000012,,,,,570,18,Man,Right,
,,,,,,,,,,,,,,,,,570,18,Man,Right,4,47,0.15,2,180,0,180,2.955726299998787,['n'],1.5680306999984168,1.42,1661.4278074000003,,,,,570,18,Man,Right,
,,,,,,,,,,,,,,,,,570,18,Man,Right,4,41,0.4,2,0,180,180,0.20359730000018317,['n'],0.21492840000064461,1.542,1664.127806900001,,,,,570,18,Man,Right,
,,,,,,,,,,,,,,,,,570,18,Man,Right,4,2,1,1,180,-,180,1.6318372999994608,['n'],0.5187548000012612,1.562,1668.3444023000002,,,,,570,18,Man,Right,
,,,,,,,,,,,,,,,,,570,18,Man,Right,4,40,0.4,1,0,-,180,0.06360859999949753,['n'],0.4228411000003689,1.6280000000000001,1670.8610835000009,,,,,570,18,Man,Right,
,,,,,,,,,,,,,,,,,570,18,Man,Right,4,58,0.15,1,180,-,180,0.26461879999988014,['n'],0.1987537999993947,1.612,1673.3609585000004,,,,,570,18,Man,Right,
,,,,,,,,,,,,,,,,,570,18,Man,Right,4,50,0.15,1,180,-,180,0.87547049999921,['n'],0.21503590000065742,1.604,1676.5609566000012,,,,,570,18,Man,Right,
,,,,,,,,,,,,,,,,,570,18,Man,Right,4,43,0.4,2,180,0,180,0.5563188999985869,['n'],0.2229289000006247,1.6,1679.3277132000012,,,,,570,18,Man,Right,
,,,,,,,,,,,,,,,,,570,18,Man,Right,4,16,0.4,1,0,-,180,0.49358460000075866,['n'],1.2628315000001749,1.564,1683.2109821000004,,,,,570,18,Man,Right,
,,,,,,,,,,,,,,,,,570,18,Man,Right,4,57,0.15,2,0,180,180,0.44235999999909836,['n'],0.2789112999998906,1.5779999999999998,1686.2276671000009,,,,,570,18,Man,Right,
,,,,,,,,,,,,,,,,,570,18,Man,Right,4,64,0.15,1,0,-,180,0.41969549999885203,['n'],0.28687579999859736,1.6059999999999999,1689.9276489000013,,,,,570,18,Man,Right,
,,,,,,,,,,,,,,,,,570,18,Man,Right,4,44,0.15,1,0,-,180,0.320374199998696,['n'],0.16685270000016317,1.5819999999999999,1692.4109197000007,,,,,570,18,Man,Right,
,,,,,,,,,,,,,,,,,570,18,Man,Right,4,23,0.4,2,180,0,180,0.11563659999956144,['n'],0.2388742999992246,1.58,1694.7943759,,,,,570,18,Man,Right,
,,,,,,,,,,,,,,,,,570,18,Man,Right,4,13,0.4,2,0,180,180,0.7491195000002335,['n'],0.17476340000030177,1.588,1697.944352900001,,,,,570,18,Man,Right,
,,,,,,,,,,,,,,,,,570,18,Man,Right,4,38,0.4,1,180,-,180,0.3964906000001065,['n'],0.34282969999912893,1.58,1700.9776607000013,,,,,570,18,Man,Right,
,,,,,,,,,,,,,,,,,570,18,Man,Right,4,76,0.15,1,0,-,0,1.0430354999989504,['y'],2.0308359999999084,1.6440000000000001,1706.3608777,,,,,570,18,Man,Right,
,,,,,,,,,,,,,,,,,570,18,Man,Right,4,19,0.4,2,180,0,180,2.3242295000000013,['n'],0.23897439999927883,1.616,1711.0108946999999,,,,,570,18,Man,Right,
,,,,,,,,,,,,,,,,,570,18,Man,Right,4,3,1,2,180,0,0,1.1871532000004663,['y'],0.406095299998924,1.764,1714.794200200001,,,,,570,18,Man,Right,
,,,,,,,,,,,,,,,,,570,18,Man,Right,4,73,0.15,2,0,180,180,1.3744013999985327,['n'],0.47887379999883706,1.5859999999999999,1718.7943119000001,,,,,570,18,Man,Right,
,,,,,,,,,,,,,,,,,570,18,Man,Right,4,59,0.15,2,180,0,180,0.8050136000001658,['n'],0.1588398000003508,1.5859999999999999,1718.7943119000001,,,,,570,18,Man,Right,
,,,,,,,,,,,,,,,,,570,18,Man,Right,4,1,1,2,0,180,180,0.4844001000001299,['y'],0.6948341999996046,2.0,1725.4275465,,,,,570,18,Man,Right,
,,,,,,,,,,,,,,,,,570,18,Man,Right,4,77,0.15,2,0,180,180,0.6475029000012,['n'],0.19906400000036228,1.702,1728.3942625999998,,,,,570,18,Man,Right,
,,,,,,,,,,,,,,,,,570,18,Man,Right,4,6,1,1,180,-,180,1.1078805999986798,['n'],0.1425636999993003,1.604,1732.3773991000007,,,,,570,18,Man,Right,
,,,,,,,,,,,,,,,,,570,18,Man,Right,4,9,0.4,2,0,180,180,0.8050396999988152,['y'],0.43885409999893454,1.604,1732.3773991000007,,,,,570,18,Man,Right,
,,,,,,,,,,,,,,,,,570,18,Man,Right,4,32,0.4,1,0,-,0,0.8129318000010244,['n'],0.5349669000006543,1.6480000000000001,1739.0774662000013,,,,,570,18,Man,Right,
,,,,,,,,,,,,,,,,,570,18,Man,Right,4,60,0.15,1,0,-,0,0.30654340000000957,['n'],0.23868149999907473,1.6480000000000001,1739.0774662000013,,,,,570,18,Man,Right,
,,,,,,,,,,,,,,,,,570,18,Man,Right,4,45,0.15,2,0,180,180,0.2828871999990952,['n'],0.23898120000012568,1.572,1744.2108178999997,,,,,570,18,Man,Right,
,,,,,,,,,,,,,,,,,570,18,Man,Right,4,18,0.4,1,180,-,180,0.22026499999992666,['n'],0.246880599999713,1.5739999999999998,1746.6774527000007,,,,,570,18,Man,Right,
,,,,,,,,,,,,,,,,,570,18,Man,Right,4,33,0.4,2,0,180,180,0.5606285999983811,['n'],0.21466189999955532,1.612,1749.4441299,,,,,570,18,Man,Right,
,,,,,,,,,,,,,,,,,570,18,Man,Right,4,51,0.15,2,180,0,0,0.6356090999997832,['n'],0.34226160000071104,1.624,1752.4940871999997,,,,,570,18,Man,Right,
,,,,,,,,,,,,,,,,,570,18,Man,Right,4,17,0.4,2,0,180,180,0.3296550000013667,['n'],0.18276689999947848,1.6139999999999999,1754.9607714000003,,,,,570,18,Man,Right,
,,,,,,,,,,,,,,,,,570,18,Man,Right,4,71,0.15,2,180,0,180,0.4383868999993865,['n'],0.18285939999987022,1.63,1757.5440733000005,,,,,570,18,Man,Right,
,,,,,,,,,,,,,,,,,570,18,Man,Right,4,20,0.4,1,0,-,180,0.3343525000000227,['n'],0.21487730000080774,1.6320000000000001,1760.077357000001,,,,,570,18,Man,Right,
,,,,,,,,,,,,,,,,,570,18,Man,Right,4,69,0.15,2,0,180,0,0.6335084999991523,['n'],0.2067827999999281,1.584,1762.9443258000001,,,,,570,18,Man,Right,
,,,,,,,,,,,,,,,,,570,18,Man,Right,4,5,1,2,0,180,180,0.6708638000000064,['y'],1.1747257999995782,1.584,1762.9443258000001,,,,,570,18,Man,Right,
,,,,,,,,,,,,,,,,,570,18,Man,Right,4,15,0.4,2,180,0,180,0.7709281999996165,['y'],0.2788216000008106,1.464,1771.3440610000007,,,,,570,18,Man,Right,
,,,,,,,,,,,,,,,,,570,18,Man,Right,4,8,0.4,1,0,-,0,0.3602787999989232,['n'],3.582950799998798,1.464,1771.3440610000007,,,,,570,18,Man,Right,
,,,,,,,,,,,,,,,,,570,18,Man,Right,4,42,0.4,1,180,-,180,0.5213306999994529,['n'],0.3029279000002134,1.604,1780.1776094000006,,,,,570,18,Man,Right,
,,,,,,,,,,,,,,,,,570,18,Man,Right,4,52,0.15,1,0,-,180,1.2629120000001421,['n'],0.22280920000048354,1.6520000000000001,1784.127311000001,,,,,570,18,Man,Right,
,,,,,,,,,,,,,,,,,570,18,Man,Right,4,61,0.15,2,0,180,180,0.24821090000114054,['n'],0.13481700000011188,1.6520000000000001,1784.127311000001,,,,,570,18,Man,Right,
,,,,,,,,,,,,,,,,,570,18,Man,Right,4,29,0.4,2,0,180,180,0.8146538999990298,['y'],0.6145194999990053,1.682,1790.2106704999997,,,,,570,18,Man,Right,
,,,,,,,,,,,,,,,,,570,18,Man,Right,4,26,0.4,1,180,-,0,0.717043200000262,['y'],0.630788799999209,1.73,1793.710682,,,,,570,18,Man,Right,
,,,,,,,,,,,,,,,,,570,18,Man,Right,4,14,0.4,1,180,-,180,0.2803128999985347,['n'],0.23881550000078278,1.634,1796.2606776000002,,,,,570,18,Man,Right,
,,,,,,,,,,,,,,,,,570,18,Man,Right,4,49,0.15,2,0,180,180,0.3624729000002844,['n'],0.4385954000008496,1.568,1799.2439695000003,,,,,570,18,Man,Right,
,,,,,,,,,,,,,,,,,570,18,Man,Right,4,34,0.4,1,180,-,180,2.360671899999943,['n'],0.5910867999991751,1.624,1804.3272447000008,,,,,570,18,Man,Right,
,,,,,,,,,,,,,,,,,570,18,Man,Right,4,22,0.4,1,180,-,180,1.4803105999999389,['n'],0.5507757000013953,1.6219999999999999,1808.4605062,,,,,570,18,Man,Right,
,,,,,,,,,,,,,,,,,570,18,Man,Right,4,55,0.15,2,180,0,180,1.0542762000004586,['n'],0.4388048000000708,1.6400000000000001,1812.4773004000008,,,,,570,18,Man,Right,
,,,,,,,,,,,,,,,,,570,18,Man,Right,4,12,0.4,1,0,-,180,0.1522930000010092,['n'],0.21482120000109717,1.6219999999999999,1814.9438950000012,,,,,570,18,Man,Right,
,,,,,,,,,,,,,,,,,570,18,Man,Right,4,48,0.15,1,0,-,0,0.5995289999991655,['n'],0.37486639999951876,1.662,1817.9275636000011,,,,,570,18,Man,Right,
,,,,,,,,,,,,,,,,,570,18,Man,Right,4,28,0.4,1,0,-,0,0.41549879999911354,['n'],0.15883889999895473,1.6059999999999999,1820.5771875,,,,,570,18,Man,Right,
,,,,,,,,,,,,,,,,,570,18,Man,Right,4,65,0.15,2,0,180,180,0.22821599999952014,['n'],0.15891679999913322,1.65,1823.0271996000001,,,,,570,18,Man,Right,
,,,,,,,,,,,,,,,,,570,18,Man,Right,4,75,0.15,2,180,0,180,0.25025060000007215,['n'],0.22282349999841244,1.6019999999999999,1825.9938916,,,,,570,18,Man,Right,
,,,,,,,,,,,,,,,,,570,18,Man,Right,4,24,0.4,1,0,-,180,0.16354880000108096,['n'],0.3748536000002787,1.608,1828.7439775000012,,,,,570,18,Man,Right,
,,,,,,,,,,,,,,,,,570,18,Man,Right,4,66,0.15,1,180,-,180,0.9769103999988147,['n'],0.2627857999996195,1.6400000000000001,1832.6105001999995,,,,,570,18,Man,Right,
,,,,,,,,,,,,,,,,,570,18,Man,Right,4,36,0.4,1,0,-,0,0.23274700000001758,['n'],0.23106120000011288,1.734,1835.227227100001,,,,,570,18,Man,Right,
,,,,,,,,,,,,,,,,,570,18,Man,Right,4,67,0.15,2,180,0,180,0.32848569999987376,['n'],0.30356380000011995,1.556,1838.1105175000002,,,,,570,18,Man,Right,
,,,,,,,,,,,,,,,,,570,18,Man,Right,4,70,0.15,1,180,-,180,0.5844090000009601,['n'],1.0308544999988953,1.658,1842.1105300000008,,,,,570,18,Man,Right,
,,,,,,,,,,,,,,,,,570,18,Man,Right,4,4,1,1,0,-,0,0.47220779999952356,['n'],0.28689810000105354,1.6139999999999999,1844.9772667999996,,,,,570,18,Man,Right,
,,,,,,,,,,,,,,,,,570,18,Man,Right,4,79,0.15,2,180,0,180,0.309374199998274,['n'],0.1988099999998667,1.5819999999999999,1847.5938068000005,,,,,570,18,Man,Right,
,,,,,,,,,,,,,,,,,570,18,Man,Right,4,54,0.15,1,180,-,180,0.7374889999991865,['n'],0.33480600000075356,1.584,1851.1105986000011,,,,,570,18,Man,Right,
,,,,,,,,,,,,,,,,,570,18,Man,Right,4,30,0.4,1,180,-,180,0.24792949999937264,['n'],0.1507714000017586,1.57,1853.8270478000004,,,,,570,18,Man,Right,
,,,,,,,,,,,,,,,,,570,18,Man,Right,4,35,0.4,2,180,0,180,0.1822204000000056,['n'],0.5188670000006823,1.57,1853.8270478000004,,,,,570,18,Man,Right,
,,,,,,,,,,,,,,,,,570,18,Man,Right,5,29,0.4,2,0,180,180,0.5351043999999092,['y'],0.7351280000002589,1.854,1882.2102526999997,58.75,95.0,15.0,,570,18,Man,Right,
,,,,,,,,,,,,,,,,,570,18,Man,Right,5,33,0.4,2,0,180,180,0.4522047999998904,['y'],0.5908887999994477,1.784,1885.443636500001,,,,,570,18,Man,Right,
,,,,,,,,,,,,,,,,,570,18,Man,Right,5,79,0.15,2,180,0,0,0.4671288999998069,['y'],1.023417000000336,1.766,1889.2268879000012,,,,,570,18,Man,Right,
,,,,,,,,,,,,,,,,,570,18,Man,Right,5,41,0.4,2,0,180,180,0.3361903999993956,['y'],0.4948392000005697,1.612,1892.3602732000008,,,,,570,18,Man,Right,
,,,,,,,,,,,,,,,,,570,18,Man,Right,5,78,0.15,1,180,-,180,0.7992951000014727,['n'],0.550904099998661,1.658,1896.1935769000002,,,,,570,18,Man,Right,
,,,,,,,,,,,,,,,,,570,18,Man,Right,5,14,0.4,1,180,-,180,1.9628577000003133,['n'],0.43893019999995886,1.6320000000000001,1900.7769727000004,,,,,570,18,Man,Right,
,,,,,,,,,,,,,,,,,570,18,Man,Right,5,31,0.4,2,180,0,0,0.2012814999998227,['y'],0.49486789999900793,1.654,1903.7435981999997,,,,,570,18,Man,Right,
,,,,,,,,,,,,,,,,,570,18,Man,Right,5,11,0.4,2,180,0,0,0.45019630000024335,['y'],0.618143700001383,1.692,1906.9435958000004,,,,,570,18,Man,Right,
,,,,,,,,,,,,,,,,,570,18,Man,Right,5,70,0.15,1,180,-,0,1.2852072999994562,['n'],0.37484330000006594,1.654,1910.876902500001,,,,,570,18,Man,Right,
,,,,,,,,,,,,,,,,,570,18,Man,Right,5,59,0.15,2,180,0,180,0.26611960000082036,['n'],0.734939599999052,1.6019999999999999,1913.9268956999995,,,,,570,18,Man,Right,
,,,,,,,,,,,,,,,,,570,18,Man,Right,5,39,0.4,2,180,0,0,0.21499070000027132,['y'],0.78261829999974,1.662,1917.1435472000003,,,,,570,18,Man,Right,
,,,,,,,,,,,,,,,,,570,18,Man,Right,5,6,1,1,180,-,0,0.3733238999993773,['y'],0.8790523000006942,1.6320000000000001,1920.4769079000007,,,,,570,18,Man,Right,
,,,,,,,,,,,,,,,,,570,18,Man,Right,5,25,0.4,2,0,180,180,0.19945860000007087,['y'],0.4069944000002579,1.634,1923.210097600001,,,,,570,18,Man,Right,
,,,,,,,,,,,,,,,,,570,18,Man,Right,5,12,0.4,1,0,-,180,0.6842841999987286,['y'],0.39873249999982363,1.634,1923.210097600001,,,,,570,18,Man,Right,
,,,,,,,,,,,,,,,,,570,18,Man,Right,5,50,0.15,1,180,-,0,1.7434512999989238,['n'],0.5346768999988853,1.6179999999999999,1931.5435114000002,,,,,570,18,Man,Right,
,,,,,,,,,,,,,,,,,570,18,Man,Right,5,64,0.15,1,0,-,180,2.477888299999904,['y'],0.28694739999991725,1.566,1936.4266861999995,,,,,570,18,Man,Right,
,,,,,,,,,,,,,,,,,570,18,Man,Right,5,77,0.15,2,0,180,180,0.6986121000009007,['y'],0.23075839999910386,1.3719999999999999,1941.4769059,,,,,570,18,Man,Right,
,,,,,,,,,,,,,,,,,570,18,Man,Right,5,8,0.4,1,0,-,0,0.3139014999997016,['n'],1.1910561000004236,1.704,1945.5100598,,,,,570,18,Man,Right,
,,,,,,,,,,,,,,,,,570,18,Man,Right,5,55,0.15,2,180,0,0,0.2940596000007645,['n'],1.6954338999985339,1.6280000000000001,1949.9767075000009,,,,,570,18,Man,Right,
,,,,,,,,,,,,,,,,,570,18,Man,Right,5,47,0.15,2,180,0,0,0.3228801999994175,['n'],0.22269039999991946,1.5939999999999999,1952.676778,,,,,570,18,Man,Right,
,,,,,,,,,,,,,,,,,570,18,Man,Right,5,16,0.4,1,0,-,0,0.2640750000009575,['n'],0.2308828999994148,1.6139999999999999,1955.2603222999996,,,,,570,18,Man,Right,
,,,,,,,,,,,,,,,,,570,18,Man,Right,5,74,0.15,1,180,-,0,0.3226353999998537,['n'],0.23890170000049693,1.624,1957.8268271000006,,,,,570,18,Man,Right,
,,,,,,,,,,,,,,,,,570,18,Man,Right,5,19,0.4,2,180,0,0,0.29106189999947674,['n'],0.3265358999997261,1.5939999999999999,1960.5768073999998,,,,,570,18,Man,Right,
,,,,,,,,,,,,,,,,,570,18,Man,Right,5,2,1,1,180,-,180,1.038451599999462,['n'],0.31846560000121826,1.5939999999999999,1964.5600827000007,,,,,570,18,Man,Right,
,,,,,,,,,,,,,,,,,570,18,Man,Right,5,63,0.15,2,180,0,0,0.222621099999742,['n'],0.19894159999967087,1.6179999999999999,1967.0767373000008,,,,,570,18,Man,Right,
,,,,,,,,,,,,,,,,,570,18,Man,Right,5,56,0.15,1,0,-,0,0.19272259999888774,['n'],0.1828829999994923,1.608,1969.5100310999997,,,,,570,18,Man,Right,
,,,,,,,,,,,,,,,,,570,18,Man,Right,5,3,1,2,180,0,0,0.2248607000001357,['n'],0.19868039999892062,1.314,1973.2435164000008,,,,,570,18,Man,Right,
,,,,,,,,,,,,,,,,,570,18,Man,Right,5,18,0.4,1,180,-,0,0.31466749999890453,['n'],0.21489370000017516,1.6,1975.8433653000002,,,,,570,18,Man,Right,
,,,,,,,,,,,,,,,,,570,18,Man,Right,5,34,0.4,1,180,-,0,0.2952987000007852,['n'],0.19878520000020217,1.6059999999999999,1978.8933220999998,,,,,570,18,Man,Right,
,,,,,,,,,,,,,,,,,570,18,Man,Right,5,57,0.15,2,0,180,0,0.3360271000001376,['n'],0.2868670999996539,1.6059999999999999,1978.8933220999998,,,,,570,18,Man,Right,
,,,,,,,,,,,,,,,,,570,18,Man,Right,5,42,0.4,1,180,-,0,0.35809340000014345,['n'],0.2788339000017004,1.596,1984.3100333000011,,,,,570,18,Man,Right,
,,,,,,,,,,,,,,,,,570,18,Man,Right,5,68,0.15,1,0,-,0,0.297159499999907,['n'],1.3268027000012808,1.596,1988.0099708000007,,,,,570,18,Man,Right,
,,,,,,,,,,,,,,,,,570,18,Man,Right,5,27,0.4,2,180,0,0,0.3013269000002765,['n'],0.4468670000005659,1.596,1988.0099708000007,,,,,570,18,Man,Right,
,,,,,,,,,,,,,,,,,570,18,Man,Right,5,69,0.15,2,0,180,0,0.2691264000004594,['n'],0.21442150000075344,1.62,1993.9432492000005,,,,,570,18,Man,Right,
,,,,,,,,,,,,,,,,,570,18,Man,Right,5,52,0.15,1,0,-,0,0.341984800001228,['n'],0.3188960000006773,1.662,1996.7764909999996,,,,,570,18,Man,Right,
,,,,,,,,,,,,,,,,,570,18,Man,Right,5,75,0.15,2,180,0,0,0.24380000000019209,['n'],0.247093699999823,1.5939999999999999,1999.3765967000008,,,,,570,18,Man,Right,
,,,,,,,,,,,,,,,,,570,18,Man,Right,5,1,1,2,0,180,0,0.1930536999989272,['n'],0.23886979999952018,1.612,2002.2098493000003,,,,,570,18,Man,Right,
,,,,,,,,,,,,,,,,,570,18,Man,Right,5,44,0.15,1,0,-,0,0.24326680000012857,['n'],0.2629089000001841,1.616,2004.8765878000004,,,,,570,18,Man,Right,
,,,,,,,,,,,,,,,,,570,18,Man,Right,5,28,0.4,1,0,-,0,0.3279762000001938,['n'],0.2627630999995745,1.6560000000000001,2007.793198100001,,,,,570,18,Man,Right,
,,,,,,,,,,,,,,,,,570,18,Man,Right,5,0,1,1,0,-,0,0.3126635999997234,['n'],1.1588594999993802,1.698,2011.6432409,,,,,570,18,Man,Right,
,,,,,,,,,,,,,,,,,570,18,Man,Right,5,73,0.15,2,0,180,0,0.2744212999987212,['n'],0.2069018000001961,1.6139999999999999,2014.3099352,,,,,570,18,Man,Right,
,,,,,,,,,,,,,,,,,570,18,Man,Right,5,71,0.15,2,180,0,0,0.24782070000037493,['n'],0.22294899999906193,1.5859999999999999,2016.9099128999997,,,,,570,18,Man,Right,
,,,,,,,,,,,,,,,,,570,18,Man,Right,5,22,0.4,1,180,-,0,0.36067409999850497,['n'],0.246836299998904,1.5979999999999999,2019.5767719000005,,,,,570,18,Man,Right,
,,,,,,,,,,,,,,,,,570,18,Man,Right,5,36,0.4,1,0,-,0,0.5890764999985549,['n'],0.21482400000058988,1.6059999999999999,2022.793191400001,,,,,570,18,Man,Right,
,,,,,,,,,,,,,,,,,570,18,Man,Right,5,10,0.4,1,180,-,0,0.26047230000040145,['n'],0.2150714000017615,1.6,2025.4931668,,,,,570,18,Man,Right,
,,,,,,,,,,,,,,,,,570,18,Man,Right,5,46,0.15,1,180,-,0,0.4413177000005817,['n'],1.1190101000011055,1.6,2025.4931668,,,,,570,18,Man,Right,
,,,,,,,,,,,,,,,,,570,18,Man,Right,5,43,0.4,2,180,0,0,0.31251610000072105,['n'],0.2388915999999881,1.592,2032.6766443000006,,,,,570,18,Man,Right,
,,,,,,,,,,,,,,,,,570,18,Man,Right,5,37,0.4,2,0,180,0,0.28864419999990787,['n'],0.18285719999948924,1.6,2035.3263894000002,,,,,570,18,Man,Right,
,,,,,,,,,,,,,,,,,570,18,Man,Right,5,23,0.4,2,180,0,0,0.16041880000011588,['n'],0.270399200000611,1.5779999999999998,2037.8930826999995,,,,,570,18,Man,Right,
,,,,,,,,,,,,,,,,,570,18,Man,Right,5,62,0.15,1,180,-,0,0.3052289000006567,['n'],0.19882700000016484,1.556,2040.5764499000006,,,,,570,18,Man,Right,
,,,,,,,,,,,,,,,,,570,18,Man,Right,5,32,0.4,1,0,-,0,0.28652060000058555,['n'],0.27086079999935464,1.5979999999999999,2043.1597272000008,,,,,570,18,Man,Right,
,,,,,,,,,,,,,,,,,570,18,Man,Right,5,76,0.15,1,0,-,0,0.33459440000115137,['n'],0.35879019999993034,1.5979999999999999,2043.1597272000008,,,,,570,18,Man,Right,
,,,,,,,,,,,,,,,,,570,18,Man,Right,5,7,1,2,180,0,0,0.41617219999898225,['y'],0.590697800000271,1.6320000000000001,2049.1930827000006,,,,,570,18,Man,Right,
,,,,,,,,,,,,,,,,,570,18,Man,Right,5,21,0.4,2,0,180,0,0.21127100000012433,['n'],0.2788060000002588,1.63,2051.7765049,,,,,570,18,Man,Right,
,,,,,,,,,,,,,,,,,570,18,Man,Right,5,30,0.4,1,180,-,0,0.2292949000002409,['n'],0.22279639999942447,1.62,2054.4930558000005,,,,,570,18,Man,Right,
,,,,,,,,,,,,,,,,,570,18,Man,Right,5,24,0.4,1,0,-,0,0.23190140000042447,['n'],0.20679790000031062,1.62,2054.4930558000005,,,,,570,18,Man,Right,
,,,,,,,,,,,,,,,,,570,18,Man,Right,5,51,0.15,2,180,0,0,0.30262710000170046,['n'],0.26283239999975194,1.634,2059.776439600001,,,,,570,18,Man,Right,
,,,,,,,,,,,,,,,,,570,18,Man,Right,5,35,0.4,2,180,0,0,0.5493170000008831,['n'],0.20681340000010096,1.6139999999999999,2062.6096195,,,,,570,18,Man,Right,
,,,,,,,,,,,,,,,,,570,18,Man,Right,5,9,0.4,2,0,180,0,0.31585380000069563,['n'],0.25478620000103547,1.562,2065.276399900001,,,,,570,18,Man,Right,
,,,,,,,,,,,,,,,,,570,18,Man,Right,5,13,0.4,2,0,180,0,0.19392770000013115,['n'],0.26276340000003984,1.6139999999999999,2067.7930146999997,,,,,570,18,Man,Right,
,,,,,,,,,,,,,,,,,570,18,Man,Right,5,40,0.4,1,0,-,0,0.21303749999970023,['n'],0.2230037999997876,1.604,2070.476362100001,,,,,570,18,Man,Right,
,,,,,,,,,,,,,,,,,570,18,Man,Right,5,5,1,2,0,180,180,0.5112404999999853,['y'],0.40692350000063016,1.71,2073.6763235000008,,,,,570,18,Man,Right,
,,,,,,,,,,,,,,,,,570,18,Man,Right,5,53,0.15,2,0,180,0,0.29926850000083505,['n'],0.26282419999915874,1.654,2076.4429962000004,,,,,570,18,Man,Right,
,,,,,,,,,,,,,,,,,570,18,Man,Right,5,48,0.15,1,0,-,0,0.2598393999996915,['n'],0.19888560000072175,1.654,2076.4429962000004,,,,,570,18,Man,Right,
,,,,,,,,,,,,,,,,,570,18,Man,Right,5,20,0.4,1,0,-,0,0.15712619999976596,['n'],0.2469105000000127,1.5,2081.0471270000007,,,,,570,18,Man,Right,
,,,,,,,,,,,,,,,,,570,18,Man,Right,5,61,0.15,2,0,180,0,0.15056530000038038,['n'],0.3748281999996834,1.696,2083.976337700001,,,,,570,18,Man,Right,
,,,,,,,,,,,,,,,,,570,18,Man,Right,5,26,0.4,1,180,-,0,0.32437879999997676,['n'],0.3030455999996775,1.5979999999999999,2086.7262978999997,,,,,570,18,Man,Right,
,,,,,,,,,,,,,,,,,570,18,Man,Right,5,15,0.4,2,180,0,0,0.30326050000076066,['n'],0.3107701000008092,1.6099999999999999,2089.6095264000005,,,,,570,18,Man,Right,
,,,,,,,,,,,,,,,,,570,18,Man,Right,5,38,0.4,1,180,-,0,0.22899020000113524,['n'],0.2548731000006228,1.678,2093.5597554999995,,,,,570,18,Man,Right,
,,,,,,,,,,,,,,,,,570,18,Man,Right,5,67,0.15,2,180,0,0,0.14947310000025027,['n'],0.28663630000119156,1.6560000000000001,2096.0929222000004,,,,,570,18,Man,Right,
,,,,,,,,,,,,,,,,,570,18,Man,Right,5,58,0.15,1,180,-,0,0.2878614999990532,['n'],0.19909329999973124,1.6560000000000001,2096.0929222000004,,,,,570,18,Man,Right,
,,,,,,,,,,,,,,,,,570,18,Man,Right,5,54,0.15,1,180,-,0,0.29508089999944787,['n'],0.26300259999879927,1.684,2101.392880800001,,,,,570,18,Man,Right,
,,,,,,,,,,,,,,,,,570,18,Man,Right,5,65,0.15,2,0,180,0,0.21818290000010165,['n'],0.27080649999879824,1.7,2104.0429283000003,,,,,570,18,Man,Right,
,,,,,,,,,,,,,,,,,570,18,Man,Right,5,4,1,1,0,-,0,0.5552402999983315,['y'],1.1989395999989938,1.684,2111.5096167,,,,,570,18,Man,Right,
,,,,,,,,,,,,,,,,,570,18,Man,Right,5,60,0.15,1,0,-,0,0.2870782000009058,['n'],0.17497759999969276,1.6179999999999999,2114.0428958,,,,,570,18,Man,Right,
,,,,,,,,,,,,,,,,,570,18,Man,Right,5,17,0.4,2,0,180,0,0.1755739000000176,['n'],0.21498479999900155,1.612,2116.5096449000002,,,,,570,18,Man,Right,
,,,,,,,,,,,,,,,,,570,18,Man,Right,5,72,0.15,1,0,-,0,0.3518614999993588,['n'],1.2148643999989872,1.612,2116.5096449000002,,,,,570,18,Man,Right,
,,,,,,,,,,,,,,,,,570,18,Man,Right,5,66,0.15,1,180,-,0,0.06451860000015586,['n'],0.22284700000091107,1.6600000000000001,2124.3761888,,,,,570,18,Man,Right,
,,,,,,,,,,,,,,,,,570,18,Man,Right,5,45,0.15,2,0,180,0,0.25444919999972626,['n'],0.1828893000001699,1.662,2126.8430473,,,,,570,18,Man,Right,
,,,,,,,,,,,,,,,,,570,18,Man,Right,5,49,0.15,2,0,180,0,0.32251539999924717,['n'],0.16686310000113735,1.718,2129.409536600001,,,,,570,18,Man,Right,
,,,,,,,,,,,,,,,,,,,,,,,,,,,,,,,,,57.5,90.0,27.5,1868.7994651999998,,,,,
